"Time (s)","Linear Acceleration x (m/s^2)","Linear Acceleration y (m/s^2)","Linear Acceleration z (m/s^2)","Absolute acceleration (m/s^2)"
5.655166693E-3,-6.565699585E-1,-1.095240502E-1,1.565942824E-2,6.658264381E-1
1.564016665E-2,-4.761457872E-1,2.341663688E-3,-5.993688405E-2,4.799090791E-1
2.562616667E-2,-3.125803082E-1,7.103870004E-2,-1.479579449E-1,3.530502789E-1
3.561116668E-2,-2.698856571E-1,7.007025495E-2,-1.727934086E-1,3.280330328E-1
4.559716670E-2,-2.560388292E-1,1.123092252E-1,-2.102606124E-1,3.498267703E-1
5.558216665E-2,-3.024510303E-1,2.007685348E-1,-2.128094137E-1,4.207998062E-1
6.556816667E-2,-3.193961516E-1,2.661203791E-1,1.524953842E-3,4.157358336E-1
7.555316668E-2,-1.983176013E-1,3.010693333E-1,3.529987478E-1,5.045599374E-1
8.553916664E-2,-8.941682775E-2,2.471223369E-1,5.935982233E-1,6.491715253E-1
9.552416665E-2,-1.874106438E-1,1.400941707E-1,6.420921063E-1,6.833969557E-1
1.055101667E-1,-1.980655863E-1,7.810915321E-2,3.791726393E-1,4.348596402E-1
1.154951667E-1,-4.232927319E-2,1.153779902E-1,-3.020086884E-3,1.229348157E-1
1.254811666E-1,-4.159201238E-2,1.316687715E-1,-2.256247562E-1,2.645242739E-1
1.354661667E-1,-2.891568739E-1,5.835579693E-2,-2.104898232E-1,3.623852404E-1
1.454521667E-1,-3.581540551E-1,5.077020407E-2,-1.138920665E-1,3.792404826E-1
1.554371667E-1,-4.035645186E-1,5.340262055E-2,-8.827015221E-2,4.165426513E-1
1.654231666E-1,-4.473778517E-1,4.065276682E-4,-9.372326553E-2,4.570898795E-1
1.754081667E-1,-4.045000000E-1,-2.572687179E-2,-6.188225269E-2,4.100140670E-1
1.853931667E-1,-4.314041721E-1,-2.737710223E-2,-3.402494788E-2,4.336089973E-1
1.953791667E-1,-3.941393917E-1,-1.343093741E-1,-2.166919649E-2,4.169585377E-1
2.053641666E-1,-1.729827305E-1,-2.638822111E-1,-1.335872430E-1,3.426403331E-1
2.153501667E-1,2.235549515E-2,-1.986926271E-1,-3.329433829E-1,3.883681558E-1
2.253351667E-1,-1.031752165E-2,-1.502427444E-1,-4.526738942E-1,4.770670686E-1
2.353211667E-1,-2.581435710E-1,-2.376330368E-1,-4.188167614E-1,5.463653018E-1
2.453061666E-1,-4.021297581E-1,-2.727882515E-1,-3.499552721E-1,5.988242354E-1
2.552921667E-1,-3.439533245E-1,-3.026764405E-1,-3.319821006E-1,5.657994629E-1
2.652771667E-1,-1.883580754E-1,-3.562350355E-1,-4.005295944E-1,5.681602953E-1
2.752631667E-1,-9.922578782E-3,-3.676219033E-1,-5.681476325E-1,6.767836092E-1
2.852481666E-1,6.126961067E-2,-4.063730094E-1,-7.624792600E-1,8.661798946E-1
2.952341667E-1,-3.968285993E-2,-4.850497811E-1,-9.082731503E-1,1.030440748E0
3.052191667E-1,-1.419840274E-1,-5.683742121E-1,-1.018675014E0,1.175120204E0
3.152051667E-1,-1.231056704E-1,-6.181866422E-1,-1.179560568E0,1.337412750E0
3.251901667E-1,-7.223975468E-2,-6.357195184E-1,-1.356148235E0,1.499498557E0
3.351761667E-1,-9.115246408E-2,-7.164955866E-1,-1.565401372E0,1.723994244E0
3.451611667E-1,-8.347704336E-3,-8.337816694E-1,-1.851210349E0,2.030330346E0
3.551471666E-1,2.267374448E-1,-9.053056884E-1,-2.254011002E0,2.439580672E0
3.651321667E-1,5.026555647E-1,-9.620928235E-1,-2.683013613E0,2.894278367E0
3.751181667E-1,4.120506558E-1,-1.260188848E0,-3.759282532E0,3.986234668E0
3.851031667E-1,1.629938406E-1,-1.645443614E0,-4.366379052E0,4.668973946E0
3.950881667E-1,3.402139570E-1,-1.412433825E0,-3.062522467E0,3.389654659E0
4.050741667E-1,7.590038943E-1,-1.300457306E0,-3.267121221E0,3.597409789E0
4.150591667E-1,1.349774477E0,-1.631196727E0,-3.103678095E0,3.757061567E0
4.250451667E-1,1.850543182E0,-1.645880986E0,-2.772661369E0,3.717672035E0
4.350301666E-1,2.273572716E0,-1.462732305E0,-2.623695949E0,3.767293342E0
4.450161667E-1,2.727586353E0,-1.438524101E0,-2.487225444E0,3.961738168E0
4.550011667E-1,3.325743651E0,-1.423266230E0,-2.415074311E0,4.349579465E0
4.649871667E-1,3.921352732E0,-1.334862469E0,-2.461388937E0,4.818433413E0
4.749721666E-1,4.599209040E0,-1.278727445E0,-2.610187712E0,5.440675286E0
4.849581667E-1,5.302411859E0,-1.159002635E0,-2.753720484E0,6.086200386E0
4.949431667E-1,6.155960918E0,-1.023970179E0,-2.699428502E0,6.799359087E0
5.049291667E-1,7.438076971E0,-9.147337389E-1,-2.273861715E0,7.831486061E0
5.149141666E-1,8.524256335E0,-6.695516543E-1,-1.325498300E0,8.652640708E0
5.249001667E-1,8.938446779E0,-5.328591013E-1,3.292491120E-1,8.960366880E0
5.348851667E-1,9.176131418E0,-5.459292363E-1,2.603306708E0,9.553880486E0
5.448711667E-1,9.352159506E0,-5.077050374E-1,4.791619565E0,1.052046909E1
5.548561667E-1,9.629452599E0,-2.927690645E-1,6.596142821E0,1.167566577E1
5.648421667E-1,9.828378968E0,-1.971286431E-2,8.170276424E0,1.278087785E1
5.748271667E-1,9.859437039E0,2.390585880E-1,9.222616197E0,1.350267741E1
5.848121667E-1,9.604033583E0,5.097378950E-1,9.748516527E0,1.369419104E1
5.947981667E-1,8.994832649E0,6.724967507E-1,9.971167974E0,1.344557388E1
6.047831667E-1,8.485665881E0,7.117926711E-1,1.015102482E1,1.324977280E1
6.147691667E-1,7.723514065E0,7.175235271E-1,1.049650054E1,1.305159121E1
6.247541667E-1,6.449009918E0,8.658274810E-1,1.102633078E1,1.280309950E1
6.347401667E-1,5.137628551E0,1.036096500E0,1.173309426E1,1.285045618E1
6.447251667E-1,4.258546456E0,1.249348256E0,1.233417751E1,1.310831888E1
6.547111667E-1,3.909861491E0,1.181394839E0,1.295254629E1,1.358127999E1
6.646961666E-1,3.564332854E0,8.245112014E-1,1.352373740E1,1.400984513E1
6.746821667E-1,3.182625739E0,4.710980321E-1,1.407674951E1,1.443973396E1
6.846671667E-1,2.717774141E0,8.832701638E-2,1.490861534E1,1.515456728E1
6.946531667E-1,2.004732504E0,-2.486809123E-1,1.565826698E1,1.578803723E1
7.046381666E-1,1.164462399E0,-6.548836215E-1,1.602919212E1,1.608477060E1
7.146241667E-1,1.692203761E-1,-1.076926146E0,1.631243944E1,1.634882521E1
7.246091667E-1,-8.985518619E-1,-1.337957108E0,1.654523931E1,1.662355162E1
7.345951667E-1,-1.877287177E0,-1.495782376E0,1.690553772E1,1.707509232E1
7.445801666E-1,-2.537495127E0,-1.829823719E0,1.729947867E1,1.758007676E1
7.545661667E-1,-2.795671625E0,-2.456603576E0,1.734758489E1,1.774230488E1
7.645511667E-1,-2.898147880E0,-3.330907912E0,1.709379234E1,1.765479949E1
7.745371667E-1,-3.155853385E0,-4.415906431E0,1.688132557E1,1.773242209E1
7.845221667E-1,-3.631551275E0,-5.458978660E0,1.639548042E1,1.765787051E1
7.945081667E-1,-4.272276303E0,-6.548649981E0,1.584265425E1,1.766711224E1
8.044931667E-1,-5.113487737E0,-7.441791707E0,1.520435582E1,1.768333839E1
8.144791666E-1,-5.472914913E0,-8.300305637E0,1.483263195E1,1.785650699E1
8.244641667E-1,-5.815460009E0,-9.154037129E0,1.476767874E1,1.832212613E1
8.344491667E-1,-6.432050069E0,-1.009130721E1,1.437557615E1,1.870462346E1
8.444351667E-1,-7.035593237E0,-1.117491087E1,1.362869375E1,1.897681476E1
8.544199167E-1,-7.928551360E0,-1.236184653E1,1.253371140E1,1.930728096E1
8.644059167E-1,-9.117079802E0,-1.370321535E1,1.128597756E1,1.995676688E1
8.743909167E-1,-1.023418275E1,-1.464075206E1,9.996180024E0,2.046982492E1
8.843769167E-1,-1.011640813E1,-1.535874570E1,9.470007799E0,2.068607818E1
8.943619167E-1,-9.539996046E0,-1.596068381E1,9.225436310E0,2.075725481E1
9.043479167E-1,-8.984378997E0,-1.622769808E1,8.082898557E0,2.023340060E1
9.143329167E-1,-8.319366975E0,-1.651579741E1,6.875241534E0,1.972947990E1
9.243189167E-1,-8.281032044E0,-1.700550874E1,6.244547405E0,1.991876481E1
9.343039166E-1,-8.738536323E0,-1.721352694E1,5.370581038E0,2.003773110E1
9.442899167E-1,-8.802984334E0,-1.754084823E1,4.348290106E0,2.010177894E1
9.542749167E-1,-8.009393209E0,-1.791135471E1,2.906635113E0,1.983470531E1
9.642609167E-1,-6.395393874E0,-1.786208841E1,1.365647036E0,1.902157346E1
9.742459166E-1,-5.073239012E0,-1.763062521E1,4.900346786E-2,1.834609224E1
9.842319167E-1,-4.209175198E0,-1.751347741E1,-1.027668616E0,1.804148413E1
9.942169167E-1,-3.495173156E0,-1.752124953E1,-2.214804252E0,1.800321578E1
1.004202917E0,-2.794036743E0,-1.748110839E1,-3.492027939E0,1.804411403E1
1.014187917E0,-2.096688449E0,-1.739505258E1,-4.603526039E0,1.811563990E1
1.024173917E0,-1.558575332E0,-1.703089501E1,-5.496009661E0,1.796348140E1
1.034158917E0,-1.664107342E0,-1.643459128E1,-5.687239925E0,1.747025305E1
1.044143917E0,-1.863039851E0,-1.618445558E1,-5.236176939E0,1.711213221E1
1.054129917E0,-1.647148663E0,-1.532289525E1,-4.937334518E0,1.618275285E1
1.064114917E0,-1.012065029E0,-1.448241881E1,-4.469611645E0,1.519019942E1
1.074100917E0,-2.484853229E-1,-1.470079594E1,-3.856517050E0,1.520025888E1
1.084085917E0,5.301885317E-1,-1.490198811E1,-3.817423736E0,1.539230566E1
1.094071917E0,1.000433163E0,-1.491148516E1,-4.140235648E0,1.550789500E1
1.104056917E0,1.012411769E0,-1.497315925E1,-4.295709604E0,1.561004793E1
1.114042917E0,7.285193624E-1,-1.494575803E1,-4.320819887E0,1.557484857E1
1.124027917E0,4.830703524E-1,-1.499171714E1,-4.522586249E0,1.566648417E1
1.134013917E0,4.706565674E-1,-1.510697629E1,-4.931689031E0,1.589854732E1
1.143998917E0,6.418066160E-1,-1.527923058E1,-5.235769973E0,1.616416067E1
1.153984917E0,9.558463892E-1,-1.558412195E1,-5.125752271E0,1.643325396E1
1.163969917E0,1.234155143E0,-1.590094397E1,-4.852746942E0,1.667070218E1
1.173955917E0,1.079058187E0,-1.637464679E1,-4.615647025E0,1.704692411E1
1.183940917E0,3.344498083E-1,-1.686041242E1,-4.277652233E0,1.739780654E1
1.193926917E0,-2.094677847E-1,-1.728121080E1,-3.916500127E0,1.772069685E1
1.203911917E0,1.145543916E-1,-1.746152373E1,-3.708275515E0,1.785130922E1
1.213897917E0,7.869337045E-1,-1.743171463E1,-3.506385192E0,1.779827735E1
1.223882917E0,1.202564757E0,-1.749924763E1,-3.189705255E0,1.782818132E1
1.233868917E0,1.254956905E0,-1.765419416E1,-2.616622573E0,1.789112076E1
1.243853917E0,1.172511603E0,-1.743414005E1,-2.139595171E0,1.760403051E1
1.253839917E0,1.107229194E0,-1.698915291E1,-1.753076529E0,1.711521400E1
1.263824917E0,8.974075618E-1,-1.693076729E1,-1.174146631E0,1.699514171E1
1.273809917E0,9.265302041E-1,-1.698581064E1,-5.148830062E-1,1.701885207E1
1.283795917E0,1.608058272E0,-1.704693158E1,1.439020237E-1,1.712321335E1
1.293780917E0,2.840159288E0,-1.684129553E1,6.506538919E-1,1.709149176E1
1.303766917E0,4.452812887E0,-1.619368132E1,6.455176976E-1,1.680712796E1
1.313751917E0,5.911691730E0,-1.567192725E1,3.200935417E-1,1.675290609E1
1.323737917E0,7.030703795E0,-1.520785479E1,-5.649872124E-3,1.675439271E1
1.333722917E0,7.996526411E0,-1.473265274E1,-1.837972838E-1,1.676392773E1
1.343708917E0,9.264836018E0,-1.370995251E1,4.748623234E-1,1.655371494E1
1.353693917E0,1.073241464E1,-1.186012502E1,1.927820569E0,1.611098327E1
1.363679917E0,1.097531967E1,-1.060594404E1,3.483175839E0,1.565490993E1
1.373664917E0,9.482096917E0,-1.066511319E1,4.239994410E0,1.488732192E1
1.383650917E0,7.580936728E0,-1.164164264E1,3.745375514E0,1.438840793E1
1.393635917E0,7.610644677E0,-1.236390007E1,3.253757994E0,1.487867193E1
1.403621917E0,9.305589357E0,-1.220646496E1,3.924796742E0,1.584284727E1
1.413606917E0,1.163804427E1,-1.048433015E1,5.293235239E0,1.653431560E1
1.423592917E0,1.362114383E1,-7.987571400E0,7.502577022E0,1.748214855E1
1.433577917E0,1.386902133E1,-6.763753257E0,1.040937703E1,1.861325444E1
1.443563917E0,1.222837097E1,-6.943420653E0,1.248502164E1,1.880478429E1
1.453548917E0,8.612512454E0,-7.851676261E0,1.348896518E1,1.782628319E1
1.463534917E0,4.462802562E0,-8.777870543E0,1.390110383E1,1.703550134E1
1.473519917E0,2.417049209E0,-9.045977075E0,1.337178113E1,1.632410361E1
1.483505917E0,3.145683907E0,-7.681147479E0,1.228201918E1,1.482374274E1
1.493490917E0,5.116792583E0,-4.835671026E0,1.155685802E1,1.353241471E1
1.503475917E0,6.268156123E0,-3.303495288E0,1.265292210E1,1.450169990E1
1.513461917E0,5.885507314E0,-2.976853741E0,1.520855880E1,1.657712626E1
1.523446917E0,4.548270144E0,-1.974704567E0,1.688667227E1,1.759959999E1
1.533432917E0,2.559443820E0,-2.149285323E0,1.822547298E1,1.852938330E1
1.543417917E0,3.929884404E-1,-2.395701609E0,1.896421839E1,1.911898024E1
1.553403917E0,-1.637681143E0,-2.200355636E0,1.901876005E1,1.921553534E1
1.563388917E0,-2.849696389E0,-2.264170978E0,1.901654863E1,1.936172414E1
1.573374917E0,-3.206391162E0,-2.205724695E0,1.791554599E1,1.833338359E1
1.583359917E0,-3.370401176E0,-2.591900837E0,1.592197290E1,1.647989002E1
1.593345917E0,-4.294378193E0,-2.538457578E0,1.443067563E1,1.526859031E1
1.603330917E0,-6.452640454E0,-1.674444342E0,1.369169048E1,1.522835254E1
1.613316917E0,-9.095010656E0,-6.705304782E-1,1.367515222E1,1.643711100E1
1.623301917E0,-1.045608575E1,5.310341853E-1,1.340999385E1,1.701292631E1
1.633287917E0,-1.052688150E1,1.190589732E0,1.228370434E1,1.622103975E1
1.643272917E0,-9.509753078E0,1.496784150E0,1.037331374E1,1.415208127E1
1.653258917E0,-8.117315853E0,1.786202467E0,8.321318775E0,1.176119391E1
1.663243917E0,-6.641085690E0,1.606797612E0,6.164149359E0,9.202312482E0
1.673229917E0,-5.207244916E0,1.310576059E0,3.959849630E0,6.671837701E0
1.683214917E0,-3.858085858E0,1.133571924E0,2.267069589E0,4.616212335E0
1.693200917E0,-2.365429258E0,1.051448073E0,1.377315740E0,2.932200074E0
1.703185917E0,-7.388466416E-1,8.715288086E-1,8.658738202E-1,1.433594886E0
1.713171917E0,9.019664897E-1,8.783620110E-1,4.069779038E-1,1.323138082E0
1.723156917E0,2.153360102E0,9.055417697E-1,1.106883770E-1,2.338635829E0
1.733142917E0,2.459679796E0,7.269641492E-1,-9.498977244E-2,2.566617352E0
1.743127917E0,2.333215485E0,4.371126992E-1,-2.919374442E-1,2.391691762E0
1.753113917E0,2.119908473E0,-1.223467018E-1,-2.460537583E-1,2.137644288E0
1.763098917E0,2.036406287E0,-5.069815175E-1,1.096142435E-1,2.101427160E0
1.773083917E0,2.670981213E0,-3.052607636E-1,6.308923495E-1,2.761403616E0
1.783069917E0,4.172493567E0,3.763779625E-2,1.354591121E0,4.387030463E0
1.793054917E0,5.697039859E0,3.298048899E-1,2.189231454E0,6.112100194E0
1.803040917E0,6.916882480E0,7.252943306E-1,2.956597817E0,7.557167840E0
1.813025917E0,8.021599857E0,9.070752020E-1,3.794837696E0,8.920181771E0
1.823011917E0,8.741599095E0,1.046830088E0,4.463723499E0,9.870979457E0
1.832996917E0,9.200315502E0,1.160375122E0,4.765734526E0,1.042614508E1
1.842982917E0,9.231095830E0,1.125687977E0,5.240447161E0,1.067438945E1
1.852967917E0,8.784162732E0,1.102090077E0,6.052945257E0,1.072447032E1
1.862953917E0,8.149867887E0,1.108621855E0,7.024236774E0,1.081615880E1
1.872938917E0,7.282214760E0,1.001866023E0,8.046996653E0,1.089901567E1
1.882924917E0,6.567542335E0,9.813035582E-1,9.166636124E0,1.131913366E1
1.892909917E0,6.155822924E0,9.241164735E-1,1.046286268E1,1.217454897E1
1.902895917E0,5.556715454E0,7.177656019E-1,1.168000272E1,1.295433277E1
1.912880917E0,4.971564118E0,5.383205469E-1,1.268675643E1,1.363671615E1
1.922866917E0,4.355676309E0,1.778252301E-1,1.336939663E1,1.406215859E1
1.932851917E0,3.649322718E0,-6.664349422E-2,1.353471613E1,1.401822166E1
1.942837917E0,3.178284766E0,-4.133380665E-1,1.354672865E1,1.392071117E1
1.952822917E0,2.742290054E0,-9.741231774E-1,1.358171371E1,1.388999705E1
1.962808917E0,2.203026059E0,-1.558831733E0,1.369598351E1,1.395934255E1
1.972793917E0,1.582087863E0,-2.070357414E0,1.396690957E1,1.420788319E1
1.982779917E0,6.880575802E-1,-2.688504733E0,1.429687029E1,1.456372140E1
1.992764917E0,-2.707817063E-1,-3.189795010E0,1.449903075E1,1.484823248E1
2.002750917E0,-1.349057024E0,-3.760519218E0,1.484769203E1,1.537580627E1
2.012735917E0,-2.399474817E0,-4.641625620E0,1.553163149E1,1.638699926E1
2.022720917E0,-3.414313765E0,-5.584135387E0,1.574770950E1,1.705375211E1
2.032706917E0,-4.111950912E0,-6.654921956E0,1.537337309E1,1.724925294E1
2.042691917E0,-4.647380449E0,-7.903013645E0,1.476901424E1,1.738331244E1
2.052677917E0,-5.552620649E0,-8.881170963E0,1.374346875E1,1.727974904E1
2.062662917E0,-6.675966085E0,-9.860813473E0,1.271065517E1,1.741737409E1
2.072648917E0,-7.584898217E0,-1.057939769E1,1.189065451E1,1.763071187E1
2.082633917E0,-7.989420875E0,-1.104174287E1,1.109545189E1,1.757441277E1
2.092619917E0,-7.990982081E0,-1.160243472E1,1.048852494E1,1.756363976E1
2.102604917E0,-8.575776737E0,-1.228271266E1,9.692604867E0,1.784252129E1
2.112590917E0,-9.343958786E0,-1.274287215E1,8.358081974E0,1.787590252E1
2.122575917E0,-9.980814711E0,-1.283087509E1,6.736370746E0,1.759621291E1
2.132561917E0,-1.096470113E1,-1.297341150E1,5.399439386E0,1.782380494E1
2.142546917E0,-1.194270993E1,-1.342493583E1,4.642924871E0,1.855839362E1
2.152532917E0,-1.240360384E1,-1.392075633E1,4.245057514E0,1.912216928E1
2.162517917E0,-1.244108449E1,-1.455627382E1,3.769114625E0,1.951594005E1
2.172503917E0,-1.251200537E1,-1.475569194E1,2.925250894E0,1.956624174E1
2.182488917E0,-1.201368226E1,-1.445353590E1,1.959631761E0,1.889638638E1
2.192474917E0,-1.085275853E1,-1.396647337E1,1.067027979E0,1.771957377E1
2.202459917E0,-9.885923756E0,-1.365048866E1,4.024252617E-1,1.685910067E1
2.212445917E0,-9.294921697E0,-1.421495781E1,2.829508585E-1,1.698648451E1
2.222430917E0,-8.890907162E0,-1.513661933E1,-1.848626465E-1,1.755561589E1
2.232416917E0,-8.341261289E0,-1.548899594E1,-1.169646321E0,1.763104386E1
2.242401917E0,-7.656580403E0,-1.532732042E1,-1.814784535E0,1.722914443E1
2.252387917E0,-7.157736309E0,-1.499963427E1,-1.997275258E0,1.673951391E1
2.262372917E0,-6.765033213E0,-1.485490516E1,-2.025645656E0,1.644801271E1
2.272357917E0,-6.045069058E0,-1.430688774E1,-2.290135100E0,1.569951004E1
2.282343917E0,-5.097281594E0,-1.392812148E1,-2.394552923E0,1.502360580E1
2.292328917E0,-3.870417051E0,-1.418383425E1,-2.208675200E0,1.486739817E1
2.302314917E0,-2.603178362E0,-1.451052404E1,-2.339519514E0,1.492666061E1
2.312299917E0,-2.109846438E0,-1.451986204E1,-3.014960923E0,1.497891301E1
2.322285917E0,-2.314694137E0,-1.460938174E1,-3.582968515E0,1.521937933E1
2.332270917E0,-2.706211272E0,-1.501812200E1,-3.692818401E0,1.570046100E1
2.342256917E0,-3.096040169E0,-1.519763737E1,-3.809134138E0,1.597069658E1
2.352241917E0,-3.038521109E0,-1.505356314E1,-3.880036891E0,1.583973043E1
2.362227917E0,-2.392082621E0,-1.498651312E1,-3.664026711E0,1.561226206E1
2.372212917E0,-1.223861997E0,-1.500378930E1,-3.596070955E0,1.547718508E1
2.382198917E0,1.543014430E-1,-1.453908301E1,-4.022179779E0,1.508597607E1
2.392183917E0,1.205921570E0,-1.399456690E1,-4.379054062E0,1.471320033E1
2.402169917E0,1.705615849E0,-1.362177883E1,-4.417948571E0,1.442152050E1
2.412154917E0,1.919322810E0,-1.331763240E1,-4.543577753E0,1.420166299E1
2.422140917E0,1.918053964E0,-1.328169308E1,-4.754479221E0,1.423683162E1
2.432125917E0,1.639496704E0,-1.380374886E1,-4.924301659E0,1.474720919E1
2.442111917E0,1.629794711E0,-1.407079588E1,-5.070985495E0,1.504521257E1
2.452096917E0,1.859493076E0,-1.400557136E1,-5.101472878E0,1.502127721E1
2.462082917E0,2.038181063E0,-1.414962102E1,-4.918074374E0,1.511798309E1
2.472067917E0,2.447408391E0,-1.439933689E1,-4.841377616E0,1.538732102E1
2.482053917E0,3.017483412E0,-1.429967695E1,-4.997052131E0,1.544527426E1
2.492038917E0,3.089399194E0,-1.396775391E1,-5.092386889E0,1.518469429E1
2.502024917E0,2.709024660E0,-1.397220948E1,-4.780546693E0,1.501382960E1
2.512009917E0,1.955748332E0,-1.385854897E1,-4.304033700E0,1.464271277E1
2.521995917E0,9.939044541E-1,-1.383705694E1,-4.141527883E0,1.447771543E1
2.531980917E0,7.673014587E-1,-1.395151853E1,-4.192344865E0,1.458798739E1
2.541965917E0,1.780597619E0,-1.377602371E1,-4.034748954E0,1.446473491E1
2.551951917E0,3.301407539E0,-1.338032742E1,-3.451921302E0,1.420732960E1
2.561936917E0,4.640569028E0,-1.308779239E1,-2.608838174E0,1.412909152E1
2.571922917E0,5.486367602E0,-1.279055152E1,-1.809406850E0,1.403468528E1
2.581907917E0,5.446596011E0,-1.209631278E1,-9.776883709E-1,1.330195720E1
2.591893917E0,4.328046753E0,-1.125144742E1,-6.260485160E-1,1.207141228E1
2.601878917E0,2.771849776E0,-1.119811730E1,-7.045333529E-1,1.155756676E1
2.611864917E0,1.580602963E0,-1.158961879E1,-1.527673967E0,1.179624335E1
2.621849917E0,1.916499774E0,-1.206716090E1,-2.154953907E0,1.240698069E1
2.631835917E0,4.002790412E0,-1.236827379E1,-2.072421627E0,1.316402139E1
2.641820917E0,7.176529845E0,-1.178129520E1,-1.729588848E0,1.390298439E1
2.651806917E0,1.009618378E1,-1.090694701E1,-4.140992278E-1,1.486828498E1
2.661791917E0,1.146588353E1,-9.993244722E0,1.977826542E0,1.533764072E1
2.671777917E0,1.111021377E1,-8.852148893E0,4.534004107E0,1.491155871E1
2.681762917E0,9.399051252E0,-8.478695415E0,6.188089029E0,1.408981498E1
2.691748917E0,8.684885781E0,-8.202267711E0,6.425120534E0,1.356416641E1
2.701733917E0,9.314218093E0,-8.019692495E0,6.596315898E0,1.394924764E1
2.711719917E0,9.752415451E0,-8.949401538E0,7.444916459E0,1.518644712E1
2.721704917E0,1.030148420E1,-8.925684646E0,8.660547915E0,1.614910256E1
2.731690917E0,1.028052427E1,-7.120844471E0,1.065354623E1,1.642844036E1
2.741675917E0,9.528672913E0,-5.257705218E0,1.372506288E1,1.751617603E1
2.751661917E0,9.152522700E0,-3.163128490E0,1.597739866E1,1.868291523E1
2.761646917E0,9.604413067E0,-1.720934238E0,1.637176762E1,1.905888612E1
2.771632917E0,9.953585397E0,-2.201188572E0,1.600988930E1,1.897987483E1
2.781617917E0,9.457767237E0,-3.785983842E0,1.513738532E1,1.824619053E1
2.791602917E0,7.329137496E0,-5.045591623E0,1.332705812E1,1.602450403E1
2.801588917E0,4.667123573E0,-5.671995649E0,1.155209136E1,1.368957238E1
2.811573917E0,2.561227221E0,-5.180820179E0,1.087038788E1,1.231121908E1
2.821559917E0,-1.820836110E-1,-4.506028396E0,1.232091602E1,1.312030556E1
2.831544917E0,-2.440035198E0,-4.134119168E0,1.524796435E1,1.598577899E1
2.841530917E0,-3.448921096E0,-3.205300949E0,1.733887955E1,1.796679590E1
2.851515917E0,-3.989466947E0,-2.417028743E0,1.789121924E1,1.848928339E1
2.861501833E0,-4.545270522E0,-1.765019759E0,1.723474298E1,1.791120165E1
2.871486833E0,-5.171001534E0,-1.527980653E0,1.601309357E1,1.689654247E1
2.881472833E0,-6.150312508E0,-1.327450831E0,1.425758635E1,1.558419835E1
2.891457833E0,-7.367385303E0,-1.207955670E0,1.200790755E1,1.413956742E1
2.901443833E0,-9.325533625E0,-1.422775941E0,9.382608297E0,1.330500685E1
2.911428833E0,-1.115818082E1,-1.615324022E0,7.447388662E0,1.351213783E1
2.921414833E0,-1.212693698E1,-1.658929486E0,6.593555428E0,1.390286376E1
2.931399833E0,-1.170783897E1,-1.321547190E0,6.291837346E0,1.335691572E1
2.941385833E0,-9.616748938E0,-8.180114365E-1,5.948019311E0,1.133710442E1
2.951370833E0,-7.055501252E0,-1.734737322E-1,5.539493650E0,8.971966392E0
2.961356833E0,-5.357846387E0,5.098336431E-1,5.547645838E0,7.729348135E0
2.971341833E0,-4.530448415E0,8.581255285E-1,5.581204178E0,7.239556778E0
2.981327833E0,-4.197379317E0,9.459816979E-1,5.196265599E0,6.746410207E0
2.991312833E0,-3.938213178E0,9.099589026E-1,4.468297775E0,6.025216448E0
3.001298833E0,-3.873247688E0,8.871094456E-1,3.286252141E0,5.156400291E0
3.011283833E0,-3.929538249E0,6.200659373E-1,1.836332109E0,4.381537199E0
3.021269833E0,-4.073356365E0,1.567218979E-1,4.136460686E-1,4.097303613E0
3.031254833E0,-4.166848665E0,-9.363994271E-2,-6.985077971E-1,4.226027613E0
3.041240833E0,-3.864990250E0,-1.817818947E-1,-1.098819290E0,4.022262812E0
3.051225833E0,-2.760937702E0,-2.567054848E-1,-1.060179135E0,2.968611544E0
3.061211833E0,-1.446118465E0,6.035788357E-4,-1.001732122E0,1.759183396E0
3.071196833E0,-6.104310416E-1,3.561370946E-1,-5.866055381E-1,9.184583518E-1
3.081181833E0,-3.655667531E-1,6.600437893E-1,1.783681440E-1,7.753141619E-1
3.091167833E0,-5.477771026E-1,8.390482566E-1,8.717988038E-1,1.328192337E0
3.101152833E0,-6.437093000E-1,7.622775310E-1,1.077984492E0,1.468836023E0
3.111138833E0,-4.520689997E-1,5.040291122E-1,5.710671473E-1,8.857366500E-1
3.121123833E0,-4.808791083E-1,8.737728238E-2,-1.994643134E-1,5.278877898E-1
3.131109833E0,-5.760397656E-1,-2.838349575E-1,-9.461414731E-1,1.143489301E0
3.141094833E0,2.641216546E-2,-3.939403671E-1,-1.776768862E0,1.820108295E0
3.151080833E0,1.400980299E0,-4.573714010E-1,-2.383718618E0,2.802507599E0
3.161065833E0,2.895427170E0,-3.951793921E-1,-2.472339018E0,3.827809487E0
3.171051833E0,4.162885423E0,-6.086498335E-2,-1.839415346E0,4.551567686E0
3.181036833E0,5.587954788E0,4.282641077E-1,-7.480810761E-1,5.654049359E0
3.191022833E0,6.897874351E0,7.881150614E-1,5.260336465E-1,6.962650882E0
3.201007833E0,7.926325325E0,9.660484649E-1,2.002192474E0,8.232172101E0
3.210993833E0,8.704949332E0,1.139442090E0,3.381234312E0,9.407827412E0
3.220978833E0,9.189803377E0,1.257034275E0,4.118013890E0,1.014843139E1
3.230964833E0,9.353680367E0,1.125552760E0,4.141465318E0,1.029125553E1
3.240949833E0,9.436703228E0,7.233105165E-1,3.788570650E0,1.019449918E1
3.250935833E0,9.537595764E0,8.482127438E-1,3.798229666E0,1.030105560E1
3.260920833E0,9.585284486E0,9.781981020E-1,4.827759451E0,1.077691104E1
3.270906833E0,9.814933881E0,1.068115707E0,6.351164365E0,1.173929670E1
3.280891833E0,1.021127921E1,1.271330717E0,7.972342327E0,1.301709442E1
3.290877833E0,1.066240359E1,1.276002496E0,9.841369143E0,1.456597334E1
3.300862833E0,1.104777837E1,1.217851790E0,1.153998061E1,1.602210106E1
3.310848833E0,1.136341575E1,1.104281613E0,1.298865402E1,1.729311391E1
3.320833833E0,1.124911672E1,8.619013681E-1,1.415207919E1,1.809880787E1
3.330819833E0,1.048285782E1,1.619215344E-1,1.497122265E1,1.827714513E1
3.340804833E0,9.532848995E0,-7.469381648E-1,1.545608781E1,1.817481160E1
3.350790833E0,8.244411517E0,-1.723938392E0,1.614901677E1,1.821353968E1
3.360775833E0,6.671132777E0,-2.660988321E0,1.692422659E1,1.838516568E1
3.370760833E0,5.200120668E0,-3.633424723E0,1.753530390E1,1.864751761E1
3.380746833E0,3.738470537E0,-4.612885678E0,1.779185165E1,1.875646186E1
3.390731833E0,2.083063121E0,-5.616409678E0,1.751866272E1,1.851450116E1
3.400717833E0,4.916999656E-1,-6.289274511E0,1.708289781E1,1.821049533E1
3.410702833E0,-9.567170396E-1,-6.871573575E0,1.680410256E1,1.817998058E1
3.420688833E0,-2.593364688E0,-7.383248214E0,1.649841013E1,1.826021444E1
3.430673833E0,-3.618188049E0,-8.283053427E0,1.632269077E1,1.865825536E1
3.440659833E0,-3.801400026E0,-9.757533519E0,1.606699788E1,1.917833474E1
3.450644833E0,-4.335871205E0,-1.147008884E1,1.559536614E1,1.983880446E1
3.460630833E0,-5.760897301E0,-1.271255083E1,1.525139784E1,2.067370364E1
3.470615833E0,-8.245566342E0,-1.340929219E1,1.479758724E1,2.160479274E1
3.480601833E0,-1.050688870E1,-1.392960550E1,1.381699631E1,2.225619030E1
3.490586833E0,-1.115368314E1,-1.439572916E1,1.282158503E1,2.227183667E1
3.500572833E0,-1.082280324E1,-1.477767747E1,1.198873219E1,2.189160846E1
3.510557833E0,-9.862636635E0,-1.503579813E1,1.110114942E1,2.113249501E1
3.520543833E0,-8.953393432E0,-1.568705282E1,1.005847626E1,2.067413420E1
3.530528833E0,-9.039218279E0,-1.668819789E1,8.461799301E0,2.077992934E1
3.540514833E0,-9.651267391E0,-1.737814945E1,6.128791831E0,2.080166171E1
3.550499833E0,-1.029852551E1,-1.781409914E1,3.817721359E0,2.092789412E1
3.560485833E0,-1.091164467E1,-1.801663266E1,2.318185948E0,2.119049380E1
3.570470833E0,-1.120290500E1,-1.821036027E1,1.082787979E0,2.140781940E1
3.580456833E0,-1.081961300E1,-1.794234846E1,-8.670017481E-2,2.095231278E1
3.590441833E0,-9.886176356E0,-1.748037866E1,-9.855300719E-1,2.010650120E1
3.600427833E0,-9.126682100E0,-1.647054464E1,-2.426726058E0,1.898589387E1
3.610412833E0,-8.422084427E0,-1.531638496E1,-3.935246008E0,1.791673284E1
3.620398833E0,-7.473214059E0,-1.490617589E1,-4.553248171E0,1.728511142E1
3.630383833E0,-6.977732699E0,-1.500521135E1,-4.764869138E0,1.722060101E1
3.640369833E0,-6.922025691E0,-1.508213732E1,-4.773535296E0,1.726765603E1
3.650354833E0,-6.810736805E0,-1.544241234E1,-4.215674963E0,1.739615331E1
3.660339833E0,-6.633741002E0,-1.583246138E1,-3.824488927E0,1.758692892E1
3.670325833E0,-6.545576684E0,-1.578833596E1,-4.148917594E0,1.758776972E1
3.680310833E0,-6.459337270E0,-1.545631936E1,-4.334918109E0,1.730353608E1
3.690296833E0,-6.458664840E0,-1.602916873E1,-3.878955740E0,1.771143415E1
3.700281833E0,-6.602603409E0,-1.668321957E1,-3.861985366E0,1.835317732E1
3.710267833E0,-7.041557397E0,-1.727910814E1,-4.149864843E0,1.911471912E1
3.720252833E0,-7.414189925E0,-1.783258336E1,-4.062084687E0,1.973503923E1
3.730238833E0,-6.919856958E0,-1.818448634E1,-3.660119601E0,1.979788977E1
3.740223833E0,-5.440517830E0,-1.828169513E1,-3.240187191E0,1.934731051E1
3.750209833E0,-3.775576383E0,-1.829598105E1,-2.784667457E0,1.888788692E1
3.760194833E0,-3.014620907E0,-1.827912820E1,-2.258284732E0,1.866318078E1
3.770180833E0,-2.783244245E0,-1.822004793E1,-1.948363591E0,1.853409604E1
3.780165833E0,-2.578154033E0,-1.837591950E1,-2.029360977E0,1.866653695E1
3.790151833E0,-2.060558504E0,-1.876722804E1,-2.531649081E0,1.904898938E1
3.800136833E0,-1.176529152E0,-1.900614995E1,-2.985088960E0,1.927508010E1
3.810122833E0,7.197542399E-2,-1.924054611E1,-3.460361173E0,1.954937069E1
3.820107833E0,1.410923343E0,-1.924513033E1,-4.182418631E0,1.974483152E1
3.830093833E0,2.272314688E0,-1.887358889E1,-4.503296285E0,1.953600392E1
3.840078833E0,2.446244503E0,-1.870381147E1,-3.967767345E0,1.927588788E1
3.850064833E0,2.547185425E0,-1.844343262E1,-3.478901525E0,1.894072639E1
3.860050042E0,2.746878072E0,-1.824473254E1,-3.152243899E0,1.871769874E1
3.870036042E0,2.692006339E0,-1.807632103E1,-2.689586468E0,1.847252434E1
3.880021042E0,2.942086489E0,-1.758350484E1,-2.130006176E0,1.795473312E1
3.890007042E0,3.914970788E0,-1.728969628E1,-1.450138426E0,1.778661000E1
3.899992042E0,5.908515522E0,-1.702683704E1,-1.704004064E0,1.810324184E1
3.909978042E0,9.098734748E0,-1.627625803E1,-2.494786187E0,1.881296116E1
3.919963042E0,1.148009343E1,-1.536805213E1,-2.332566298E0,1.932383080E1
3.929949042E0,1.132815704E1,-1.469718003E1,-1.622615207E0,1.862705352E1
3.939934042E0,9.868165762E0,-1.415433388E1,-1.104116868E0,1.729002421E1
3.949920042E0,8.138732450E0,-1.357155125E1,-1.017119070E0,1.585750612E1
3.959905042E0,7.756409916E0,-1.326752644E1,-5.682815337E-1,1.537894979E1
3.969890042E0,8.615834842E0,-1.270443724E1,8.205771947E-1,1.537233497E1
3.979876042E0,9.058275524E0,-1.129184115E1,2.037872184E0,1.461885615E1
3.989861042E0,9.347167153E0,-1.021342046E1,2.729528214E0,1.411147815E1
3.999847042E0,9.164978439E0,-1.022525288E1,3.071603193E0,1.407079857E1
4.009832042E0,8.741397951E0,-1.026523381E1,2.616789803E0,1.373443308E1
4.019818042E0,9.511475083E0,-1.001798546E1,2.834323767E0,1.410182904E1
4.029803042E0,1.014794801E1,-9.937604957E0,4.609846002E0,1.493276670E1
4.039789042E0,1.038136886E1,-9.457746187E0,6.412944292E0,1.543851149E1
4.049774042E0,1.150414770E1,-7.843566173E0,7.256015140E0,1.570085031E1
4.059760042E0,1.247578304E1,-6.537970626E0,7.993470656E0,1.619523990E1
4.069745042E0,1.316906986E1,-5.695390944E0,8.923443993E0,1.689644139E1
4.079731042E0,1.385294032E1,-4.635439558E0,1.019832529E1,1.781564184E1
4.089716042E0,1.320717148E1,-4.874773696E0,1.257715855E1,1.887796902E1
4.099702042E0,1.118715494E1,-5.914403669E0,1.462556333E1,1.934010623E1
4.109687042E0,8.963307971E0,-5.267059593E0,1.503635596E1,1.828044876E1
4.119673042E0,6.536524025E0,-4.563269714E0,1.543402743E1,1.737120547E1
4.129658042E0,4.678548447E0,-3.881537286E0,1.546586669E1,1.661770681E1
4.139644042E0,3.212802926E0,-2.572836868E0,1.481022542E1,1.537154413E1
4.149629042E0,1.054095107E0,-2.628420207E0,1.520581762E1,1.546727509E1
4.159615042E0,-9.045965673E-1,-3.040353334E0,1.557695209E1,1.589664996E1
4.169600042E0,-2.747617745E0,-3.739951637E0,1.507799047E1,1.577600831E1
4.179586042E0,-4.904184313E0,-4.120031179E0,1.450709640E1,1.585816908E1
4.189571042E0,-6.862958872E0,-3.529191087E0,1.407105900E1,1.604836738E1
4.199557042E0,-8.157378051E0,-2.547985616E0,1.359031847E1,1.605402764E1
4.209542042E0,-8.544953139E0,-1.256609328E0,1.318302950E1,1.576031592E1
4.219528042E0,-8.397009813E0,-7.203258052E-2,1.215465395E1,1.477330617E1
4.229513042E0,-8.688535613E0,6.112381035E-1,1.052896896E1,1.366467894E1
4.239499042E0,-9.455444723E0,8.870976050E-1,9.532218665E0,1.345568912E1
4.249484042E0,-8.793194926E0,1.041862440E0,8.786519744E0,1.247432097E1
4.259470042E0,-7.340075882E0,1.107234749E0,8.166128410E0,1.103577528E1
4.269455042E0,-6.414786165E0,1.233845972E0,7.531438878E0,9.969675471E0
4.279441042E0,-5.843648266E0,1.525980759E0,6.726429310E0,9.040005177E0
4.289426042E0,-5.778982739E0,1.489404087E0,5.969552268E0,8.441002328E0
4.299411042E0,-5.711012950E0,1.001962063E0,4.944266392E0,7.620063454E0
4.309397042E0,-5.367846880E0,8.194931209E-1,3.824812278E0,6.641877601E0
4.319382042E0,-5.074627141E0,6.084824570E-1,3.340234221E0,6.105674097E0
4.329368042E0,-4.961434987E0,3.122271363E-1,2.872171624E0,5.741314549E0
4.339353042E0,-5.041120842E0,2.518368007E-1,2.455325375E0,5.612926492E0
4.349339042E0,-4.948577544E0,1.205711947E-1,2.224928121E0,5.427085983E0
4.359324042E0,-4.419657712E0,3.940043941E-2,1.878333828E0,4.802401967E0
4.369310042E0,-4.062204555E0,-7.787833437E-2,1.626931622E0,4.376582844E0
4.379295042E0,-4.079826601E0,-1.368638764E-1,1.593765045E0,4.382214490E0
4.389281042E0,-3.933048625E0,-1.566944160E-1,1.746655701E0,4.306301286E0
4.399266042E0,-3.314124064E0,-1.341857055E-1,1.752157931E0,3.751197346E0
4.409252042E0,-2.648523519E0,-1.796155013E-1,1.439760495E0,3.019908748E0
4.419237042E0,-2.116428064E0,-2.851548202E-1,9.498755050E-1,2.337272876E0
4.429223042E0,-1.750765125E0,-4.307600648E-1,5.636113626E-1,1.889018402E0
4.439208042E0,-1.445247668E0,-4.946881121E-1,2.346709836E-1,1.545486209E0
4.449194042E0,-1.083428396E0,-5.665251763E-1,-1.519983709E-2,1.222701476E0
4.459179042E0,-6.088511239E-1,-5.741600320E-1,-2.231344271E-1,8.661110818E-1
4.469165042E0,1.153351593E-1,-3.568592258E-1,-2.823842633E-1,4.694588141E-1
4.479150042E0,1.227150910E0,-1.120339675E-1,-1.774062771E-1,1.244959418E0
4.489136042E0,2.473396195E0,1.527044953E-1,8.281060696E-2,2.479488858E0
4.499121042E0,3.606367025E0,3.448108917E-1,6.510494560E-1,3.680848145E0
4.509107042E0,4.868854267E0,6.772199122E-1,1.236734642E0,5.068913223E0
4.519092042E0,6.150861561E0,9.633259282E-1,1.855474724E0,6.496451434E0
4.529078042E0,7.176759641E0,1.238815959E0,2.842261362E0,7.817863747E0
4.539063042E0,7.764494861E0,1.489781524E0,3.912760833E0,8.821367625E0
4.549049042E0,8.190755712E0,1.551308997E0,4.729163116E0,9.584363438E0
4.559034042E0,8.516705241E0,1.556832277E0,5.463464059E0,1.023755022E1
4.569020042E0,8.783042405E0,1.567595832E0,6.151361498E0,1.083690172E1
4.579005042E0,9.021906427E0,1.352152686E0,6.801025749E0,1.137879887E1
4.588991042E0,9.657183604E0,1.553363416E0,7.708002571E0,1.245341065E1
4.598976042E0,1.073208135E1,1.994305603E0,9.075043584E0,1.419546551E1
4.608961042E0,1.152396743E1,2.036849944E0,1.067054993E1,1.583702051E1
4.618947042E0,1.203101809E1,2.107026765E0,1.206200482E1,1.716615619E1
4.628932042E0,1.226297012E1,1.863370511E0,1.348948909E1,1.832536225E1
4.638918042E0,1.212145931E1,1.442388818E0,1.460762056E1,1.903661839E1
4.648903042E0,1.158232966E1,8.391296791E-1,1.536751301E1,1.926174850E1
4.658889042E0,1.083066774E1,-9.265351743E-2,1.606448826E1,1.937471887E1
4.668874042E0,9.456239360E0,-9.545070845E-1,1.661843709E1,1.914429414E1
4.678860042E0,7.403502969E0,-2.069779709E0,1.713787801E1,1.878304307E1
4.688845042E0,4.887223587E0,-3.459908014E0,1.734788076E1,1.835224467E1
4.698831042E0,2.133342159E0,-4.936349847E0,1.675897609E1,1.760062437E1
4.708816042E0,-7.733932342E-1,-6.450212690E0,1.570598845E1,1.699651299E1
4.718802042E0,-3.648697650E0,-8.066613477E0,1.461664048E1,1.708886849E1
4.728787042E0,-5.973519019E0,-9.376834756E0,1.367503644E1,1.762426115E1
4.738773042E0,-8.061912900E0,-1.029913245E1,1.324192149E1,1.861222860E1
4.748758042E0,-9.513407003E0,-1.077123080E1,1.285453175E1,1.928116470E1
4.758744042E0,-1.040205280E1,-1.095839315E1,1.210637934E1,1.936113385E1
4.768729042E0,-1.115757505E1,-1.123973544E1,1.085486001E1,1.920028957E1
4.778715042E0,-1.113149296E1,-1.141283057E1,9.262321715E0,1.843782635E1
4.788700042E0,-1.044695357E1,-1.128318610E1,8.105992135E0,1.738264180E1
4.798686042E0,-1.033114830E1,-1.128704643E1,7.395869429E0,1.699496770E1
4.808671042E0,-1.095122447E1,-1.139251383E1,6.965037809E0,1.726934974E1
4.818657042E0,-1.134457251E1,-1.159443456E1,6.919457009E0,1.763545076E1
4.828642042E0,-1.140340369E1,-1.213646444E1,6.909542470E0,1.802978541E1
4.838628042E0,-1.143022604E1,-1.297113108E1,6.401888376E0,1.843595627E1
4.848613042E0,-1.095887730E1,-1.368419786E1,5.473974429E0,1.836623693E1
4.858599333E0,-1.057055786E1,-1.417553588E1,4.550605522E0,1.825898469E1
4.868584333E0,-1.062098074E1,-1.473514366E1,3.320302232E0,1.846494239E1
4.878570333E0,-1.046701888E1,-1.502573507E1,1.555668681E0,1.837801142E1
4.888555333E0,-1.039324573E1,-1.550314386E1,1.134009004E-1,1.866493734E1
4.898541333E0,-1.000804987E1,-1.569901740E1,-1.367624857E0,1.866790313E1
4.908526333E0,-9.274213783E0,-1.554718860E1,-2.988051159E0,1.834814880E1
4.918512333E0,-9.049672515E0,-1.568872513E1,-4.359972843E0,1.862906417E1
4.928497333E0,-9.304745604E0,-1.622346469E1,-5.458282256E0,1.948260616E1
4.938482333E0,-9.389746578E0,-1.617227583E1,-6.697224222E0,1.986360135E1
4.948468333E0,-9.326367438E0,-1.574895847E1,-7.419313256E0,1.974986156E1
4.958453333E0,-9.055143170E0,-1.561712948E1,-7.352953790E0,1.949246728E1
4.968439333E0,-8.424173638E0,-1.510687104E1,-7.388323597E0,1.880881654E1
4.978424333E0,-7.850170019E0,-1.445128356E1,-7.333405378E0,1.800676540E1
4.988410333E0,-7.540844125E0,-1.452842003E1,-7.070345578E0,1.783056660E1
4.998395333E0,-7.263620614E0,-1.442514183E1,-7.150158902E0,1.766266326E1
5.008381333E0,-7.211796157E0,-1.434930227E1,-7.001449590E0,1.751949702E1
5.018366333E0,-7.412380797E0,-1.473001565E1,-6.286794707E0,1.764767797E1
5.028352333E0,-7.312510353E0,-1.491677221E1,-5.638744288E0,1.754361245E1
5.038337333E0,-6.810806386E0,-1.506033422E1,-5.121613027E0,1.730409404E1
5.048323333E0,-6.060127977E0,-1.547575082E1,-4.416425371E0,1.719676794E1
5.058308333E0,-5.095460186E0,-1.592322537E1,-3.800229998E0,1.714510335E1
5.068294333E0,-4.188049500E0,-1.618549288E1,-3.341707719E0,1.704925068E1
5.078279333E0,-3.589351335E0,-1.629441130E1,-2.931780480E0,1.694067943E1
5.088265333E0,-3.495815765E0,-1.654942358E1,-2.583554814E0,1.711078327E1
5.098250333E0,-3.614853966E0,-1.711788287E1,-2.506530027E0,1.767404243E1
5.108236333E0,-3.737935224E0,-1.752619160E1,-2.755384601E0,1.813095960E1
5.118221333E0,-3.292456622E0,-1.817110908E1,-2.690292812E0,1.866191713E1
5.128207333E0,-2.365429989E0,-1.893122840E1,-2.003776485E0,1.918337270E1
5.138192333E0,-9.937557887E-1,-1.895246783E1,-9.756093934E-1,1.900356285E1
5.148178333E0,4.835252658E-1,-1.878049771E1,5.600401756E-1,1.879506679E1
5.158163333E0,1.536775012E0,-1.890140526E1,1.952216614E0,1.906399612E1
5.168149333E0,2.069023810E0,-1.857512712E1,2.535605307E0,1.886121686E1
5.178134333E0,2.715021856E0,-1.799414660E1,2.243405322E0,1.833558080E1
5.188120333E0,3.455368528E0,-1.771799196E1,2.152295762E0,1.817963663E1
5.198105333E0,3.886698039E0,-1.719283248E1,2.039473736E0,1.774427692E1
5.208091333E0,5.291665261E0,-1.662212669E1,1.977899924E0,1.755587950E1
5.218076333E0,6.575798603E0,-1.574820301E1,2.427473917E0,1.723773926E1
5.228062333E0,6.824564300E0,-1.469793081E1,2.574831938E0,1.640833957E1
5.238047333E0,7.329353258E0,-1.428461920E1,2.354508852E0,1.622693677E1
5.248033333E0,7.954469143E0,-1.416011561E1,1.149429281E0,1.628200359E1
5.258018333E0,9.950583436E0,-1.360651175E1,-2.309077156E-1,1.685836858E1
5.268003333E0,1.295884959E1,-1.321299531E1,8.131243336E-1,1.852501549E1
5.277989333E0,1.458947080E1,-1.210398783E1,2.957346845E0,1.918606474E1
5.287974333E0,1.538743214E1,-1.045041279E1,4.466162957E0,1.912931799E1
5.297960333E0,1.597179702E1,-9.257877831E0,6.120575908E0,1.944911442E1
5.307945333E0,1.602139662E1,-7.671634060E0,7.233420330E0,1.917971554E1
5.317931333E0,1.532069787E1,-6.315289943E0,7.035896707E0,1.800306953E1
5.327916333E0,1.410144464E1,-6.440573555E0,5.929798803E0,1.659801924E1
5.337902333E0,1.364684585E1,-6.599037192E0,4.189133574E0,1.572680939E1
5.347887333E0,1.466156580E1,-6.581524782E0,3.496719160E0,1.644703697E1
5.357873333E0,1.526406057E1,-6.087279523E0,3.897471533E0,1.688895501E1
5.367858333E0,1.545504817E1,-4.220667023E0,4.456935466E0,1.662939620E1
5.377844333E0,1.513961895E1,-1.849488344E0,5.505707853E0,1.621547064E1
5.387829333E0,1.384790236E1,8.423104182E-2,6.850932319E0,1.545013813E1
5.397815333E0,1.210515143E1,8.180538288E-1,8.014269787E0,1.454071605E1
5.407800333E0,9.921651413E0,-1.070648282E0,9.434713420E0,1.373314501E1
5.417786333E0,7.893763935E0,-4.104107164E0,1.065321060E1,1.387970103E1
5.427771333E0,6.213521494E0,-6.367374601E0,1.147268735E1,1.451805302E1
5.437757333E0,4.878120057E0,-6.797919123E0,1.184144668E1,1.449922823E1
5.447742333E0,3.915902542E0,-4.807242448E0,1.152692027E1,1.308868838E1
5.457728333E0,2.499066641E0,-3.084686046E0,1.187041145E1,1.251668047E1
5.467713333E0,8.039563380E-1,-2.408830655E0,1.245422903E1,1.271049298E1
5.477699333E0,-6.588015483E-1,-1.619074718E0,1.239839163E1,1.252100385E1
5.487684333E0,-2.382996048E0,-2.265274640E0,1.227846641E1,1.271105333E1
5.497670333E0,-4.734280014E0,-3.925818835E0,1.216176651E1,1.362842711E1
5.507655333E0,-7.817000518E0,-4.801658942E0,1.229323297E1,1.533900265E1
5.517641333E0,-1.086723623E1,-4.388035677E0,1.266295241E1,1.725404428E1
5.527626333E0,-1.290826884E1,-3.131617845E0,1.207068794E1,1.794803449E1
5.537612333E0,-1.425487792E1,-2.277839283E0,1.079075114E1,1.802305209E1
5.547597333E0,-1.507633571E1,-1.725574881E0,9.685703398E0,1.800239866E1
5.557583333E0,-1.504545656E1,-1.074114366E0,9.403809131E0,1.777501367E1
5.567568333E0,-1.358647568E1,-3.111649896E-1,9.724200296E0,1.671075153E1
5.577554333E0,-1.127933513E1,3.699887100E-1,1.015169374E1,1.517949862E1
5.587539333E0,-8.914515880E0,8.706761384E-1,9.839685144E0,1.330586615E1
5.597525333E0,-6.994841067E0,1.309367878E0,8.821811784E0,1.133431114E1
5.607510333E0,-5.901883610E0,1.276498486E0,7.584035168E0,9.694290483E0
5.617495333E0,-5.130713634E0,9.079588625E-1,5.965460386E0,7.920563699E0
5.627481333E0,-4.368334361E0,5.452894047E-1,4.321721528E0,6.169032549E0
5.637466333E0,-3.536517649E0,3.960323547E-1,2.792056584E0,4.523204469E0
5.647452333E0,-2.785245747E0,3.910093041E-1,1.499392739E0,3.187265400E0
5.657437333E0,-2.295595815E0,3.026201610E-1,5.981473571E-1,2.391468036E0
5.667423333E0,-2.214538788E0,2.760211770E-1,1.662737632E-1,2.237859848E0
5.677408333E0,-2.290783264E0,1.671204400E-1,3.491080105E-2,2.297136472E0
5.687394333E0,-2.082923811E0,1.015316373E-1,-1.440052271E-2,2.085446631E0
5.697379333E0,-1.736736485E0,5.883819222E-2,8.845960200E-2,1.739982946E0
5.707365333E0,-1.294056798E0,5.395240501E-2,3.361266071E-1,1.338086303E0
5.717350333E0,-8.912289552E-1,5.056452826E-2,4.625995427E-1,1.005407459E0
5.727336333E0,-7.516683429E-1,-1.696325500E-1,3.839077145E-1,8.609097706E-1
5.737321333E0,-7.443973303E-1,-5.588762873E-1,5.883059084E-2,9.327009855E-1
5.747307333E0,-3.179702716E-1,-8.436799823E-1,-5.664846843E-1,1.064803223E0
5.757292333E0,3.567608464E-1,-8.924404983E-1,-1.164137367E0,1.509617221E0
5.767278333E0,8.826940669E-1,-8.195378521E-1,-1.276609730E0,1.755142019E0
5.777263333E0,1.356788505E0,-4.419427916E-1,-9.289851576E-1,1.702704290E0
5.787249333E0,1.935907414E0,4.531942964E-2,-2.891588473E-1,1.957908120E0
5.797234333E0,2.701565659E0,4.430939622E-1,3.265558845E-1,2.757068736E0
5.807220333E0,3.860206936E0,7.434506661E-1,8.181769127E-1,4.015386649E0
5.817205333E0,5.012313949E0,1.017900112E0,1.259887862E0,5.267516415E0
5.827191333E0,5.815930125E0,1.354551360E0,1.825539318E0,6.244393198E0
5.837176333E0,6.290051606E0,1.578076381E0,2.628739758E0,6.997524347E0
5.847162333E0,6.349432420E0,1.538753271E0,3.542971805E0,7.432072584E0
5.857147333E0,6.204324408E0,1.597327023E0,4.277668605E0,7.703476077E0
5.867132292E0,6.152008200E0,1.709709923E0,4.965542656E0,8.088691290E0
5.877117292E0,6.430539148E0,1.717849686E0,5.779841110E0,8.815293786E0
5.887103292E0,6.763641576E0,1.604700800E0,6.662494685E0,9.628642036E0
5.897088292E0,6.942282785E0,1.524232296E0,7.695153900E0,1.047539822E1
5.907073292E0,6.951554714E0,1.501190465E0,8.769285661E0,1.129061809E1
5.917059292E0,6.968059650E0,1.190490329E0,9.825228488E0,1.210397610E1
5.927044292E0,6.862270655E0,9.353798188E-1,1.075516031E1,1.279215257E1
5.937030292E0,6.570847766E0,4.988180005E-1,1.148866311E1,1.324440409E1
5.947015292E0,6.089376919E0,1.471707635E-2,1.188922311E1,1.335793225E1
5.957001292E0,5.643683431E0,-3.981321995E-1,1.205050569E1,1.331256396E1
5.966986292E0,5.209483230E0,-7.267613970E-1,1.225697438E1,1.333792782E1
5.976972292E0,4.635269696E0,-9.277501526E-1,1.254576953E1,1.340681836E1
5.986957292E0,3.671559387E0,-1.234565910E0,1.314610316E1,1.370490896E1
5.996943292E0,2.185568027E0,-1.908960082E0,1.391053539E1,1.420999054E1
6.006928292E0,4.045210500E-1,-2.789061640E0,1.439927140E1,1.467247488E1
6.016914292E0,-1.083691082E0,-3.801866049E0,1.444352079E1,1.497477428E1
6.026899292E0,-2.021476591E0,-4.520261104E0,1.420749676E1,1.504566690E1
6.036885292E0,-2.686105913E0,-5.075718817E0,1.391721993E1,1.505546735E1
6.046870292E0,-3.605342885E0,-5.856544300E0,1.364806207E1,1.528290570E1
6.056856292E0,-4.521300446E0,-6.899261895E0,1.328098206E1,1.563414394E1
6.066841292E0,-5.551378115E0,-7.800448805E0,1.290775779E1,1.607093686E1
6.076827292E0,-6.488854600E0,-8.634383379E0,1.273778975E1,1.670057179E1
6.086812292E0,-7.299893816E0,-9.464719577E0,1.230031277E1,1.715129910E1
6.096798292E0,-8.681775062E0,-1.037147421E1,1.144358341E1,1.771711875E1
6.106783292E0,-9.908372387E0,-1.140772595E1,1.056981995E1,1.843998775E1
6.116769292E0,-1.062633446E1,-1.193077810E1,9.846842136E0,1.876759841E1
6.126754292E0,-1.108803645E1,-1.250697676E1,9.191500239E0,1.907492324E1
6.136740292E0,-1.122735689E1,-1.324597711E1,8.403179210E0,1.929048660E1
6.146725292E0,-1.122183127E1,-1.380311386E1,7.577174630E0,1.933569302E1
6.156711292E0,-1.090430875E1,-1.431906398E1,6.832877287E0,1.925169485E1
6.166696292E0,-1.048417578E1,-1.484900649E1,6.106795775E0,1.917560664E1
6.176682292E0,-9.903705139E0,-1.537832685E1,5.298792433E0,1.904346380E1
6.186667292E0,-8.835135834E0,-1.540141868E1,4.310319457E0,1.827134851E1
6.196653292E0,-7.500525234E0,-1.484247983E1,3.349734777E0,1.696401513E1
6.206638292E0,-6.343050184E0,-1.409360119E1,2.476394647E0,1.565236118E1
6.216624292E0,-5.650775519E0,-1.326750890E1,1.575988340E0,1.450661214E1
6.226609292E0,-5.318260737E0,-1.273047138E1,9.575260019E-1,1.382988268E1
6.236595292E0,-5.244150787E0,-1.273068539E1,5.954851198E-1,1.378136678E1
6.246580292E0,-5.374831964E0,-1.334759588E1,4.276828945E-2,1.438919607E1
6.256566292E0,-5.438602867E0,-1.418389740E1,-9.651662663E-1,1.522146158E1
6.266551292E0,-5.471599290E0,-1.463205374E1,-2.283854899E0,1.578769738E1
6.276537292E0,-5.564907403E0,-1.472128693E1,-3.514183039E0,1.612556869E1
6.286522292E0,-5.627770818E0,-1.453380180E1,-4.478082506E0,1.621593112E1
6.296508292E0,-5.323705080E0,-1.413050531E1,-5.061239356E0,1.592573891E1
6.306493292E0,-4.931073904E0,-1.379790516E1,-5.344524091E0,1.559684629E1
6.316478292E0,-4.777447376E0,-1.346288192E1,-5.459900181E0,1.529325678E1
6.326464292E0,-4.846906743E0,-1.338331301E1,-5.341180068E0,1.520308444E1
6.336449292E0,-5.196919318E0,-1.343023925E1,-5.315804322E0,1.535047466E1
6.346435292E0,-5.527585210E0,-1.357442457E1,-5.471373003E0,1.564465159E1
6.356420292E0,-5.579881538E0,-1.367496511E1,-5.559558370E0,1.578126858E1
6.366406292E0,-5.252617555E0,-1.364374331E1,-5.532241348E0,1.563161595E1
6.376391292E0,-4.629237708E0,-1.330471357E1,-5.578158363E0,1.515127373E1
6.386377292E0,-3.894862798E0,-1.281939817E1,-5.699111527E0,1.455976641E1
6.396362292E0,-3.208537090E0,-1.248930999E1,-5.789985445E0,1.413511605E1
6.406348292E0,-2.843656215E0,-1.238734273E1,-5.765317211E0,1.395605686E1
6.416333292E0,-2.875013079E0,-1.221129242E1,-5.749909798E0,1.380010237E1
6.426319292E0,-3.044319793E0,-1.236219737E1,-5.514415526E0,1.387445802E1
6.436304292E0,-2.920822505E0,-1.275331411E1,-5.198971106E0,1.407861945E1
6.446290292E0,-2.278203857E0,-1.267405510E1,-4.831195275E0,1.375362983E1
6.456275292E0,-1.532806945E0,-1.279544096E1,-4.196329157E0,1.355293271E1
6.466261292E0,-8.234145561E-1,-1.293416031E1,-3.327814150E0,1.338076460E1
6.476246292E0,-2.231271181E-1,-1.275303695E1,-2.429190075E0,1.298424821E1
6.486232292E0,6.022982955E-2,-1.255286571E1,-1.583658718E0,1.265251122E1
6.496217292E0,2.959226140E-1,-1.256033027E1,-5.792205048E-1,1.257716037E1
6.506203292E0,6.181448346E-1,-1.272492120E1,4.103672424E-1,1.274653380E1
6.516188292E0,9.903452539E-1,-1.271449445E1,1.008492672E0,1.279281870E1
6.526174292E0,1.713868901E0,-1.294852341E1,1.113325940E0,1.310881763E1
6.536159292E0,2.229086368E0,-1.322216608E1,9.414812422E-1,1.344175914E1
6.546145292E0,2.408791478E0,-1.281872691E1,5.687779623E-1,1.305547948E1
6.556130292E0,2.695014731E0,-1.193416832E1,3.129964837E-1,1.223868639E1
6.566116292E0,3.184998539E0,-1.149884896E1,6.447859186E-1,1.194920466E1
6.576101292E0,3.723733799E0,-1.097936595E1,1.083540224E0,1.164417148E1
6.586087292E0,4.482385472E0,-1.038862877E1,1.525352622E0,1.141674594E1
6.596072292E0,5.203603270E0,-1.023879971E1,2.045498707E0,1.166595781E1
6.606058292E0,5.771162088E0,-1.001023556E1,1.968701377E0,1.172121636E1
6.616043292E0,6.252178021E0,-9.488586157E0,1.626061556E0,1.147898399E1
6.626029292E0,6.760405142E0,-9.196780860E0,1.635615322E0,1.153078893E1
6.636014292E0,6.617704428E0,-8.332109812E0,1.258797356E0,1.071459923E1
6.646000292E0,6.478109171E0,-7.846647071E0,8.177833951E-1,1.020806242E1
6.655985292E0,7.011514403E0,-7.638988470E0,6.689132845E-1,1.039052087E1
6.665970292E0,7.434801945E0,-7.275074725E0,4.362970126E-1,1.041121258E1
6.675956292E0,7.618358324E0,-7.089703370E0,2.821655774E-1,1.041071058E1
6.685941292E0,7.272116618E0,-7.224106300E0,9.688836336E-4,1.025043379E1
6.695927292E0,6.961687939E0,-7.562051976E0,-6.010902607E-1,1.029616621E1
6.705912292E0,7.288449061E0,-7.796460419E0,-9.412485230E-1,1.071411376E1
6.715898292E0,7.972687898E0,-7.546518263E0,-5.178463751E-1,1.099007985E1
6.725883292E0,8.975104728E0,-6.560773598E0,7.063652855E-1,1.113980283E1
6.735869292E0,9.697071555E0,-5.290214567E0,2.711567906E0,1.137418865E1
6.745854292E0,1.008864906E1,-4.340013372E0,5.297972068E0,1.219364851E1
6.755840292E0,9.974986206E0,-3.135861462E0,7.743328525E0,1.301126871E1
6.765825292E0,9.727358962E0,-2.250861984E0,9.606898718E0,1.385569901E1
6.775811292E0,9.586938663E0,-2.857904418E0,1.027907650E1,1.434351506E1
6.785796292E0,9.388261970E0,-4.407971467E0,9.232244223E0,1.388538831E1
6.795782292E0,8.607602547E0,-6.003890042E0,7.730856414E0,1.303470974E1
6.805767292E0,7.799640720E0,-6.185023334E0,6.513995873E0,1.189626207E1
6.815753292E0,6.854058241E0,-5.094905285E0,6.076717113E0,1.048153925E1
6.825738292E0,5.781685907E0,-4.219166043E0,7.465520293E0,1.034230377E1
6.835724292E0,4.319679680E0,-3.204664479E0,9.278673454E0,1.072489105E1
6.845709292E0,1.633607534E0,-2.827500359E0,1.112146498E1,1.159096265E1
6.855695292E0,-2.132560240E0,-3.240825123E0,1.339813102E1,1.394850083E1
6.865681292E0,-5.533295601E0,-3.843716910E0,1.511476244E1,1.654834020E1
6.875667292E0,-7.986372136E0,-4.345099280E0,1.535701258E1,1.784656446E1
6.885652292E0,-9.348460557E0,-4.628984524E0,1.425224901E1,1.766204446E1
6.895638292E0,-9.844282225E0,-5.376683192E0,1.285383126E1,1.705988255E1
6.905623292E0,-1.061913185E1,-5.162816602E0,1.155287372E1,1.651936826E1
6.915609292E0,-1.152865222E1,-3.664242473E0,1.054338585E1,1.604679034E1
6.925594292E0,-1.210823525E1,-2.562584360E0,1.011244840E1,1.598242197E1
6.935580292E0,-1.243180145E1,-2.023779956E0,1.012893872E1,1.616294442E1
6.945565292E0,-1.247477147E1,-1.346742696E0,9.975637586E0,1.602956594E1
6.955551292E0,-1.192579510E1,-7.064930472E-1,9.386036519E0,1.519280760E1
6.965536292E0,-1.107579472E1,-1.527485687E-1,8.533729994E0,1.398288627E1
6.975522292E0,-1.013032217E1,3.559439903E-1,7.714463745E0,1.273825240E1
6.985507292E0,-8.810737742E0,8.008375794E-1,7.009583652E0,1.128736920E1
6.995493292E0,-7.261311548E0,1.017686250E0,6.082470188E0,9.526739962E0
7.005478292E0,-5.777756578E0,9.759535021E-1,4.658463262E0,7.485735520E0
7.015464292E0,-4.552381321E0,8.528438848E-1,2.950975134E0,5.491791386E0
7.025449292E0,-3.653903427E0,7.315352100E-1,1.383494493E0,3.974947927E0
7.035435292E0,-3.050644433E0,6.403151375E-1,1.948584616E-1,3.123204245E0
7.045420292E0,-2.685380566E0,5.282093954E-1,-6.708557296E-1,2.817857583E0
7.055405292E0,-2.401100636E0,4.251586515E-1,-1.322736075E0,2.774107940E0
7.065391292E0,-1.799004069E0,3.690956940E-1,-1.805055352E0,2.575047980E0
7.075376292E0,-7.519484246E-1,4.128954323E-1,-2.114813356E0,2.282179792E0
7.085362292E0,5.772153483E-1,4.613306969E-1,-2.080762680E0,2.208070855E0
7.095347292E0,1.800429913E0,4.834637238E-1,-1.706563098E0,2.527378612E0
7.105333292E0,2.655591926E0,6.353122598E-1,-1.179127874E0,2.974244894E0
7.115318292E0,3.071538289E0,8.210003869E-1,-4.540895051E-1,3.211632977E0
7.125304292E0,2.736353961E0,8.516052984E-1,3.362476444E-1,2.885468257E0
7.135289292E0,1.975050430E0,6.965799701E-1,8.073461151E-1,2.244516786E0
7.145275292E0,1.484227254E0,5.939123650E-1,8.640208375E-1,1.817194114E0
7.155260292E0,1.555271363E0,3.784854452E-1,7.646900922E-1,1.773942271E0
7.165246292E0,1.856861975E0,1.309045404E-2,8.518481040E-1,2.042976492E0
7.175231292E0,2.669595423E0,-3.779318601E-2,1.213760932E0,2.932811560E0
7.185217292E0,4.186547058E0,2.473907241E-1,2.225316376E0,4.747674316E0
7.195202292E0,5.727946486E0,6.431618544E-1,4.140763652E0,7.097108689E0
7.205188292E0,6.681225071E0,1.105263799E0,6.835947075E0,9.622398294E0
7.215173292E0,7.093640885E0,1.583435939E0,9.208004006E0,1.173091421E1
7.225159292E0,6.999644555E0,1.658920277E0,1.089480118E1,1.305541011E1
7.235144292E0,6.433856274E0,1.445034683E0,1.188701871E1,1.359352219E1
7.245130292E0,5.780121192E0,8.417958632E-1,1.232483834E1,1.363891716E1
7.255115292E0,5.130044712E0,2.522553152E-1,1.241285764E1,1.343354109E1
7.265101292E0,4.483835874E0,-1.324604845E-1,1.242012924E1,1.320537543E1
7.275086292E0,4.077235993E0,-4.870303792E-1,1.269119212E1,1.333894334E1
7.285072292E0,3.851717363E0,-6.523158167E-1,1.310510249E1,1.367497546E1
7.295057292E0,3.515956500E0,-7.826036221E-1,1.371043198E1,1.417569623E1
7.305043292E0,3.289775381E0,-1.134154599E0,1.456215378E1,1.497214919E1
7.315028292E0,3.063974331E0,-1.692512677E0,1.536806850E1,1.576166448E1
7.325014292E0,2.687989886E0,-2.488017742E0,1.586215471E1,1.627954158E1
7.334999292E0,2.322914299E0,-3.479956947E0,1.597411135E1,1.651297262E1
7.344985292E0,1.577156029E0,-4.292892123E0,1.585951060E1,1.650576931E1
7.354970292E0,2.694521226E-1,-5.144634100E0,1.595046053E1,1.676177364E1
7.364956292E0,-1.539033060E0,-6.275494378E0,1.607677443E1,1.732665947E1
7.374941292E0,-3.271230352E0,-7.189671462E0,1.591274950E1,1.776535731E1
7.384927292E0,-4.974022288E0,-7.859122691E0,1.551662052E1,1.809066664E1
7.394912292E0,-6.174302464E0,-8.501070955E0,1.516243362E1,1.844694044E1
7.404898292E0,-6.842645645E0,-9.277467173E0,1.470967319E1,1.868870466E1
7.414883292E0,-6.687953462E0,-1.000222371E1,1.400180107E1,1.846140931E1
7.424869292E0,-5.956811185E0,-1.060196092E1,1.338949702E1,1.808766998E1
7.434854292E0,-5.585542227E0,-1.104462321E1,1.277602119E1,1.778788074E1
7.444840292E0,-5.658977993E0,-1.159464974E1,1.237370469E1,1.787647902E1
7.454825292E0,-6.450055400E0,-1.255217223E1,1.188328000E1,1.844918930E1
7.464810292E0,-7.525467117E0,-1.340927464E1,1.110657212E1,1.896832218E1
7.474796292E0,-8.479325160E0,-1.407241556E1,1.014329246E1,1.930850115E1
7.484781292E0,-9.261404872E0,-1.478609630E1,8.937472633E0,1.960307835E1
7.494767292E0,-9.683143487E0,-1.559498958E1,7.487621598E0,1.982502068E1
7.504752292E0,-9.833800507E0,-1.587742530E1,5.499447239E0,1.946895443E1
7.514738292E0,-1.030367106E1,-1.561382814E1,3.482212803E0,1.902848057E1
7.524723292E0,-1.076634253E1,-1.543768311E1,2.170294662E0,1.894588003E1
7.534709292E0,-1.090511566E1,-1.528254245E1,1.368720333E0,1.882421437E1
7.544694292E0,-1.081987145E1,-1.531631830E1,6.805936825E-1,1.876492558E1
7.554680292E0,-1.044456323E1,-1.544063712E1,-1.744107485E-2,1.864141840E1
7.564665292E0,-9.972372501E0,-1.551956167E1,-5.151046157E-1,1.845454796E1
7.574651292E0,-9.508632751E0,-1.560988478E1,-9.842664886E-1,1.830440876E1
7.584636292E0,-9.019972753E0,-1.559943931E1,-1.700685477E0,1.809957863E1
7.594622292E0,-8.673412959E0,-1.518360756E1,-2.601719774E0,1.767877192E1
7.604607292E0,-8.610895699E0,-1.465524613E1,-3.242019416E0,1.730417446E1
7.614593292E0,-8.408588469E0,-1.409380350E1,-3.393003295E0,1.675864340E1
7.624578292E0,-7.928336182E0,-1.354015404E1,-3.103393628E0,1.599454088E1
7.634564292E0,-7.279113981E0,-1.344819137E1,-2.622851904E0,1.551511211E1
7.644549292E0,-6.223770493E0,-1.360445353E1,-2.259809394E0,1.513020864E1
7.654535292E0,-5.035643170E0,-1.372312745E1,-2.034638674E0,1.475878328E1
7.664520292E0,-3.989191251E0,-1.370699031E1,-1.989398766E0,1.441363721E1
7.674506292E0,-3.147800307E0,-1.355798571E1,-2.170540245E0,1.408683315E1
7.684491292E0,-2.596910439E0,-1.345219321E1,-2.294934349E0,1.389144232E1
7.694477292E0,-2.351358957E0,-1.360884012E1,-2.344466259E0,1.400806697E1
7.704462292E0,-2.254925068E0,-1.372778885E1,-2.800820391E0,1.419089387E1
7.714448292E0,-2.295768016E0,-1.373601121E1,-3.603560654E0,1.438520782E1
7.724433292E0,-2.482203856E0,-1.393528666E1,-4.385171419E0,1.481834264E1
7.734419292E0,-2.689493498E0,-1.381706414E1,-5.097392691E0,1.497090675E1
7.744404292E0,-2.908699765E0,-1.330836574E1,-5.496918903E0,1.468976686E1
7.754390292E0,-3.006691206E0,-1.278292207E1,-5.256297793E0,1.414467940E1
7.764375292E0,-2.755158899E0,-1.246730458E1,-4.821437441E0,1.364810767E1
7.774361292E0,-2.146931965E0,-1.227458970E1,-4.742434541E0,1.333287496E1
7.784346292E0,-1.856648844E0,-1.224221718E1,-4.898896092E0,1.331608836E1
7.794332292E0,-1.753352225E0,-1.251636973E1,-5.188953656E0,1.366232028E1
7.804317292E0,-1.410605985E0,-1.276080440E1,-5.657703300E0,1.402988042E1
7.814303292E0,-7.875088513E-1,-1.286312599E1,-6.103497945E0,1.425948343E1
7.824288292E0,-2.936650041E-1,-1.285543573E1,-6.226761929E0,1.428709317E1
7.834274292E0,-2.495240808E-2,-1.252773438E1,-5.998843310E0,1.388995581E1
7.844259292E0,-2.241652912E-1,-1.233079314E1,-5.507228129E0,1.350660102E1
7.854244292E0,-1.013060517E0,-1.250767609E1,-4.811438118E0,1.343942668E1
7.864229792E0,-1.684709422E0,-1.283015588E1,-4.349676481E0,1.365177026E1
7.874214792E0,-1.579362184E0,-1.306362234E1,-4.364241895E0,1.386359336E1
7.884200792E0,-1.080837348E0,-1.320756208E1,-4.395617762E0,1.396171053E1
7.894185792E0,-4.082800788E-1,-1.282841224E1,-4.353975646E0,1.355330060E1
7.904171792E0,8.979007745E-1,-1.228543512E1,-4.170582697E0,1.300507216E1
7.914156792E0,2.240309514E0,-1.181966931E1,-4.232088682E0,1.275280926E1
7.924142792E0,3.349372834E0,-1.148097519E1,-4.631049468E0,1.282488631E1
7.934127792E0,4.135309369E0,-1.102650152E1,-4.823452392E0,1.272596607E1
7.944113792E0,4.156617208E0,-1.075043576E1,-4.570186678E0,1.239902988E1
7.954098792E0,3.972488679E0,-1.058364159E1,-3.919893267E0,1.196493623E1
7.964084792E0,3.828357737E0,-1.030655959E1,-2.848686283E0,1.135766292E1
7.974069792E0,3.774619194E0,-1.021103947E1,-2.367289111E0,1.114078700E1
7.984055792E0,4.395308152E0,-1.022071544E1,-2.450026628E0,1.139229513E1
7.994040792E0,5.709006186E0,-9.908504534E0,-2.269696158E0,1.165859058E1
8.004026792E0,6.814612339E0,-9.140026031E0,-1.834996020E0,1.154756371E1
8.014011792E0,7.554412004E0,-8.762567210E0,-9.895359993E-1,1.161167113E1
8.023997792E0,7.867322826E0,-8.365409120E0,1.988953793E-1,1.148539932E1
8.033982792E0,7.457813662E0,-8.017833665E0,1.550629551E0,1.105934416E1
8.043968792E0,7.006866451E0,-8.258678724E0,2.163103756E0,1.104449952E1
8.053953792E0,6.832287887E0,-8.573532575E0,1.763307987E0,1.110382248E1
8.063939792E0,7.916186253E0,-9.165155609E0,2.209562223E0,1.231049338E1
8.073924792E0,1.002112892E1,-9.669392005E0,3.956237220E0,1.447660111E1
8.083910792E0,1.131332148E1,-8.818273634E0,5.962713364E0,1.553406397E1
8.093895792E0,1.140810836E1,-8.003555349E0,9.178856220E0,1.668691811E1
8.103881792E0,1.092990084E1,-7.098139148E0,1.313284402E1,1.850183515E1
8.113866792E0,1.023627605E1,-5.683673124E0,1.652710709E1,2.025415406E1
8.123852792E0,9.207559617E0,-5.828503393E0,1.888631126E1,2.180466370E1
8.133837792E0,8.660126331E0,-6.312507838E0,1.924945493E1,2.203150150E1
8.143823792E0,8.695889071E0,-6.847545027E0,1.833673965E1,2.141829546E1
8.153808792E0,8.389779146E0,-7.184054627E0,1.662209862E1,1.995728432E1
8.163794792E0,8.505028936E0,-5.481393961E0,1.393115501E1,1.721796379E1
8.173779792E0,8.049113345E0,-3.622698006E0,1.216496377E1,1.502992049E1
8.183765792E0,6.009952435E0,-3.620777780E0,1.248749618E1,1.432365599E1
8.193750792E0,3.035955058E0,-4.332863397E0,1.334703922E1,1.435737386E1
8.203735792E0,-5.902392903E-1,-5.462998036E0,1.402442278E1,1.506244218E1
8.213721792E0,-4.153605307E0,-6.239352738E0,1.446692018E1,1.629336488E1
8.223706792E0,-7.148946775E0,-6.847741494E0,1.481955757E1,1.782184867E1
8.233692792E0,-9.207096518E0,-6.792478874E0,1.496157007E1,1.883499335E1
8.243677792E0,-1.033712064E1,-6.224759842E0,1.455632177E1,1.890741129E1
8.253663792E0,-1.114718805E1,-5.325777333E0,1.313372812E1,1.803104323E1
8.263648792E0,-1.224139038E1,-4.414498714E0,1.099391850E1,1.703542431E1
8.273634792E0,-1.340082425E1,-4.101729687E0,8.779582023E0,1.653745257E1
8.283619792E0,-1.432796812E1,-3.418393660E0,6.655554625E0,1.616392567E1
8.293605792E0,-1.469157488E1,-3.053081845E0,5.142579973E0,1.586221328E1
8.303590792E0,-1.438558424E1,-2.851461956E0,4.294510340E0,1.528131828E1
8.313576792E0,-1.351787498E1,-2.442951351E0,4.056301206E0,1.432321664E1
8.323561792E0,-1.240168010E1,-1.957013378E0,4.060086694E0,1.319529745E1
8.333547792E0,-1.117894194E1,-1.568921980E0,4.064797795E0,1.199803485E1
8.343532792E0,-9.707726936E0,-1.220207341E0,3.952617209E0,1.055234813E1
8.353518792E0,-8.147802066E0,-9.632431170E-1,3.475114868E0,8.910159323E0
8.363503792E0,-6.729266964E0,-8.836654356E-1,2.755567034E0,7.325097143E0
8.373489792E0,-5.634503887E0,-7.273034339E-1,1.841425619E0,5.972223426E0
8.383474792E0,-4.754204986E0,-7.222553133E-1,8.003206855E-1,4.874898049E0
8.393460792E0,-4.000705003E0,-8.525434841E-1,-3.907243985E-1,4.109152768E0
8.403445792E0,-3.519586743E0,-9.597571532E-1,-1.510363870E0,3.948395073E0
8.413431792E0,-2.751634782E0,-1.063228166E0,-2.422495598E0,3.817123659E0
8.423416792E0,-1.998572609E0,-9.513001791E-1,-2.954298692E0,3.691496345E0
8.433402792E0,-1.682179331E0,-6.058941869E-1,-2.716333387E0,3.251968963E0
8.443387792E0,-1.321346484E0,-3.879682769E-1,-2.130009685E0,2.536418178E0
8.453373792E0,-8.724499644E-1,-7.310408279E-2,-1.660712156E0,1.877359319E0
8.463358792E0,-9.029363966E-1,3.282818729E-1,-8.764631277E-1,1.300480964E0
8.473344792E0,-1.167199481E0,4.994607922E-1,1.111660945E-1,1.274430701E0
8.483329792E0,-1.268536479E0,6.133338918E-1,6.703674871E-1,1.560370414E0
8.493315792E0,-1.022561000E0,7.403506185E-1,7.964866662E-1,1.492695899E0
8.503300792E0,-7.492752238E-1,8.644022222E-1,6.999760330E-1,1.341108127E0
8.513286792E0,-3.198843576E-1,1.096519580E0,6.446461701E-1,1.311582966E0
8.523271792E0,4.175749590E-1,1.294039841E0,6.894013435E-1,1.524526867E0
8.533257792E0,1.727751653E0,1.476148303E0,8.670029175E-1,2.432248681E0
8.543242792E0,3.266592048E0,1.652950416E0,1.350358906E0,3.902094035E0
8.553228792E0,4.495681163E0,1.901187817E0,2.404593177E0,5.441298796E0
8.563213792E0,5.362756879E0,2.132928468E0,3.999969131E0,7.021986773E0
8.573199792E0,5.605661327E0,2.165693195E0,5.656403464E0,8.252791411E0
8.583184792E0,5.643040822E0,2.242709650E0,6.843702237E0,9.149312357E0
8.593170792E0,5.714071628E0,2.164524044E0,7.653536927E0,9.793487959E0
8.603155792E0,5.814811553E0,1.949255877E0,8.253815010E0,1.028285437E1
8.613140792E0,6.019155368E0,1.728640138E0,8.629029084E0,1.066201533E1
8.623126792E0,6.208983470E0,1.460474841E0,9.137069678E0,1.114318199E1
8.633111792E0,5.961710567E0,1.050569236E0,9.638718681E0,1.138202910E1
8.643097792E0,5.428036948E0,7.416655111E-1,9.943350431E0,1.135270323E1
8.653082792E0,4.999976909E0,3.588320033E-1,1.053698198E1,1.166861255E1
8.663068792E0,4.641376528E0,1.153962627E-2,1.164414525E1,1.253509585E1
8.673053792E0,4.360944065E0,-1.069061056E-1,1.329930606E1,1.399645683E1
8.683039792E0,4.341824840E0,-4.971812552E-1,1.468790634E1,1.532426915E1
8.693024792E0,4.148644237E0,-1.031328608E0,1.558952361E1,1.616502812E1
8.703010792E0,3.688160801E0,-1.647758089E0,1.614759590E1,1.664519421E1
8.712995792E0,2.924406264E0,-2.639214752E0,1.621411617E1,1.668577746E1
8.722981792E0,1.434519343E0,-3.479834740E0,1.579837796E1,1.624056162E1
8.732966792E0,-3.606781885E-1,-4.213127331E0,1.579075787E1,1.634712711E1
8.742952792E0,-2.151820968E0,-4.793939740E0,1.663604423E1,1.744620759E1
8.752937792E0,-3.608315610E0,-5.330927560E0,1.690784153E1,1.809181680E1
8.762923792E0,-4.901634927E0,-6.256734172E0,1.641881549E1,1.824144319E1
8.772908792E0,-6.017079021E0,-7.201574639E0,1.565383128E1,1.825131094E1
8.782894792E0,-6.678822450E0,-8.154936839E0,1.443604104E1,1.787481314E1
8.792879792E0,-7.557459573E0,-9.171477034E0,1.260124557E1,1.732115978E1
8.802865792E0,-8.362825820E0,-1.000456727E1,1.084631372E1,1.696085916E1
8.812850792E0,-8.398051202E0,-1.077198158E1,9.820847754E0,1.682295758E1
8.822836792E0,-7.949716526E0,-1.155784853E1,9.259143754E0,1.680814084E1
8.832821792E0,-7.943833058E0,-1.238945475E1,8.445967965E0,1.696871968E1
8.842807792E0,-8.398342393E0,-1.342552990E1,7.453618870E0,1.750238391E1
8.852792792E0,-9.102608528E0,-1.423517398E1,6.619353928E0,1.814699718E1
8.862778833E0,-9.601689434E0,-1.418583166E1,5.919597750E0,1.812379368E1
8.872763833E0,-1.026231254E1,-1.415539807E1,5.098697789E0,1.821227807E1
8.882749833E0,-1.123465070E1,-1.447881927E1,3.870433424E0,1.873055895E1
8.892734833E0,-1.186800356E1,-1.450074983E1,2.322412316E0,1.888160092E1
8.902720833E0,-1.217680087E1,-1.440547881E1,9.694823885E-1,1.888735543E1
8.912705833E0,-1.240633566E1,-1.455797419E1,-3.396124247E-1,1.913026695E1
8.922691833E0,-1.219457640E1,-1.440850767E1,-1.625717155E0,1.894612739E1
8.932676833E0,-1.150921958E1,-1.428860349E1,-2.240815883E0,1.848371123E1
8.942662833E0,-1.055689526E1,-1.374531881E1,-2.675503742E0,1.753682260E1
8.952647833E0,-9.331000772E0,-1.281111618E1,-2.979722970E0,1.612671765E1
8.962633833E0,-8.268628930E0,-1.219667088E1,-2.780397820E0,1.499531983E1
8.972618833E0,-7.358945432E0,-1.199336436E1,-2.251462786E0,1.425005092E1
8.982604833E0,-6.511786210E0,-1.180339534E1,-1.780030731E0,1.359750016E1
8.992589833E0,-5.869700536E0,-1.199120907E1,-1.383626786E0,1.342225400E1
9.002574833E0,-5.484897612E0,-1.238636508E1,-1.134577353E0,1.359387389E1
9.012560833E0,-5.234026918E0,-1.248071926E1,-1.214705842E0,1.358818977E1
9.022545833E0,-5.016314614E0,-1.243653068E1,-1.509889660E0,1.349483140E1
9.032531833E0,-5.096837790E0,-1.253794128E1,-1.847366390E0,1.365981294E1
9.042516833E0,-5.333003907E0,-1.277202520E1,-2.223366330E0,1.401816380E1
9.052502833E0,-5.376147003E0,-1.279630518E1,-2.599585540E0,1.412112700E1
9.062487833E0,-5.367712979E0,-1.273065147E1,-2.681841246E0,1.407388013E1
9.072473833E0,-5.535145075E0,-1.279864173E1,-2.477534269E0,1.416267055E1
9.082458833E0,-5.818342686E0,-1.285639117E1,-2.205613014E0,1.428301909E1
9.092444833E0,-5.943733302E0,-1.280921934E1,-2.011809390E0,1.426364058E1
9.102429833E0,-5.795206423E0,-1.281518584E1,-1.826485398E0,1.418271675E1
9.112415833E0,-5.434464793E0,-1.300006077E1,-1.694931232E0,1.419182086E1
9.122400833E0,-5.090784752E0,-1.302829814E1,-1.854666638E0,1.411001170E1
9.132386833E0,-4.507345774E0,-1.294283056E1,-2.152913228E0,1.387328599E1
9.142371833E0,-3.861254464E0,-1.287540047E1,-2.414069760E0,1.365697463E1
9.152357833E0,-3.537447941E0,-1.279552984E1,-2.783340139E0,1.356414775E1
9.162342833E0,-3.682580219E0,-1.286147357E1,-3.164633564E0,1.374750177E1
9.172328833E0,-4.078943964E0,-1.320253113E1,-3.404478164E0,1.423148213E1
9.182313833E0,-4.109234880E0,-1.374134972E1,-3.778478941E0,1.483197244E1
9.192299833E0,-3.449982658E0,-1.373148897E1,-4.510332824E0,1.485931600E1
9.202284833E0,-2.207237955E0,-1.335882955E1,-5.145466159E0,1.448468323E1
9.212270833E0,-1.148272702E0,-1.279708754E1,-5.747458060E0,1.407541310E1
9.222255833E0,-7.006437850E-1,-1.222811603E1,-6.460202073E0,1.384745227E1
9.232241833E0,-2.631545252E-1,-1.227045572E1,-7.159143734E0,1.420868301E1
9.242226833E0,-2.203909135E-1,-1.244177329E1,-7.517168748E0,1.453802328E1
9.252212833E0,-3.444635671E-1,-1.279424930E1,-6.765510346E0,1.447700247E1
9.262197833E0,-1.475012773E-1,-1.329802435E1,-5.388620868E0,1.434909207E1
9.272183833E0,7.574915850E-1,-1.329630176E1,-4.285717005E0,1.399045404E1
9.282168833E0,2.259164738E0,-1.290102297E1,-3.073251231E0,1.345306998E1
9.292154833E0,3.702163421E0,-1.218871983E1,-2.182983119E0,1.292425319E1
9.302139833E0,4.740115535E0,-1.123172944E1,-1.648574506E0,1.230196079E1
9.312125833E0,5.418396644E0,-1.005391075E1,-1.369536020E0,1.150285932E1
9.322110833E0,5.958212178E0,-8.959808412E0,-1.057562506E0,1.081188687E1
9.332096833E0,6.588189438E0,-8.094619886E0,-7.552789986E-2,1.043708847E1
9.342081833E0,7.504584956E0,-7.545471611E0,1.145945510E0,1.070355681E1
9.352067833E0,8.425619654E0,-6.974407972E0,1.821615252E0,1.108835945E1
9.362052833E0,8.728666808E0,-6.170701164E0,1.753020980E0,1.083237092E1
9.372038833E0,8.447116358E0,-5.688851418E0,8.379346544E-1,1.021855859E1
9.382023833E0,8.002657217E0,-5.558034586E0,-5.124166507E-1,9.756886891E0
9.392008833E0,6.769722680E0,-6.639518051E0,-1.522050115E0,9.603592123E0
9.401994833E0,6.182390918E0,-7.436951966E0,-1.883762968E0,9.852856181E0
9.411979833E0,6.744182042E0,-7.531442387E0,-1.074673213E0,1.016668768E1
9.421965833E0,7.134491873E0,-8.163522305E0,5.920071959E-1,1.085792537E1
9.431950833E0,7.225972731E0,-8.938789426E0,2.513009326E0,1.176570670E1
9.441936833E0,7.256641377E0,-8.368504052E0,4.490521873E0,1.195221698E1
9.451921833E0,6.907654989E0,-7.542181967E0,6.507325369E0,1.212210748E1
9.461907833E0,6.429371459E0,-7.140115140E0,7.935779688E0,1.246172784E1
9.471892833E0,6.296805725E0,-6.299824643E0,8.826517623E0,1.253973549E1
9.481878833E0,5.222528368E0,-6.323007683E0,1.113953288E1,1.383273008E1
9.491863833E0,3.680381373E0,-6.313593081E0,1.396194645E1,1.575888998E1
9.501849833E0,2.563886535E0,-6.075949373E0,1.572632974E1,1.705309714E1
9.511834833E0,1.981797532E0,-6.029595571E0,1.595600019E1,1.717199715E1
9.521820833E0,2.459667517E0,-5.594196691E0,1.476831257E1,1.598274248E1
9.531805833E0,3.041860746E0,-4.378345964E0,1.254317805E1,1.362916526E1
9.541791833E0,2.209031296E0,-3.810466719E0,1.133563914E1,1.216125777E1
9.551776833E0,-1.186578396E-1,-4.363016319E0,1.205536472E1,1.282114697E1
9.561762833E0,-2.700387445E0,-5.092894428E0,1.367516391E1,1.484047755E1
9.571747833E0,-5.524822986E0,-5.340487758E0,1.577203392E1,1.754427349E1
9.581733833E0,-7.938481101E0,-4.742222579E0,1.813431489E1,2.035587222E1
9.591718833E0,-9.227637202E0,-3.400488608E0,2.026062329E1,2.252122259E1
9.601704833E0,-9.441232481E0,-2.016504558E0,2.143003601E1,2.350424653E1
9.611689833E0,-8.646880633E0,-1.190026353E0,2.039208273E1,2.218156319E1
9.621675833E0,-7.324810556E0,-1.331142909E0,1.667051240E1,1.825734851E1
9.631660833E0,-6.218551853E0,-2.237038435E0,1.167592838E1,1.341648358E1
9.641646833E0,-5.968039593E0,-2.441101145E0,7.011010957E0,9.525268817E0
9.651631833E0,-6.964390522E0,-2.075044980E0,3.590067619E0,8.105376766E0
9.661617833E0,-8.127923287E0,-2.023520193E0,2.383695813E0,8.708603600E0
9.671602833E0,-8.524044081E0,-1.470645342E0,2.523965839E0,9.010689695E0
9.681588833E0,-8.162610140E0,-7.569472092E-1,3.355084979E0,8.857638996E0
9.691573833E0,-7.454056826E0,-3.258613814E-1,4.112965404E0,8.519720255E0
9.701559833E0,-6.635812086E0,7.095844701E-2,4.263239431E0,7.887600876E0
9.711544833E0,-5.730478331E0,1.787695554E-1,3.936004685E0,6.954313290E0
9.721530833E0,-4.864848340E0,7.862312347E-2,3.183797813E0,5.814593664E0
9.731515833E0,-4.342395528E0,-3.470907211E-2,2.151562521E0,4.846320762E0
9.741501833E0,-4.071479409E0,-2.672484532E-1,1.005457968E0,4.202298423E0
9.751486833E0,-3.993512051E0,-7.016840047E-1,-3.404991549E-1,4.068960385E0
9.761472833E0,-4.040657566E0,-1.043261679E0,-1.839288461E0,4.560514284E0
9.771457833E0,-4.185425270E0,-1.252947510E0,-3.006652322E0,5.303547901E0
9.781443833E0,-4.131484705E0,-1.432115260E0,-3.675891296E0,5.712468539E0
9.791428833E0,-3.782601228E0,-1.477390544E0,-3.918498121E0,5.643171306E0
9.801414833E0,-3.532702925E0,-1.410805521E0,-3.855090330E0,5.415910231E0
9.811399833E0,-3.291750278E0,-1.270389023E0,-3.588680075E0,5.032706314E0
9.821385833E0,-2.907368939E0,-1.169348771E0,-3.261602034E0,4.523076223E0
9.831370833E0,-2.507327587E0,-1.076977455E0,-2.791589976E0,3.903786196E0
9.841355833E0,-1.834128586E0,-7.808264340E-1,-2.305151335E0,3.047530191E0
9.851341833E0,-1.049164443E0,-5.062553664E-1,-1.834466262E0,2.173086973E0
9.861326458E0,-4.823128456E-1,-1.564945874E-1,-1.271365947E0,1.368754034E0
9.871312458E0,-5.929982990E-2,1.381781843E-1,-5.812453955E-1,6.003797884E-1
9.881297458E0,8.896181935E-1,2.733435908E-1,-1.559399790E-1,9.436389807E-1
9.891283458E0,2.402067034E0,4.147523618E-1,-1.307957822E-1,2.441117182E0
9.901268458E0,3.755808116E0,7.303075871E-1,3.001159447E-1,3.837904814E0
9.911254458E0,5.124930738E0,1.042246017E0,1.723663280E0,5.506560354E0
9.921239458E0,6.155262176E0,1.250290535E0,3.509576603E0,7.194970938E0
9.931225458E0,6.574764816E0,1.460038346E0,5.058958358E0,8.423319062E0
9.941210458E0,6.546494697E0,1.545064025E0,6.346628680E0,9.247892261E0
9.951196458E0,6.801306415E0,1.625781767E0,7.602204806E0,1.032930071E1
9.961181458E0,7.209165494E0,1.624618317E0,9.027845444E0,1.166676670E1
9.971167458E0,7.690921100E0,1.516428163E0,1.042321972E1,1.304198341E1
9.981152458E0,8.199888479E0,1.349949017E0,1.156114753E1,1.423800076E1
9.991138458E0,8.410947821E0,9.362943234E-1,1.240633683E1,1.501791876E1
1.000112346E1,8.040185232E0,4.698351797E-1,1.284954759E1,1.516496610E1
1.001110946E1,7.146261148E0,-1.474859284E-1,1.293103438E1,1.477506179E1
1.002109446E1,6.026815220E0,-1.034055530E0,1.271954761E1,1.411306714E1
1.003108046E1,4.857867349E0,-1.914150948E0,1.252469383E1,1.356948063E1
1.004106546E1,3.855848421E0,-2.570497104E0,1.261885037E1,1.344285710E1
1.005105146E1,2.747368069E0,-3.319849365E0,1.309485115E1,1.378566494E1
1.006103646E1,1.316674851E0,-4.043368335E0,1.341952832E1,1.407715172E1
1.007102246E1,-1.483953166E-1,-4.721599450E0,1.334604169E1,1.415741329E1
1.008100746E1,-1.184192147E0,-5.146730912E0,1.330694837E1,1.431663456E1
1.009099346E1,-1.789913403E0,-5.073565287E0,1.348695023E1,1.452042290E1
1.010097846E1,-2.575289775E0,-4.990078742E0,1.372808940E1,1.483217590E1
1.011096446E1,-3.607307550E0,-5.305805583E0,1.430637552E1,1.567917795E1
1.012094946E1,-4.284071306E0,-5.772119277E0,1.495653211E1,1.659423034E1
1.013093546E1,-4.628610887E0,-6.499491270E0,1.523143778E1,1.719488652E1
1.014092046E1,-4.779019692E0,-7.483416281E0,1.504005724E1,1.746550516E1
1.015090646E1,-5.059334918E0,-8.445516559E0,1.438056499E1,1.742768686E1
1.016089146E1,-5.302790759E0,-9.118806485E0,1.357287857E1,1.718997540E1
1.017087746E1,-5.170333782E0,-9.520225441E0,1.319961103E1,1.707620494E1
1.018086246E1,-5.522621509E0,-1.005494454E1,1.331143085E1,1.757257662E1
1.019084846E1,-5.927078093E0,-1.075611691E1,1.335619362E1,1.814420607E1
1.020083346E1,-6.529612616E0,-1.186723524E1,1.303587145E1,1.879896427E1
1.021081946E1,-7.776712033E0,-1.336445457E1,1.211797086E1,1.964512952E1
1.022080446E1,-8.684003436E0,-1.474221411E1,1.088651918E1,2.027957328E1
1.023079046E1,-9.333581148E0,-1.577542296E1,9.661631581E0,2.072020346E1
1.024077546E1,-9.892140516E0,-1.636153851E1,8.221323202E0,2.081212487E1
1.025076146E1,-1.013716926E1,-1.641369801E1,6.878718873E0,2.048141734E1
1.026074646E1,-9.981540935E0,-1.628622988E1,6.152096493E0,2.006790309E1
1.027073146E1,-9.556971683E0,-1.630698398E1,5.617484981E0,1.971825479E1
1.028071746E1,-8.853283253E0,-1.637514147E1,5.107913586E0,1.930328116E1
1.029070246E1,-7.874003854E0,-1.641007975E1,4.845491717E0,1.883532437E1
1.030068846E1,-7.100418393E0,-1.627188666E1,4.443640652E0,1.830126168E1
1.031067346E1,-6.982257859E0,-1.630367797E1,3.991484821E0,1.817948820E1
1.032065946E1,-7.176055051E0,-1.665558796E1,3.290956226E0,1.843189544E1
1.033064446E1,-7.515278928E0,-1.665717724E1,1.658533484E0,1.834916086E1
1.034063046E1,-7.800622467E0,-1.601469103E1,-4.880460405E-1,1.782016354E1
1.035061546E1,-8.112139898E0,-1.560370193E1,-1.970876980E0,1.769651615E1
1.036060146E1,-8.051534677E0,-1.574465258E1,-2.606315101E0,1.787495941E1
1.037058646E1,-7.468006529E0,-1.540441713E1,-2.939342684E0,1.736971284E1
1.038057246E1,-6.210299678E0,-1.512473896E1,-2.559453176E0,1.654920999E1
1.039055746E1,-4.744870491E0,-1.503730905E1,-1.827444926E0,1.587368938E1
1.040054346E1,-3.840934513E0,-1.457279338E1,-1.251740352E0,1.512236551E1
1.041052846E1,-3.858099307E0,-1.426549647E1,-6.169549263E-1,1.479087398E1
1.042051446E1,-4.529181324E0,-1.412845060E1,-1.712368798E-1,1.483765216E1
1.043049946E1,-5.024225312E0,-1.399989956E1,-3.755034383E-1,1.487887867E1
1.044048546E1,-4.876853843E0,-1.414203368E1,-1.044270542E0,1.499571008E1
1.045047046E1,-4.339480691E0,-1.456909560E1,-1.973720773E0,1.532922741E1
1.046045646E1,-3.950677395E0,-1.468454068E1,-3.243234175E0,1.554870268E1
1.047044146E1,-3.457058958E0,-1.469197016E1,-4.554665244E0,1.576547555E1
1.048042746E1,-2.806365305E0,-1.462983180E1,-5.396990572E0,1.584408949E1
1.049041246E1,-2.401114084E0,-1.453506480E1,-5.739287746E0,1.581053071E1
1.050039846E1,-1.852733403E0,-1.428952735E1,-5.606730198E0,1.546152116E1
1.051038346E1,-1.189244142E0,-1.405581765E1,-4.832516745E0,1.491085274E1
1.052036946E1,-5.398436004E-1,-1.387544508E1,-3.977402387E0,1.444434620E1
1.053035446E1,1.261817443E-1,-1.329353018E1,-3.297786359E0,1.369705302E1
1.054034046E1,3.561650151E-1,-1.281748263E1,-2.510568699E0,1.306589720E1
1.055032546E1,2.057521167E-1,-1.271496106E1,-2.219259245E0,1.290882180E1
1.056031146E1,3.189205903E-1,-1.231454022E1,-2.675098237E0,1.260578287E1
1.057029646E1,6.765459475E-1,-1.207424421E1,-2.995259607E0,1.245859815E1
1.058028246E1,9.766934672E-1,-1.200527631E1,-3.192652836E0,1.246088365E1
1.059026746E1,1.322470027E0,-1.170200696E1,-3.223193429E0,1.220962201E1
1.060025346E1,1.948814704E0,-1.185385915E1,-3.129030452E0,1.241381033E1
1.061023846E1,2.472620854E0,-1.193950916E1,-3.256095711E0,1.262013836E1
1.062022446E1,2.323866518E0,-1.176785128E1,-3.351423452E0,1.245450596E1
1.063020946E1,1.676437658E0,-1.200061257E1,-3.375993453E0,1.257865164E1
1.064019546E1,1.635831084E0,-1.166785220E1,-3.592942695E0,1.231762784E1
1.065018046E1,2.019126011E0,-1.136124760E1,-3.245156155E0,1.198690349E1
1.066016646E1,2.546348396E0,-1.128956308E1,-2.601380051E0,1.186192660E1
1.067015146E1,3.554705998E0,-1.090299897E1,-2.321261291E0,1.170040919E1
1.068013646E1,4.607670838E0,-1.033453968E1,-1.742815835E0,1.144861337E1
1.069012246E1,5.489820383E0,-9.499772465E0,-9.476243269E-1,1.101280149E1
1.070010746E1,5.883707541E0,-8.338180391E0,-4.385897058E-1,1.021448127E1
1.071009346E1,5.541632561E0,-7.423019221E0,-4.128964555E-1,9.272615018E0
1.072007846E1,4.534136839E0,-7.009923960E0,-1.048260171E0,8.414052542E0
1.073006446E1,3.208276012E0,-7.500179663E0,-2.493640425E0,8.530180099E0
1.074004946E1,2.690293689E0,-8.161775742E0,-4.096007309E0,9.519954794E0
1.075003546E1,2.535483977E0,-8.999188240E0,-4.255053914E0,1.027227101E1
1.076002046E1,2.626364326E0,-9.681926097E0,-3.422654818E0,1.059962492E1
1.077000646E1,4.419620582E0,-9.729820055E0,-1.867116530E0,1.084843623E1
1.077999146E1,6.762298470E0,-9.314316911E0,3.538547802E-1,1.151565861E1
1.078997746E1,8.207933078E0,-8.885402593E0,2.482025515E0,1.234831953E1
1.079996246E1,8.223376744E0,-8.348970258E0,4.801106672E0,1.266411682E1
1.080994846E1,6.795712384E0,-7.571948973E0,7.017392024E0,1.235960796E1
1.081993346E1,5.161577577E0,-6.736082479E0,8.695305519E0,1.215010405E1
1.082991946E1,4.840301436E0,-6.333391753E0,1.033503553E1,1.305194730E1
1.083990446E1,5.405238655E0,-6.235706415E0,1.215555910E1,1.469211545E1
1.084989046E1,6.090132380E0,-5.962816275E0,1.315151535E1,1.567186161E1
1.085987546E1,6.430981783E0,-5.684305792E0,1.399419969E1,1.641665265E1
1.086986208E1,6.594564072E0,-4.890165322E0,1.530469170E1,1.736765903E1
1.087984708E1,6.120411601E0,-3.802152563E0,1.658688201E1,1.808425993E1
1.088983308E1,5.043906455E0,-3.411214741E0,1.842093254E1,1.940124052E1
1.089981808E1,4.161144707E0,-2.847785227E0,2.014431047E1,2.076579520E1
1.090980408E1,3.355483174E0,-2.590077968E0,2.117152359E1,2.159169244E1
1.091978908E1,1.964692526E0,-2.707010879E0,2.120959832E1,2.147172526E1
1.092977508E1,-2.939632121E-1,-2.481702164E0,2.042099604E1,2.057334050E1
1.093976008E1,-2.708578517E0,-2.103883594E0,1.886618631E1,1.917539334E1
1.094974608E1,-4.894430281E0,-1.765379071E0,1.717167842E1,1.794264615E1
1.095973108E1,-6.868678619E0,-1.490160278E0,1.626567925E1,1.771924505E1
1.096971708E1,-8.380594924E0,-8.835883985E-1,1.563166098E1,1.775848881E1
1.097970208E1,-9.157489910E0,-3.124942079E-1,1.468489386E1,1.730905490E1
1.098968808E1,-9.233896646E0,1.009451616E-1,1.342483759E1,1.629421068E1
1.099967308E1,-8.890675612E0,5.302867649E-1,1.185906317E1,1.483113941E1
1.100965908E1,-8.192211669E0,8.302404495E-1,1.012772834E1,1.305268220E1
1.101964408E1,-7.286063397E0,9.278974293E-1,8.262043211E0,1.105482119E1
1.102963008E1,-6.351024617E0,7.204091281E-1,6.169256902E0,8.883368377E0
1.103961508E1,-5.348021895E0,3.923044623E-1,3.794131352E0,6.568917240E0
1.104960108E1,-4.403542201E0,2.430487280E-1,1.669351417E0,4.715611387E0
1.105958608E1,-3.740314164E0,2.337643728E-2,1.127787566E-1,3.742087058E0
1.106957208E1,-3.411985404E0,-1.559048226E-1,-9.421168345E-1,3.543096787E0
1.107955708E1,-3.373634101E0,-4.296347681E-1,-1.516382409E0,3.723628431E0
1.108954308E1,-3.595587975E0,-6.516123236E-1,-1.892792239E0,4.115278115E0
1.109952808E1,-3.898429600E0,-7.452435686E-1,-2.235879956E0,4.555469295E0
1.110951408E1,-4.093950551E0,-7.970358659E-1,-2.188896993E0,4.710304378E0
1.111949908E1,-4.223036315E0,-7.959572008E-1,-1.709277960E0,4.624847536E0
1.112948508E1,-4.492072554E0,-7.743088350E-1,-1.178662435E0,4.708239070E0
1.113947008E1,-4.547355932E0,-8.405076485E-1,-9.778994554E-1,4.726646424E0
1.114945608E1,-4.403932503E0,-1.008399848E0,-1.103666632E0,4.650760344E0
1.115944108E1,-4.233772680E0,-1.195337671E0,-1.283970205E0,4.582820391E0
1.116942608E1,-3.776079536E0,-1.305686471E0,-1.283186093E0,4.196446160E0
1.117941208E1,-3.167671192E0,-1.283707957E0,-1.121639804E0,3.597238212E0
1.118939708E1,-2.746796211E0,-1.138234786E0,-8.249649453E-1,3.085617445E0
1.119938308E1,-2.756019024E0,-9.804529345E-1,-4.362473112E-1,2.957573420E0
1.120936808E1,-2.842780595E0,-9.887224323E-1,-2.487879163E-1,3.020077646E0
1.121935408E1,-2.670811936E0,-1.070491212E0,-3.694650918E-1,2.900981263E0
1.122933908E1,-2.322965462E0,-1.019154412E0,-5.388612682E-1,2.593302088E0
1.123932508E1,-1.985798051E0,-9.642935693E-1,-4.577481079E-1,2.254504229E0
1.124931008E1,-1.665813852E0,-8.382463840E-1,-3.027933848E-1,1.889252927E0
1.125929608E1,-1.098344058E0,-6.951188971E-1,-1.997151589E-1,1.315080262E0
1.126928108E1,-3.740691894E-1,-5.627532106E-1,-2.686152399E-2,6.762695291E-1
1.127926708E1,4.134579344E-1,-3.567407466E-1,1.909262091E-1,5.785017209E-1
1.128925208E1,1.627025908E0,-9.602092892E-2,5.180890346E-1,1.710219159E0
1.129923808E1,2.765664591E0,2.125392723E-1,1.137458276E0,2.997980137E0
1.130922308E1,3.804183301E0,6.370218395E-1,1.938284161E0,4.316775753E0
1.131920908E1,4.901101077E0,1.040574883E0,2.977362449E0,5.828230864E0
1.132919408E1,5.826240520E0,1.302034154E0,4.071373574E0,7.226095372E0
1.133918008E1,6.553701975E0,1.654251568E0,5.121105489E0,8.480169766E0
1.134916508E1,7.526861093E0,1.930721957E0,5.881180959E0,9.745235485E0
1.135915108E1,8.280518659E0,1.878825872E0,6.618956902E0,1.076603764E1
1.136913608E1,8.667100890E0,1.811284391E0,7.560777867E0,1.164322769E1
1.137912208E1,8.981909133E0,1.958185744E0,8.619358374E0,1.260168726E1
1.138910708E1,8.887317556E0,1.955759588E0,9.871126792E0,1.342566770E1
1.139909308E1,8.424277718E0,1.639377128E0,1.111525290E1,1.404296477E1
1.140907808E1,7.702380474E0,1.192682231E0,1.194428517E1,1.426236671E1
1.141906408E1,6.700857682E0,7.021675694E-1,1.256514253E1,1.425753624E1
1.142904908E1,5.783226063E0,5.906353387E-2,1.336576084E1,1.456340465E1
1.143903508E1,4.852925282E0,-6.776653969E-1,1.401789612E1,1.484963049E1
1.144902008E1,4.081614680E0,-1.431059253E0,1.446453803E1,1.509736299E1
1.145900608E1,3.228721971E0,-2.286242317E0,1.507951542E1,1.558984717E1
1.146899108E1,1.695130037E0,-2.995064895E0,1.561422926E1,1.598899731E1
1.147897708E1,-2.248549703E-1,-3.641864302E0,1.570825717E1,1.612647136E1
1.148896208E1,-2.139454400E0,-4.514843659E0,1.582007230E1,1.659023104E1
1.149894808E1,-3.932303105E0,-5.517963032E0,1.596918917E1,1.734721667E1
1.150893308E1,-4.879283068E0,-6.287635537E0,1.566463226E1,1.757049993E1
1.151891908E1,-5.170504521E0,-7.017666843E0,1.512715620E1,1.745888369E1
1.152890408E1,-5.729093710E0,-7.903010722E0,1.432399201E1,1.733369090E1
1.153889008E1,-6.688756869E0,-8.715542732E0,1.341098437E1,1.733651220E1
1.154887508E1,-7.816411119E0,-9.394964633E0,1.307552961E1,1.789779645E1
1.155886108E1,-9.212668914E0,-1.008660254E1,1.281809541E1,1.873276246E1
1.156884608E1,-1.051159103E1,-1.102781130E1,1.246993348E1,1.968769690E1
1.157883208E1,-1.101197236E1,-1.187589146E1,1.196569299E1,2.013648783E1
1.158881708E1,-1.055012535E1,-1.218692825E1,1.122167222E1,1.964057771E1
1.159880308E1,-9.862536063E0,-1.221210636E1,1.063351484E1,1.895987334E1
1.160878808E1,-9.647881853E0,-1.235901063E1,1.019689506E1,1.870303283E1
1.161877408E1,-9.507507747E0,-1.275140441E1,9.528489311E0,1.854138955E1
1.162875908E1,-9.529271668E0,-1.347162701E1,8.414682437E0,1.852292184E1
1.163874408E1,-9.679525230E0,-1.440504144E1,7.000162033E0,1.871364999E1
1.164873008E1,-9.559709349E0,-1.516079874E1,5.523153021E0,1.875481486E1
1.165871508E1,-9.489715839E0,-1.587951159E1,3.987985262E0,1.892399592E1
1.166870108E1,-9.643763659E0,-1.641653391E1,2.583948331E0,1.921409774E1
1.167868608E1,-9.917692848E0,-1.698500723E1,1.615371677E0,1.973475431E1
1.168867208E1,-9.916971302E0,-1.730687774E1,9.511306098E-1,1.996945133E1
1.169865708E1,-9.724762214E0,-1.696481212E1,2.974978539E-1,1.955669592E1
1.170864308E1,-9.295692945E0,-1.657131088E1,-1.723689008E-1,1.900126213E1
1.171862808E1,-8.649981412E0,-1.646227901E1,-3.849409175E-1,1.860045667E1
1.172861408E1,-8.073552368E0,-1.618860593E1,-7.918118173E-1,1.810746188E1
1.173859908E1,-7.714309378E0,-1.560643843E1,-1.451614701E0,1.746936390E1
1.174858508E1,-7.337859787E0,-1.502336344E1,-2.158518954E0,1.685837594E1
1.175857008E1,-6.795640463E0,-1.477932171E1,-2.824924368E0,1.651027793E1
1.176855608E1,-6.117989684E0,-1.495013759E1,-3.649401070E0,1.656063223E1
1.177854108E1,-5.694916735E0,-1.484813876E1,-4.804578749E0,1.661274445E1
1.178852708E1,-5.419398272E0,-1.470527257E1,-5.811825964E0,1.671503036E1
1.179851208E1,-4.919015191E0,-1.464569763E1,-6.369484277E0,1.671117888E1
1.180849808E1,-4.521401896E0,-1.445147067E1,-6.604257587E0,1.651981531E1
1.181848308E1,-4.329428743E0,-1.414165712E1,-6.559564394E0,1.617894633E1
1.182846908E1,-4.096311364E0,-1.391271757E1,-6.235827452E0,1.578698898E1
1.183845408E1,-3.901310815E0,-1.385898166E1,-5.968394519E0,1.558567714E1
1.184844008E1,-3.867803346E0,-1.393793077E1,-5.825710763E0,1.559373986E1
1.185842508E1,-3.871150877E0,-1.416790878E1,-5.696537583E0,1.575328501E1
1.186841092E1,-3.610296939E0,-1.436162001E1,-5.669234009E0,1.585656292E1
1.187839592E1,-3.425445110E0,-1.464039888E1,-5.649116664E0,1.606198844E1
1.188838192E1,-3.315929099E0,-1.514010895E1,-5.600697041E0,1.647986930E1
1.189836692E1,-3.343068951E0,-1.571197132E1,-5.468458166E0,1.696897721E1
1.190835292E1,-3.524586698E0,-1.639664168E1,-5.310756420E0,1.759194996E1
1.191833792E1,-3.328589783E0,-1.702991619E1,-5.014171025E0,1.806210027E1
1.192832392E1,-2.901185801E0,-1.758035085E1,-4.349595789E0,1.834133579E1
1.193830892E1,-2.057461233E0,-1.775414530E1,-3.670401930E0,1.824594948E1
1.194829492E1,-1.353519911E0,-1.754913373E1,-2.995259022E0,1.785429045E1
1.195827992E1,-1.428994017E0,-1.706938840E1,-2.233516511E0,1.727410317E1
1.196826592E1,-1.693529654E0,-1.623879142E1,-1.537829411E0,1.639912524E1
1.197825092E1,-1.621743388E0,-1.551335778E1,-1.104077107E0,1.563692129E1
1.198823692E1,-1.579375632E0,-1.586439537E1,-8.714970875E-1,1.596662065E1
1.199822192E1,-8.086769414E-1,-1.618281017E1,-1.567479472E0,1.627864538E1
1.200820792E1,4.187664753E-1,-1.556868647E1,-2.456179068E0,1.576680625E1
1.201819292E1,1.585767224E0,-1.533227185E1,-2.810913270E0,1.566826254E1
1.202817892E1,2.767569029E0,-1.493389987E1,-2.997762215E0,1.548119446E1
1.203816392E1,3.865065680E0,-1.391206502E1,-3.072890165E0,1.476234873E1
1.204814992E1,5.041564060E0,-1.310948088E1,-2.805167211E0,1.432287751E1
1.205813492E1,6.216345114E0,-1.250776965E1,-1.963520744E0,1.410470354E1
1.206811992E1,7.038896914E0,-1.209564035E1,-8.752393055E-1,1.402200517E1
1.207810592E1,7.037118191E0,-1.180220368E1,-5.267288804E-2,1.374102683E1
1.208809192E1,7.640262578E0,-1.112226254E1,9.039292538E-1,1.352388348E1
1.209807692E1,8.566634615E0,-1.087409969E1,2.065287439E0,1.399638114E1
1.210806192E1,9.553794891E0,-1.034941617E1,2.723497980E0,1.434583051E1
1.211804792E1,1.096703183E1,-9.627549330E0,3.525113239E0,1.501305820E1
1.212803292E1,1.205033963E1,-9.236637236E0,4.615973884E0,1.586925857E1
1.213801892E1,1.294056769E1,-8.541555322E0,5.106059434E0,1.632446943E1
1.214800392E1,1.364048525E1,-8.360192235E0,5.314547170E0,1.685823430E1
1.215798992E1,1.411950436E1,-8.535762486E0,5.606864684E0,1.742574463E1
1.216797492E1,1.458554381E1,-8.520198367E0,6.916296589E0,1.825286353E1
1.217796092E1,1.402360183E1,-8.697808712E0,9.696968644E0,1.914012763E1
1.218794592E1,1.252117848E1,-8.088361611E0,1.223708098E1,1.928594450E1
1.219793192E1,1.064603606E1,-6.482651873E0,1.345548636E1,1.834156406E1
1.220791692E1,8.696486657E0,-6.365052087E0,1.454432913E1,1.810194128E1
1.221790292E1,6.938238266E0,-6.322423546E0,1.501954404E1,1.771154688E1
1.222788792E1,4.999531935E0,-5.896382550E0,1.487965058E1,1.676802457E1
1.223787392E1,2.653961722E0,-7.037117606E0,1.558037973E1,1.730065807E1
1.224785892E1,9.836314809E-1,-7.571667722E0,1.646638844E1,1.815047193E1
1.225784492E1,-4.852994572E-1,-7.567267692E0,1.781695960E1,1.936344766E1
1.226782992E1,-2.532394308E0,-7.129462098E0,1.925365557E1,2.068684373E1
1.227781592E1,-4.575993255E0,-5.769938266E0,1.945415191E1,2.080134439E1
1.228780092E1,-7.304621290E0,-4.752301717E0,1.819539958E1,2.017459863E1
1.229778692E1,-1.135286269E1,-4.377374157E0,1.659729824E1,2.057958223E1
1.230777192E1,-1.470536379E1,-3.634284264E0,1.537386660E1,2.158266713E1
1.231775792E1,-1.677024952E1,-3.311083512E0,1.446965317E1,2.239587922E1
1.232774292E1,-1.738675889E1,-2.803227105E0,1.366491725E1,2.229097195E1
1.233772892E1,-1.616876048E1,-1.271711225E0,1.321429105E1,2.092040996E1
1.234771392E1,-1.443247423E1,-3.701272890E-1,1.311224661E1,1.950293101E1
1.235769992E1,-1.226882201E1,-4.611435860E-2,1.200844900E1,1.716767216E1
1.236768492E1,-9.694379497E0,3.108721903E-1,1.014633184E1,1.403658382E1
1.237767092E1,-7.317450081E0,4.785412453E-1,7.975081748E0,1.083402078E1
1.238765592E1,-5.502324654E0,2.549530743E-1,5.464870899E0,7.759213337E0
1.239764192E1,-4.760018288E0,4.617730388E-1,3.152598825E0,5.727991602E0
1.240762692E1,-4.777238338E0,8.346431105E-1,1.572694019E0,5.098235159E0
1.241761292E1,-5.412518438E0,5.110200432E-1,4.902036631E-1,5.458644242E0
1.242759792E1,-5.989440987E0,1.930190738E-1,-1.388497370E-1,5.994158736E0
1.243758392E1,-6.181996815E0,-1.726478130E-2,2.297166377E-1,6.186287451E0
1.244756892E1,-6.162703927E0,-1.074895115E-1,1.213080901E0,6.281881801E0
1.245755492E1,-6.287512161E0,-1.044188462E-1,2.086680062E0,6.625552516E0
1.246753992E1,-6.215845177E0,-1.448711997E-1,2.471649047E0,6.690797257E0
1.247752592E1,-5.772555479E0,-2.741062870E-1,2.474385543E0,6.286502592E0
1.248751092E1,-5.068578197E0,-5.494334726E-1,1.962689270E0,5.463013019E0
1.249749692E1,-4.225363507E0,-8.832769612E-1,8.664199501E-1,4.402789852E0
1.250748192E1,-3.078483320E0,-1.037828811E0,-3.417820340E-1,3.266644019E0
1.251746792E1,-2.089291137E0,-1.033214116E0,-1.290315018E0,2.664128696E0
1.252745292E1,-1.489717644E0,-8.865382458E-1,-1.792141192E0,2.493387008E0
1.253743892E1,-8.923675543E-1,-7.229237963E-1,-2.056317810E0,2.355288009E0
1.254742392E1,-4.009535176E-1,-5.574932747E-1,-2.164383126E0,2.270708434E0
1.255740992E1,8.214870214E-2,-3.790810572E-1,-2.176022594E0,2.210322417E0
1.256739492E1,8.993760270E-1,-1.096091272E-1,-2.129930162E0,2.314626081E0
1.257738092E1,2.242283534E0,2.657286888E-1,-1.605783412E0,2.770737727E0
1.258736592E1,3.518304449E0,8.074960231E-1,-3.351892984E-1,3.625309351E0
1.259735092E1,4.638769839E0,1.482275600E0,1.375311899E0,5.060317124E0
1.260733692E1,5.825269883E0,2.018046030E0,3.085731820E0,6.894056850E0
1.261732192E1,7.100174564E0,2.403291587E0,4.285757643E0,8.634582090E0
1.262730792E1,8.285901605E0,2.537370289E0,5.090011166E0,1.005000632E1
1.263729292E1,8.797748737E0,2.410433523E0,5.755740641E0,1.078606151E1
1.264727892E1,8.721511570E0,2.296437522E0,6.359033548E0,1.103520263E1
1.265726392E1,8.256512330E0,1.833604091E0,6.893974843E0,1.091141553E1
1.266724992E1,7.937895795E0,1.726949123E0,7.407991292E0,1.099412925E1
1.267723492E1,7.539252512E0,1.492322870E0,8.104626226E0,1.116925791E1
1.268722092E1,6.857407526E0,1.196131358E0,8.780588914E0,1.120506626E1
1.269720592E1,6.418785660E0,1.042957404E0,9.545193052E0,1.154986060E1
1.270719192E1,6.456685558E0,9.694837772E-1,1.058437951E1,1.243614799E1
1.271717692E1,6.427913164E0,8.109143785E-1,1.204462924E1,1.367657644E1
1.272716292E1,6.285390206E0,5.335093482E-1,1.368999713E1,1.507337997E1
1.273714792E1,5.927408461E0,-5.325379064E-2,1.473845903E1,1.588581699E1
1.274713392E1,4.846412361E0,-1.115982476E0,1.485191255E1,1.566245307E1
1.275711892E1,3.207877817E0,-2.409725279E0,1.435774682E1,1.490778822E1
1.276710492E1,1.561170034E0,-3.663136765E0,1.379302975E1,1.435630497E1
1.277708992E1,1.252871203E-1,-4.672262691E0,1.342835996E1,1.421852969E1
1.278707592E1,-5.374526739E-1,-5.273132511E0,1.342123571E1,1.442998094E1
1.279706092E1,-9.474073952E-1,-5.765063442E0,1.367327994E1,1.486916681E1
1.280704692E1,-1.901761283E0,-6.403983434E0,1.395113144E1,1.546808871E1
1.281703192E1,-3.341505405E0,-7.281325983E0,1.388431648E1,1.602989740E1
1.282701792E1,-5.009752868E0,-8.315518337E0,1.340971903E1,1.655493985E1
1.283700292E1,-6.585640052E0,-9.242251732E0,1.278515220E1,1.709532067E1
1.284698892E1,-7.732805291E0,-1.012111631E1,1.230404096E1,1.770939573E1
1.285697392E1,-8.178577716E0,-1.072962201E1,1.202840789E1,1.807474809E1
1.286695954E1,-8.218635237E0,-1.108277513E1,1.161556757E1,1.803594410E1
1.287694454E1,-8.528795528E0,-1.159548004E1,1.093100246E1,1.807435546E1
1.288693054E1,-9.074053066E0,-1.215125087E1,9.869087284E0,1.809392773E1
1.289691554E1,-9.534621286E0,-1.277199129E1,8.812336956E0,1.821235974E1
1.290690154E1,-1.004256832E1,-1.362699689E1,7.647431849E0,1.857502185E1
1.291688654E1,-1.032298442E1,-1.458271142E1,6.522615838E0,1.902009456E1
1.292687254E1,-1.041622645E1,-1.547394871E1,5.298799449E0,1.939118712E1
1.293685754E1,-1.055595386E1,-1.609724436E1,4.029715086E0,1.966692761E1
1.294684354E1,-1.065892567E1,-1.580329079E1,2.612579223E0,1.924012127E1
1.295682854E1,-1.088926035E1,-1.522424337E1,1.511106466E0,1.877863200E1
1.296681454E1,-1.104419754E1,-1.477670567E1,8.078021979E-1,1.846558621E1
1.297679954E1,-1.095135661E1,-1.436591538E1,1.971067160E-1,1.806517610E1
1.298678554E1,-1.077856905E1,-1.426633613E1,-1.900625753E-1,1.788133164E1
1.299677054E1,-1.035126506E1,-1.452619341E1,-6.652412331E-1,1.784941257E1
1.300675654E1,-9.738383887E0,-1.441500041E1,-1.743595269E0,1.748337731E1
1.301674154E1,-9.018289340E0,-1.411170300E1,-2.852771440E0,1.698846694E1
1.302672754E1,-8.523850538E0,-1.413375636E1,-3.911250789E0,1.696222213E1
1.303671254E1,-8.172335814E0,-1.379486928E1,-5.174022206E0,1.684802650E1
1.304669854E1,-8.027131323E0,-1.307630729E1,-6.111532019E0,1.651591575E1
1.305668354E1,-8.162708373E0,-1.280997831E1,-6.420635719E0,1.649090402E1
1.306666954E1,-8.387412778E0,-1.287921285E1,-6.676376560E0,1.675699319E1
1.307665454E1,-8.495867518E0,-1.293931287E1,-6.890878742E0,1.694372428E1
1.308663954E1,-8.267364178E0,-1.269814914E1,-6.871026860E0,1.663740701E1
1.309662554E1,-8.038186069E0,-1.215269748E1,-6.621869985E0,1.600467598E1
1.310661054E1,-7.808875812E0,-1.217242481E1,-5.905529934E0,1.562119557E1
1.311659654E1,-7.373040730E0,-1.243322349E1,-5.196770214E0,1.536076810E1
1.312658154E1,-6.809680213E0,-1.234546030E1,-4.725136138E0,1.486973591E1
1.313656754E1,-6.218758260E0,-1.244297080E1,-4.314046472E0,1.456404730E1
1.314655254E1,-5.840787808E0,-1.265040195E1,-4.035010909E0,1.450616368E1
1.315653854E1,-5.596163694E0,-1.294718790E1,-3.911674420E0,1.463721010E1
1.316652354E1,-5.453898599E0,-1.354506220E1,-3.881347836E0,1.510889079E1
1.317650954E1,-5.262649623E0,-1.393895988E1,-3.957051737E0,1.541584711E1
1.318649454E1,-4.752824458E0,-1.416927469E1,-3.822584488E0,1.542627102E1
1.319648054E1,-3.972890090E0,-1.437675495E1,-3.256623422E0,1.526697529E1
1.320646554E1,-3.023799574E0,-1.442429749E1,-2.577414653E0,1.496151022E1
1.321645154E1,-1.919755796E0,-1.423397062E1,-1.994661845E0,1.450069163E1
1.322643654E1,-9.883148083E-1,-1.417432434E1,-1.650868369E0,1.430432113E1
1.323642254E1,-5.082645428E-1,-1.413396101E1,-1.794040952E0,1.425642906E1
1.324640754E1,-5.437565571E-1,-1.409178271E1,-2.074654094E0,1.425405909E1
1.325639354E1,-9.646046412E-1,-1.433008130E1,-2.178780726E0,1.452682958E1
1.326637854E1,-1.214888275E0,-1.489294598E1,-2.338362935E0,1.512427633E1
1.327636454E1,-4.506992894E-1,-1.520387985E1,-2.590734025E0,1.542961423E1
1.328634954E1,9.695987481E-1,-1.511545592E1,-2.264412614E0,1.531485207E1
1.329633554E1,2.474432906E0,-1.504650906E1,-1.747897650E0,1.534846570E1
1.330632054E1,3.644844043E0,-1.456487625E1,-1.276953546E0,1.506821551E1
1.331630654E1,4.239847645E0,-1.375445216E1,-5.430478746E-1,1.440333861E1
1.332629154E1,4.378706445E0,-1.297460433E1,-8.554944277E-2,1.369382146E1
1.333627754E1,4.239150949E0,-1.255273357E1,-1.298046792E-1,1.324984415E1
1.334626254E1,3.635479142E0,-1.251951787E1,-1.689997351E-1,1.303777578E1
1.335624854E1,3.353246907E0,-1.251967458E1,-2.478026605E-1,1.296332992E1
1.336623354E1,4.221549076E0,-1.219301286E1,4.172631562E-2,1.290320814E1
1.337621954E1,5.792141898E0,-1.180993954E1,8.222471595E-1,1.317951707E1
1.338620454E1,7.918720436E0,-1.102690147E1,1.692431547E0,1.368075341E1
1.339619054E1,1.004177427E1,-9.855062152E0,2.641510077E0,1.431562280E1
1.340617554E1,1.119920488E1,-8.674200579E0,3.497026139E0,1.459085801E1
1.341616154E1,1.115312064E1,-7.685587270E0,3.512192647E0,1.399270699E1
1.342614654E1,1.077147872E1,-7.208476108E0,2.650647520E0,1.322924087E1
1.343613254E1,1.029365478E1,-6.945183588E0,1.463313079E0,1.250344708E1
1.344611754E1,1.008382979E1,-7.138246955E0,8.298865467E-1,1.238252415E1
1.345610354E1,1.065531910E1,-7.010961841E0,1.123786317E0,1.280438623E1
1.346608854E1,1.153799490E1,-6.464537784E0,2.639502727E0,1.348638386E1
1.347607454E1,1.178517775E1,-6.062601934E0,5.092887411E0,1.419799490E1
1.348605954E1,1.182813491E1,-5.566068660E0,7.288609859E0,1.496695458E1
1.349604454E1,1.106592228E1,-5.761668549E0,8.988409483E0,1.537670203E1
1.350603054E1,9.715959231E0,-5.608709480E0,1.030959780E1,1.523631493E1
1.351601554E1,8.366313100E0,-5.160519816E0,1.186690779E1,1.540940168E1
1.352600154E1,7.110969109E0,-4.930110283E0,1.357956428E1,1.610206307E1
1.353598654E1,6.068055632E0,-4.338015379E0,1.512577859E1,1.686501867E1
1.354597254E1,5.081829157E0,-3.885675653E0,1.660353488E1,1.779328057E1
1.355595754E1,4.259389624E0,-3.508046679E0,1.709599791E1,1.796446314E1
1.356594354E1,3.554616535E0,-2.805504010E0,1.642177067E1,1.703469118E1
1.357592854E1,2.436969064E0,-3.059435138E0,1.584153626E1,1.631726793E1
1.358591454E1,8.543320012E-1,-3.554731725E0,1.502404757E1,1.546247089E1
1.359589954E1,-1.434263527E0,-3.647674972E0,1.379804315E1,1.434394086E1
1.360588554E1,-4.575229901E0,-4.264682524E0,1.307565357E1,1.449458388E1
1.361587054E1,-7.855751771E0,-4.710097684E0,1.269045537E1,1.565073524E1
1.362585654E1,-1.086576039E1,-4.873870593E0,1.239018448E1,1.718534361E1
1.363584154E1,-1.365293046E1,-4.566481297E0,1.244981088E1,1.903294650E1
1.364582754E1,-1.506292103E1,-3.498677685E0,1.267325754E1,1.999359378E1
1.365581254E1,-1.502360669E1,-2.408439622E0,1.236588696E1,1.960674628E1
1.366579854E1,-1.419188938E1,-1.588919750E0,1.127999002E1,1.819814729E1
1.367578354E1,-1.355675780E1,-1.123952085E0,1.008313046E1,1.693276321E1
1.368576954E1,-1.320642538E1,-1.096225612E0,8.786523253E0,1.590013751E1
1.369575454E1,-1.282299655E1,-9.882487348E-1,7.463911723E0,1.486996484E1
1.370574054E1,-1.203842768E1,-7.680721217E-1,6.450569955E0,1.367931024E1
1.371572554E1,-1.072837071E1,-5.066184054E-1,5.692238125E0,1.215549979E1
1.372571154E1,-9.110316913E0,-3.063204253E-1,4.918393047E0,1.035771677E1
1.373569654E1,-7.387629533E0,-1.557696788E-1,3.901992016E0,8.356247722E0
1.374568254E1,-5.872546375E0,-1.232212991E-2,2.806310926E0,6.508635324E0
1.375566754E1,-4.528025621E0,5.036528438E-2,1.790064846E0,4.869279705E0
1.376565354E1,-3.667372780E0,1.413349499E-1,9.759359604E-1,3.797637381E0
1.377563854E1,-3.544545291E0,1.511000924E-1,5.436770350E-1,3.589180586E0
1.378562454E1,-3.836363452E0,1.921358518E-2,2.197757864E-1,3.842701536E0
1.379560954E1,-4.075818920E0,-9.164560363E-2,-1.748732632E-1,4.080597927E0
1.380559554E1,-4.057366569E0,-2.978467865E-1,-4.179882109E-1,4.089700518E0
1.381558054E1,-3.705080597E0,-4.236191527E-1,-5.009946996E-1,3.762721237E0
1.382556654E1,-3.085433612E0,-4.732748774E-1,-4.913327605E-1,3.159952146E0
1.383555154E1,-2.029137321E0,-4.802011967E-1,-4.047249717E-1,2.124098340E0
1.384553754E1,-8.215843776E-1,-5.238250800E-1,-2.158675075E-1,9.979941807E-1
1.385552254E1,3.015938285E-1,-3.716810404E-1,-2.755558848E-2,4.794423256E-1
1.386550904E1,1.373201347E0,-1.870807877E-1,2.455163991E-1,1.407465617E0
1.387549404E1,2.182798055E0,1.068348426E-1,5.382087189E-1,2.250708701E0
1.388548004E1,2.880839244E0,4.489022208E-1,9.240050840E-1,3.058518163E0
1.389546504E1,3.583741516E0,7.607327697E-1,1.432562572E0,3.933720011E0
1.390545104E1,4.231688147E0,1.013838416E0,2.137854894E0,4.848244678E0
1.391543604E1,4.607401282E0,1.143659395E0,3.035380277E0,5.634681606E0
1.392542204E1,4.869778712E0,1.313160675E0,4.032043447E0,6.457283486E0
1.393540704E1,4.909257942E0,1.377104071E0,4.631232778E0,6.888072750E0
1.394539304E1,4.767575229E0,1.114281887E0,4.819890268E0,6.870425015E0
1.395537804E1,4.700955563E0,9.909432779E-1,4.752896379E0,6.758030466E0
1.396536404E1,4.985076449E0,9.100816210E-1,4.827257760E0,6.998689394E0
1.397534904E1,5.433504095E0,8.879562686E-1,5.275715227E0,7.625260929E0
1.398533504E1,5.979138193E0,1.028957050E0,6.561610335E0,8.936642341E0
1.399532004E1,6.545926348E0,1.307733874E0,8.735930804E0,1.099435340E1
1.400530604E1,6.853687527E0,1.453394448E0,1.091385725E1,1.296910437E1
1.401529104E1,6.485203598E0,1.199197199E0,1.222654898E1,1.389188395E1
1.402527704E1,5.683071445E0,5.623117093E-1,1.260695246E1,1.384011365E1
1.403526204E1,4.820567960E0,-8.727455411E-2,1.282232880E1,1.369881776E1
1.404524804E1,3.953643688E0,-6.944153309E-1,1.337441705E1,1.396382980E1
1.405523304E1,2.773930508E0,-1.459495725E0,1.400936386E1,1.435573384E1
1.406521804E1,1.125616495E0,-2.396036362E0,1.418084749E1,1.442582540E1
1.407520404E1,-4.779229023E-1,-3.259684147E0,1.394864287E1,1.433243137E1
1.408518904E1,-1.981828230E0,-4.131210178E0,1.381409843E1,1.455416972E1
1.409517504E1,-3.230981043E0,-5.162862795E0,1.395034207E1,1.522190640E1
1.410516004E1,-4.609470611E0,-6.045618696E0,1.421317792E1,1.611865848E1
1.411514604E1,-6.367116154E0,-6.725169235E0,1.446547943E1,1.717609282E1
1.412513104E1,-7.909191229E0,-7.490132393E0,1.426491876E1,1.794840651E1
1.413511704E1,-9.323953707E0,-8.186486076E0,1.344173839E1,1.829303140E1
1.414510204E1,-1.057163960E1,-9.168593187E0,1.256016888E1,1.880373652E1
1.415508804E1,-1.157611757E1,-1.001913619E1,1.182302912E1,1.934356755E1
1.416507304E1,-1.209007263E1,-1.041612471E1,1.119670578E1,1.949440254E1
1.417505904E1,-1.216461995E1,-1.071501917E1,1.091438584E1,1.954260558E1
1.418504404E1,-1.224553138E1,-1.121164074E1,1.067821797E1,1.974027016E1
1.419503004E1,-1.213804552E1,-1.183295652E1,1.001067176E1,1.968665940E1
1.420501504E1,-1.269843565E1,-1.260564502E1,8.900469114E0,1.998426643E1
1.421500104E1,-1.332945898E1,-1.365369060E1,7.486105415E0,2.049730514E1
1.422498604E1,-1.347136506E1,-1.450046098E1,6.260799156E0,2.075906191E1
1.423497204E1,-1.345164591E1,-1.527859324E1,5.008125588E0,2.096338500E1
1.424495704E1,-1.310911368E1,-1.579344642E1,3.286738045E0,2.078664134E1
1.425494304E1,-1.289915420E1,-1.605404981E1,1.499374613E0,2.064870016E1
1.426492804E1,-1.299762715E1,-1.624086016E1,1.974639809E-1,2.080247203E1
1.427491404E1,-1.298760035E1,-1.611697403E1,-5.058397025E-1,2.070484215E1
1.428489904E1,-1.250004080E1,-1.599019821E1,-6.121900302E-1,2.030547304E1
1.429488504E1,-1.184321605E1,-1.586473801E1,-5.521853185E-1,1.980546862E1
1.430487004E1,-1.086307068E1,-1.560814933E1,-6.298761034E-1,1.902675416E1
1.431485604E1,-9.601349711E0,-1.502117191E1,-9.907612833E-1,1.785505894E1
1.432484104E1,-8.550153068E0,-1.418402370E1,-1.603230226E0,1.663917044E1
1.433482704E1,-7.696355503E0,-1.406735070E1,-2.166501573E0,1.618079024E1
1.434481204E1,-7.037277820E0,-1.406372309E1,-2.939943777E0,1.599858918E1
1.435479804E1,-6.833863712E0,-1.375293890E1,-3.677516822E0,1.579142652E1
1.436478304E1,-7.052364221E0,-1.412275892E1,-3.946488742E0,1.627153754E1
1.437476904E1,-7.523093732E0,-1.439133089E1,-4.334057983E0,1.680748055E1
1.438475404E1,-7.740016662E0,-1.419826752E1,-4.800622523E0,1.686845088E1
1.439474004E1,-7.386334375E0,-1.433654949E1,-4.791633598E0,1.682421883E1
1.440472504E1,-6.652934487E0,-1.458181914E1,-4.513042424E0,1.665108221E1
1.441471104E1,-5.741837132E0,-1.474070436E1,-4.334830400E0,1.640267702E1
1.442469604E1,-4.961458375E0,-1.484348321E1,-4.309607851E0,1.623323082E1
1.443468204E1,-4.052410469E0,-1.500343145E1,-4.342887864E0,1.613646990E1
1.444466704E1,-3.095508950E0,-1.501682859E1,-4.378205631E0,1.594540690E1
1.445465304E1,-2.357115102E0,-1.499024247E1,-4.345912628E0,1.578449612E1
1.446463804E1,-1.622824245E0,-1.486726851E1,-4.356213668E0,1.557709309E1
1.447462404E1,-7.025704426E-1,-1.458413230E1,-4.234566439E0,1.520269953E1
1.448460904E1,4.168997517E-1,-1.417136214E1,-4.021763165E0,1.473688873E1
1.449459504E1,1.403256912E0,-1.368367512E1,-4.169340164E0,1.437343008E1
1.450458004E1,2.064267977E0,-1.347621942E1,-4.615333907E0,1.439343597E1
1.451456604E1,2.159480821E0,-1.371810236E1,-5.181679720E0,1.482226347E1
1.452455104E1,1.652847944E0,-1.416053427E1,-5.777188228E0,1.538273516E1
1.453453704E1,1.004662746E0,-1.449221641E1,-6.293278685E0,1.583158363E1
1.454452204E1,8.353007761E-1,-1.452509530E1,-6.351146239E0,1.587492297E1
1.455450804E1,1.131879740E0,-1.424480200E1,-5.760606694E0,1.540714527E1
1.456449304E1,1.471071165E0,-1.399854300E1,-4.942459018E0,1.491814860E1
1.457447904E1,1.568854737E0,-1.404825837E1,-4.266364768E0,1.476538983E1
1.458446404E1,1.619275570E0,-1.415115416E1,-3.765403397E0,1.473280287E1
1.459445004E1,1.804743696E0,-1.420729796E1,-3.077724059E0,1.464844021E1
1.460443504E1,2.116448530E0,-1.385280934E1,-2.840150517E0,1.429846621E1
1.461442004E1,3.339649207E0,-1.334869983E1,-2.925583016E0,1.406769633E1
1.462440604E1,5.204318969E0,-1.268236634E1,-2.389931869E0,1.391542763E1
1.463439104E1,6.714270025E0,-1.179731306E1,-1.507991654E0,1.365767390E1
1.464437704E1,7.689403163E0,-1.059798131E1,-1.380375588E-1,1.309439510E1
1.465436204E1,8.030761274E0,-9.291927338E0,1.353749707E0,1.235579534E1
1.466434804E1,7.910700395E0,-8.589814147E0,2.161325617E0,1.187583329E1
1.467433304E1,7.843362690E0,-7.953837059E0,2.001676750E0,1.134850528E1
1.468431904E1,8.072552494E0,-7.837881510E0,1.051536950E0,1.130062920E1
1.469430404E1,8.500144172E0,-7.764633440E0,-5.525724041E-1,1.152594116E1
1.470429004E1,9.090086131E0,-7.193136522E0,-8.601675224E-1,1.162371572E1
1.471427504E1,9.347303978E0,-7.235869144E0,8.308449054E-1,1.184990283E1
1.472426104E1,9.076935158E0,-6.947899620E0,2.622285601E0,1.172776376E1
1.473424604E1,9.052308440E0,-6.484749854E0,4.422164998E0,1.198131095E1
1.474423204E1,9.404683875E0,-6.288499171E0,6.312917728E0,1.295554826E1
1.475421704E1,9.736919160E0,-6.337505270E0,7.159457145E0,1.364658911E1
1.476420304E1,9.320429590E0,-6.908064879E0,7.078647455E0,1.359040168E1
1.477418804E1,8.255711846E0,-7.444815302E0,6.705587495E0,1.298256356E1
1.478417404E1,7.429490334E0,-7.109247104E0,6.472393518E0,1.215033328E1
1.479415904E1,7.912095541E0,-6.279792082E0,7.327626575E0,1.247922897E1
1.480414504E1,9.349561003E0,-5.893520923E0,9.185964096E0,1.437114526E1
1.481413004E1,1.002449458E1,-5.841666060E0,1.076201091E1,1.582518350E1
1.482411604E1,8.963941224E0,-6.254340906E0,1.196462178E1,1.620559153E1
1.483410104E1,7.136281121E0,-6.990472612E0,1.275419470E1,1.620070054E1
1.484408704E1,5.305502113E0,-7.670742359E0,1.290381793E1,1.592159409E1
1.485407204E1,3.973136843E0,-7.636914462E0,1.275850878E1,1.539116062E1
1.486405804E1,3.554001408E0,-6.084169389E0,1.253583160E1,1.438037264E1
1.487404342E1,2.382708365E0,-5.843117924E0,1.334455649E1,1.476131817E1
1.488402942E1,5.768494588E-1,-6.309166739E0,1.449183985E1,1.581618672E1
1.489401442E1,-1.640925471E0,-6.412488209E0,1.554990287E1,1.690006275E1
1.490400042E1,-4.666438279E0,-7.016590955E0,1.681341952E1,1.880689423E1
1.491398542E1,-7.345279319E0,-6.960635440E0,1.767652819E1,2.036819145E1
1.492397142E1,-8.812607097E0,-6.527663155E0,1.791036302E1,2.100127457E1
1.493395642E1,-9.873407207E0,-6.220342855E0,1.708979986E1,2.069391443E1
1.494394242E1,-1.038128700E1,-5.603582057E0,1.567004094E1,1.961431708E1
1.495392742E1,-1.071267795E1,-4.596248302E0,1.398856415E1,1.820897840E1
1.496391342E1,-1.240240282E1,-4.135045660E0,1.217244820E1,1.786299789E1
1.497389842E1,-1.456121238E1,-4.101482057E0,1.043363011E1,1.837693387E1
1.498388442E1,-1.644493150E1,-4.049297996E0,9.067403027E0,1.921068411E1
1.499386942E1,-1.767573180E1,-3.879125310E0,8.330228178E0,1.992164173E1
1.500385542E1,-1.760473257E1,-3.256397135E0,8.004523648E0,1.961130108E1
1.501384042E1,-1.626814093E1,-2.536022798E0,7.930638231E0,1.827508806E1
1.502382642E1,-1.409736797E1,-1.947042267E0,7.667201285E0,1.616517036E1
1.503381142E1,-1.135116349E1,-1.462742684E0,6.781635797E0,1.330334969E1
1.504379742E1,-8.777302778E0,-1.168832827E0,5.443132705E0,1.039398422E1
1.505378242E1,-7.569820586E0,-9.786899990E-1,4.258986751E0,8.740651347E0
1.506376842E1,-7.394771322E0,-9.539255789E-1,3.236378315E0,8.128146253E0
1.507375342E1,-7.767844146E0,-1.025873375E0,1.970779477E0,8.079343451E0
1.508373942E1,-8.065421814E0,-1.305333153E0,5.295869994E-1,8.187514035E0
1.509372442E1,-7.888883264E0,-1.708433330E0,-9.442276794E-1,8.126794541E0
1.510371042E1,-7.277402501E0,-1.909613947E0,-2.141224644E0,7.822535111E0
1.511369542E1,-6.410556289E0,-1.824636801E0,-2.865336229E0,7.254976437E0
1.512368142E1,-5.837688199E0,-1.671361690E0,-2.962295929E0,6.756274904E0
1.513366642E1,-5.614037463E0,-1.535282364E0,-2.609503587E0,6.378402429E0
1.514365242E1,-5.412566970E0,-1.431864122E0,-2.229782479E0,6.026445551E0
1.515363742E1,-5.025380137E0,-1.375453694E0,-1.878959481E0,5.538664741E0
1.516362242E1,-4.568750017E0,-1.310657189E0,-1.480218549E0,4.978187013E0
1.517360842E1,-4.254288805E0,-1.174967361E0,-8.874804515E-1,4.501904385E0
1.518359342E1,-3.860992509E0,-1.048224649E0,-3.786241704E-1,4.018630903E0
1.519357942E1,-3.300579574E0,-1.142107251E0,-3.771992040E-1,3.512906736E0
1.520356442E1,-2.836291355E0,-1.073355324E0,-6.406747413E-1,3.099532937E0
1.521355042E1,-2.388812712E0,-8.676407026E-1,-6.681285882E-1,2.627855089E0
1.522353542E1,-1.942573678E0,-6.114385168E-1,-4.784858429E-1,2.091984287E0
1.523352142E1,-1.274981865E0,-3.026646730E-1,-4.035099202E-1,1.371132712E0
1.524350642E1,-7.778960288E-2,2.089899759E-1,-5.270387828E-2,2.291412907E-1
1.525349242E1,1.276546580E0,5.909445741E-1,6.954999894E-1,1.569237680E0
1.526347742E1,2.524005600E0,1.108872262E0,1.704760401E0,3.241359281E0
1.527346342E1,4.029257249E0,1.626410635E0,3.057823645E0,5.313229807E0
1.528344842E1,5.350019889E0,1.906617980E0,4.701834984E0,7.373273164E0
1.529343442E1,6.310713328E0,2.088029892E0,6.250038525E0,9.124031625E0
1.530341942E1,6.814004229E0,2.329809190E0,7.375845054E0,1.030833424E1
1.531340542E1,7.264676621E0,2.596982068E0,8.282011453E0,1.131863755E1
1.532339042E1,7.714333352E0,2.528633671E0,9.299179639E0,1.234421602E1
1.533337642E1,8.092948751E0,2.414077069E0,1.028877937E1,1.331099427E1
1.534336142E1,8.143365199E0,2.525685213E0,1.136742109E1,1.420956526E1
1.535334742E1,8.055982654E0,2.509405103E0,1.254439661E1,1.511813007E1
1.536333242E1,7.833789629E0,2.363269150E0,1.369049180E1,1.594938453E1
1.537331842E1,7.559025457E0,2.109192427E0,1.456520135E1,1.654486775E1
1.538330342E1,7.175172122E0,1.643219626E0,1.508982757E1,1.678946580E1
1.539328942E1,6.406902949E0,1.005776129E0,1.523962505E1,1.656219076E1
1.540327442E1,5.399292036E0,1.591568977E-1,1.509123558E1,1.602882019E1
1.541326042E1,4.312939887E0,-7.984229717E-1,1.504546007E1,1.567178351E1
1.542324542E1,3.437797937E0,-1.836172041E0,1.543003729E1,1.591464839E1
1.543323142E1,2.614335434E0,-2.806576390E0,1.603281272E1,1.648522686E1
1.544321642E1,1.216598586E0,-3.875179608E0,1.653607088E1,1.702758847E1
1.545320242E1,-5.528361136E-1,-5.224246280E0,1.678675738E1,1.758958784E1
1.546318742E1,-2.446319201E0,-6.843188267E0,1.658981147E1,1.811175165E1
1.547317342E1,-4.102465266E0,-8.383777564E0,1.613947880E1,1.864405330E1
1.548315842E1,-5.857313794E0,-9.598702676E0,1.534285998E1,1.902226512E1
1.549314442E1,-7.004365012E0,-1.079940268E1,1.456306010E1,1.943633060E1
1.550312942E1,-7.933153118E0,-1.171337979E1,1.365787487E1,1.966407207E1
1.551311542E1,-8.967278230E0,-1.235666941E1,1.221574099E1,1.955309913E1
1.552310042E1,-9.703153828E0,-1.290489148E1,1.080683332E1,1.942871753E1
1.553308642E1,-1.019526602E1,-1.355821492E1,9.548266933E0,1.946633100E1
1.554307142E1,-1.029433072E1,-1.413802249E1,8.395870190E0,1.939967941E1
1.555305742E1,-1.006043859E1,-1.447545010E1,7.652592602E0,1.921752465E1
1.556304242E1,-9.857170658E0,-1.445337335E1,7.189705961E0,1.891443064E1
1.557302842E1,-1.002635400E1,-1.439407440E1,6.617996789E0,1.874873419E1
1.558301342E1,-1.022927577E1,-1.471319906E1,6.178865047E0,1.895507010E1
1.559299942E1,-1.033877774E1,-1.520195378E1,5.819682868E0,1.928363121E1
1.560298442E1,-1.038158287E1,-1.559902533E1,4.788492766E0,1.934002371E1
1.561297042E1,-1.022700120E1,-1.585506672E1,3.354364602E0,1.916315361E1
1.562295542E1,-1.039552731E1,-1.606967357E1,1.930852642E0,1.923615316E1
1.563294142E1,-1.094539362E1,-1.651958991E1,4.808858326E-1,1.982245554E1
1.564292642E1,-1.143058973E1,-1.677359998E1,-1.391896357E0,2.034574681E1
1.565291242E1,-1.174428817E1,-1.671906534E1,-3.110615231E0,2.066715698E1
1.566289742E1,-1.168036758E1,-1.653357996E1,-4.093012365E0,2.065291755E1
1.567288342E1,-1.144996390E1,-1.640918630E1,-4.409305217E0,2.048914446E1
1.568286842E1,-1.106229935E1,-1.595480502E1,-4.610584506E0,1.995464255E1
1.569285342E1,-1.051183662E1,-1.550763803E1,-4.537390230E0,1.927624072E1
1.570283942E1,-1.014949870E1,-1.546464228E1,-4.215612105E0,1.897205498E1
1.571282442E1,-9.743969148E0,-1.526654212E1,-4.256747852E0,1.860462699E1
1.572281042E1,-9.246691523E0,-1.538729414E1,-4.427174892E0,1.848972695E1
1.573279542E1,-9.132473767E0,-1.599722656E1,-4.750672098E0,1.902320216E1
1.574278142E1,-9.260830675E0,-1.640083413E1,-5.340713460E0,1.957737381E1
1.575276642E1,-9.340303107E0,-1.688224008E1,-5.986847162E0,2.020132746E1
1.576275242E1,-9.147865977E0,-1.723626676E1,-6.689624012E0,2.062821886E1
1.577273742E1,-8.501563876E0,-1.706670687E1,-7.145299866E0,2.036183640E1
1.578272342E1,-7.299618412E0,-1.676564777E1,-6.617747698E0,1.944648962E1
1.579270842E1,-5.798766793E0,-1.655698637E1,-5.448260128E0,1.836962254E1
1.580269442E1,-4.260869554E0,-1.622743846E1,-4.689042445E0,1.742044452E1
1.581267942E1,-3.008744456E0,-1.620034948E1,-4.508900256E0,1.708315100E1
1.582266542E1,-2.186845205E0,-1.615162931E1,-4.791699087E0,1.698875515E1
1.583265042E1,-1.285803307E0,-1.591322430E1,-5.305714951E0,1.682363245E1
1.584263642E1,-7.597272679E-1,-1.590401142E1,-5.408841709E0,1.681577633E1
1.585262142E1,-6.686568841E-1,-1.624232080E1,-5.102483277E0,1.703805806E1
1.586260742E1,-4.934544227E-1,-1.649261671E1,-4.711848341E0,1.715958676E1
1.587259154E1,-1.856888580E-1,-1.684201240E1,-4.282536412E0,1.737895222E1
1.588257754E1,5.862827718E-2,-1.688712601E1,-3.989389763E0,1.735205154E1
1.589256254E1,3.574841470E-1,-1.682452338E1,-3.713871301E0,1.723325918E1
1.590254854E1,4.819181585E-1,-1.698112702E1,-2.996929279E0,1.725029000E1
1.591253354E1,-2.266807634E-1,-1.672049206E1,-1.980254306E0,1.683887306E1
1.592251954E1,-1.051369135E0,-1.643381711E1,-7.409696925E-1,1.648407589E1
1.593250454E1,-1.575679023E0,-1.632175639E1,5.229316986E-1,1.640597311E1
1.594249054E1,-1.191015848E0,-1.581233644E1,1.465776511E0,1.592472929E1
1.595247554E1,1.167952091E-1,-1.520942652E1,2.004399798E0,1.534137917E1
1.596246154E1,1.883559485E0,-1.455674277E1,2.413794941E0,1.487524663E1
1.597244654E1,4.316891727E0,-1.353811687E1,2.923668637E0,1.450737747E1
1.598243254E1,7.035580958E0,-1.262791005E1,3.159409661E0,1.479680307E1
1.599241754E1,9.131646386E0,-1.154650494E1,2.965774437E0,1.501680925E1
1.600240354E1,1.055484874E1,-1.034146162E1,2.722575874E0,1.502541446E1
1.601238854E1,1.077601265E1,-9.131793151E0,2.402410412E0,1.432772385E1
1.602237454E1,1.009264271E1,-7.963742827E0,2.043494282E0,1.301762288E1
1.603235954E1,9.678003200E0,-7.789824414E0,2.185240145E0,1.261429288E1
1.604234554E1,9.652118161E0,-8.018317230E0,2.456694208E0,1.278640460E1
1.605233054E1,1.082913460E1,-8.085437418E0,3.099825949E0,1.386554635E1
1.606231654E1,1.247523340E1,-7.940787243E0,4.628622581E0,1.549553798E1
1.607230154E1,1.347775490E1,-7.274138001E0,6.171105207E0,1.651198050E1
1.608228754E1,1.370770718E1,-5.958900395E0,7.164003355E0,1.657506181E1
1.609227254E1,1.302800461E1,-4.993167826E0,8.053600498E0,1.610965890E1
1.610225854E1,1.224310011E1,-5.142722645E0,9.249059061E0,1.618289807E1
1.611224354E1,1.184267693E1,-5.624225067E0,1.060834842E1,1.686469569E1
1.612222954E1,1.137034119E1,-6.240952536E0,1.251754385E1,1.802562208E1
1.613221454E1,1.102735872E1,-6.108213724E0,1.487402555E1,1.949742423E1
1.614220054E1,1.136788770E1,-3.959575396E0,1.579069823E1,1.985581171E1
1.615218554E1,1.138460372E1,-2.348739112E0,1.591748458E1,1.971020275E1
1.616217154E1,9.906048703E0,-3.017980425E0,1.674866511E1,1.969151568E1
1.617215654E1,7.294489819E0,-3.350522397E0,1.646930737E1,1.832139916E1
1.618214154E1,3.174107807E0,-5.296493307E0,1.560920767E1,1.678615995E1
1.619212754E1,-2.178976315E0,-7.216052930E0,1.501628831E1,1.680203179E1
1.620211254E1,-7.091313694E0,-7.656526024E0,1.475541362E1,1.807294529E1
1.621209854E1,-1.128769197E1,-7.887081152E0,1.492152366E1,2.030443073E1
1.622208354E1,-1.410080730E1,-7.393855648E0,1.499646859E1,2.187226413E1
1.623206954E1,-1.436079439E1,-5.710733453E0,1.454352105E1,2.122166102E1
1.624205454E1,-1.403385083E1,-4.238670600E0,1.306435207E1,1.963651172E1
1.625204054E1,-1.465716051E1,-3.533304896E0,1.094372717E1,1.863013049E1
1.626202554E1,-1.638050804E1,-3.693615961E0,9.014131384E0,1.905828972E1
1.627201154E1,-1.823012853E1,-4.029622408E0,8.100139073E0,2.035160181E1
1.628199654E1,-1.903091641E1,-3.844334376E0,8.368308170E0,2.114197881E1
1.629198254E1,-1.861886780E1,-3.289542369E0,8.983169793E0,2.093276539E1
1.630196754E1,-1.746783171E1,-2.418871640E0,9.167331358E0,1.987501066E1
1.631195354E1,-1.597189994E1,-1.716293011E0,8.774855719E0,1.830424383E1
1.632193854E1,-1.417166152E1,-1.401821421E0,7.698304964E0,1.618842157E1
1.633192454E1,-1.222741904E1,-1.242805660E0,5.976018704E0,1.366627755E1
1.634190954E1,-1.045578170E1,-1.021515957E0,4.134169747E0,1.128973982E1
1.635189554E1,-8.681630051E0,-7.993835230E-1,2.542352993E0,9.081479676E0
1.636188054E1,-6.730482600E0,-5.805316698E-1,1.020775918E0,6.832158995E0
1.637186654E1,-4.547175837E0,-7.354540139E-2,-7.271948218E-1,4.605543326E0
1.638185154E1,-2.949481463E0,2.111675521E-1,-2.148351815E0,3.655057887E0
1.639183754E1,-2.355115793E0,1.903487052E-1,-2.672359402E0,3.567114772E0
1.640182254E1,-2.681198053E0,1.985358486E-1,-2.427236520E0,3.622114935E0
1.641180854E1,-3.424008156E0,1.306375968E-1,-1.586407494E0,3.775921977E0
1.642179354E1,-3.463864532E0,-1.002696985E-2,-9.249587649E-1,3.585248493E0
1.643177954E1,-3.075694198E0,-1.585830118E-1,-7.333244580E-1,3.165881888E0
1.644176454E1,-2.899116179E0,-1.626303997E-1,-3.034166980E-1,2.919483680E0
1.645175054E1,-2.745254885E0,-1.407010112E-1,2.032486314E-1,2.756361944E0
1.646173554E1,-2.430488157E0,-2.979032853E-1,1.192609799E-1,2.451579537E0
1.647172154E1,-2.003103178E0,-5.061202592E-1,-3.449225736E-1,2.094648333E0
1.648170654E1,-1.694267719E0,-6.597999604E-1,-8.757766646E-1,2.018133756E0
1.649169254E1,-9.386691700E-1,-7.276804331E-1,-1.465968300E0,1.886711870E0
1.650167754E1,2.475247715E-1,-6.978583176E-1,-1.938290593E0,2.074908472E0
1.651166354E1,1.128409418E0,-4.820235546E-1,-1.987841653E0,2.336058423E0
1.652164854E1,1.703769883E0,-1.483398594E-1,-1.679447805E0,2.396952535E0
1.653163454E1,2.346382099E0,1.723913943E-1,-1.285009840E0,2.680760720E0
1.654161954E1,2.921737594E0,3.826293670E-1,-7.421034676E-1,3.038695996E0
