"Time (s)","Linear Acceleration x (m/s^2)","Linear Acceleration y (m/s^2)","Linear Acceleration z (m/s^2)","Absolute acceleration (m/s^2)"
1.488083333E-3,-2.470807486E-1,-1.346008578E-1,-1.511569566E-1,3.193974213E-1
1.147308334E-2,-2.239862202E-1,-1.230165003E-1,-2.098156393E-2,2.564041970E-1
2.145908336E-2,-1.259227127E-1,-1.122602548E-1,-5.191742778E-3,1.687775120E-1
3.144408332E-2,-5.271747306E-2,-1.031885920E-1,-1.170682740E-1,1.647179355E-1
4.142908333E-2,-8.341272399E-2,-9.586407736E-2,-2.438382483E-1,2.749630796E-1
5.141508335E-2,-1.769230778E-1,-1.268060808E-1,-3.012918198E-1,3.716965406E-1
6.140008336E-2,-1.723860039E-1,-1.293126360E-1,-3.334965295E-1,3.970624980E-1
7.138608332E-2,-7.716979802E-2,-1.075973926E-1,-3.247952878E-1,3.507482796E-1
8.137108333E-2,-2.750903003E-2,-1.166746102E-1,-3.252425998E-1,3.466301489E-1
9.135608334E-2,2.660256542E-2,-1.207716081E-1,-3.050001240E-1,3.291178412E-1
1.013420834E-1,9.264657386E-2,-1.390250073E-1,-2.781409389E-1,3.244591225E-1
1.113270834E-1,9.596318766E-2,-1.297367053E-1,-2.445650572E-1,2.930061659E-1
1.213120833E-1,9.975861534E-2,-9.359433442E-2,-2.301499164E-1,2.677324500E-1
1.312980833E-1,5.130237378E-2,-1.185737859E-1,-2.745343763E-1,3.034152270E-1
1.412830834E-1,-1.059170491E-1,-2.201432839E-1,-4.398807710E-1,5.031665524E-1
1.512680834E-1,-2.743341822E-1,-2.567051925E-1,-6.455156511E-1,7.468917292E-1
1.612540833E-1,-4.394110204E-1,-2.513396412E-1,-7.933578211E-1,9.411005751E-1
1.712390833E-1,-6.326365739E-1,-3.072648968E-1,-8.619479996E-1,1.112472519E0
1.812250834E-1,-8.501142584E-1,-3.548787738E-1,-8.893240786E-1,1.280441531E0
1.912100834E-1,-9.631070231E-1,-3.467670777E-1,-9.615828001E-1,1.404444383E0
2.011950833E-1,-1.106978641E0,-3.657819307E-1,-9.967666662E-1,1.533865027E0
2.111810833E-1,-1.335429503E0,-4.321161072E-1,-1.060738129E0,1.759335575E0
2.211660834E-1,-1.593121559E0,-5.459887317E-1,-1.186327550E0,2.059978897E0
2.311510834E-1,-1.752074316E0,-7.160118757E-1,-1.381302956E0,2.343167786E0
2.411370833E-1,-1.779763367E0,-8.944393690E-1,-1.639915949E0,2.580097624E0
2.511220833E-1,-1.922876894E0,-9.983708498E-1,-1.955904745E0,2.918863354E0
2.611080834E-1,-2.004802817E0,-1.106153599E0,-2.298295475E0,3.244221356E0
2.710930834E-1,-2.072695569E0,-1.262591322E0,-2.596436230E0,3.554108167E0
2.810780833E-1,-2.067448278E0,-1.375316138E0,-2.876041312E0,3.799664523E0
2.910640833E-1,-1.728324973E0,-1.404767248E0,-3.201909564E0,3.900346534E0
3.010490834E-1,-1.187642443E0,-1.500980404E0,-4.023175560E0,4.455264115E0
3.110340834E-1,-6.479462656E-1,-1.644102702E0,-5.213627152E0,5.504981030E0
3.210200833E-1,4.747749075E-1,-1.532958388E0,-4.312872936E0,4.601765487E0
3.310050833E-1,1.637730991E0,-1.065128876E0,-3.633262755E0,4.125198246E0
3.409900834E-1,2.864121763E0,-7.678493428E-1,-2.893443795E0,4.143042732E0
3.509760834E-1,4.030367928E0,-6.473063609E-1,-1.633020912E0,4.396547334E0
3.609610833E-1,4.844122884E0,-2.481201643E-1,-7.530447775E-1,4.908580912E0
3.709460833E-1,5.320636461E0,1.253924433E-2,-2.599385566E-1,5.326997056E0
3.809320834E-1,5.907390518E0,-4.111323506E-4,4.859503984E-2,5.907590404E0
3.909170834E-1,6.673191581E0,3.133325525E-2,5.158004344E-2,6.673464479E0
4.009030833E-1,7.589856656E0,4.215696305E-2,-1.959752798E-2,7.589999033E0
4.108880833E-1,8.539165565E0,7.674212444E-3,1.353314674E-1,8.540241335E0
4.208730833E-1,9.479369191E0,1.585366909E-1,6.049307120E-1,9.499974490E0
4.308590834E-1,1.041359053E1,3.162805724E-1,1.489810907E0,1.052437350E1
4.408440833E-1,1.088209751E1,3.843161425E-1,2.788562288E0,1.124027690E1
4.508293750E-1,1.081100122E1,6.440186908E-1,4.483970068E0,1.172171041E1
4.608153750E-1,1.074139830E1,8.293225097E-1,6.194586455E0,1.242732130E1
4.708003750E-1,1.041021669E1,1.034044347E0,7.464959545E0,1.285175008E1
4.807863750E-1,1.000093264E1,1.192411359E0,8.522455977E0,1.319366342E1
4.907713750E-1,9.676580572E0,1.190403060E0,9.253199474E0,1.344153903E1
5.007563750E-1,9.466498300E0,1.084863595E0,9.387270867E0,1.337581300E1
5.107423750E-1,9.288035431E0,9.849997294E-1,9.342058441E0,1.321029457E1
5.207273750E-1,8.592982754E0,9.862204818E-1,9.561242489E0,1.289299583E1
5.307123750E-1,7.221238825E0,1.148609940E0,1.014301998E1,1.250385738E1
5.406983750E-1,5.905880182E0,1.203931178E0,1.070719209E1,1.228710029E1
5.506833750E-1,4.571311682E0,1.196198674E0,1.135772524E1,1.230145131E1
5.606693750E-1,3.316343375E0,1.303932014E0,1.280959356E1,1.329601667E1
5.706543750E-1,2.808076200E0,1.446269761E0,1.498740424E1,1.531663390E1
5.806393750E-1,2.515403469E0,1.385986868E0,1.695724582E1,1.719873251E1
5.906253750E-1,2.139424871E0,1.109904588E0,1.797653479E1,1.813738763E1
6.006103750E-1,1.288418474E0,5.882060672E-1,1.820079773E1,1.825582227E1
6.105953750E-1,4.662659297E-2,-9.800094232E-2,1.772332463E1,1.772365690E1
6.205813750E-1,-9.656181099E-1,-4.907066698E-1,1.693881540E1,1.697341092E1
6.305663750E-1,-1.695880235E0,-9.854002637E-1,1.647745722E1,1.659378256E1
6.405513750E-1,-2.339155233E0,-1.779371165E0,1.632370702E1,1.658617556E1
6.505373750E-1,-3.336463059E0,-2.646196912E0,1.624596244E1,1.679480990E1
6.605223750E-1,-4.774924887E0,-3.364672951E0,1.639027406E1,1.740005792E1
6.705083750E-1,-5.884739574E0,-3.988702131E0,1.696345790E1,1.839290104E1
6.804933750E-1,-6.024158245E0,-4.885442818E0,1.699745946E1,1.868345959E1
6.904783750E-1,-5.672188607E0,-5.906027532E0,1.626685103E1,1.821168107E1
7.004643750E-1,-5.501680291E0,-7.002402102E0,1.518064419E1,1.759983179E1
7.104493750E-1,-5.871352374E0,-8.301732357E0,1.398309934E1,1.728926274E1
7.204343750E-1,-6.589572304E0,-9.482475817E0,1.251384607E1,1.702751169E1
7.304203750E-1,-7.111851454E0,-1.026465727E1,1.102097239E1,1.665543312E1
7.404053750E-1,-7.116892923E0,-1.096255403E1,9.821095676E0,1.634875151E1
7.503913750E-1,-6.745644431E0,-1.147655352E1,8.633876426E0,1.586690965E1
7.603763750E-1,-6.221922773E0,-1.180732350E1,7.354450092E0,1.523854151E1
7.703613750E-1,-5.913707850E0,-1.224472680E1,6.104939284E0,1.490555463E1
7.803473750E-1,-6.071335335E0,-1.251594288E1,4.837768130E0,1.472799849E1
7.903323750E-1,-6.138477743E0,-1.238232582E1,3.803993266E0,1.433433872E1
8.003173750E-1,-6.111060149E0,-1.216860775E1,3.246738412E0,1.399862068E1
8.103033750E-1,-6.160965550E0,-1.221418095E1,3.020461106E0,1.400952883E1
8.202883750E-1,-5.955318391E0,-1.256305390E1,2.779655809E0,1.417824484E1
8.302733750E-1,-5.646005360E0,-1.310006920E1,2.243929233E0,1.444037424E1
8.402593750E-1,-5.564365951E0,-1.338642840E1,1.293864278E0,1.455447418E1
8.502443750E-1,-5.797543555E0,-1.348870088E1,7.200670660E-2,1.468202124E1
8.602303750E-1,-6.149793275E0,-1.379344607E1,-1.141011629E0,1.514532995E1
8.702153750E-1,-6.721978995E0,-1.391518744E1,-2.386598371E0,1.563692089E1
8.802003750E-1,-7.083641562E0,-1.386123752E1,-3.688514850E0,1.599740682E1
8.901863750E-1,-6.787933248E0,-1.377915430E1,-4.816747974E0,1.609789403E1
9.001713750E-1,-6.212428064E0,-1.345295452E1,-5.615208660E0,1.584635024E1
9.101563750E-1,-5.603481485E0,-1.306936314E1,-6.074695730E0,1.546315575E1
9.201423750E-1,-5.045777564E0,-1.277107211E1,-6.262560337E0,1.509237609E1
9.301273750E-1,-4.840663963E0,-1.236189799E1,-6.374016454E0,1.472673199E1
9.401133750E-1,-4.890568195E0,-1.191413692E1,-6.519294620E0,1.443487161E1
9.500983750E-1,-5.020277857E0,-1.150132818E1,-6.599942926E0,1.417896281E1
9.600833750E-1,-5.344000765E0,-1.165061227E1,-6.371078812E0,1.431383092E1
9.700693750E-1,-5.948525096E0,-1.201850972E1,-6.240200000E0,1.479086282E1
9.800543750E-1,-6.209014460E0,-1.198483444E1,-6.439655542E0,1.495517571E1
9.900393750E-1,-6.331275061E0,-1.200473602E1,-6.508842722E0,1.505203523E1
1.000025375E0,-6.446119055E0,-1.206247260E1,-6.636270508E0,1.520183483E1
1.010010375E0,-5.948437972E0,-1.184019070E1,-6.819088967E0,1.490214764E1
1.019995375E0,-5.037258756E0,-1.139927672E1,-6.688900711E0,1.414421713E1
1.029981375E0,-4.404494712E0,-1.112489613E1,-6.277069033E0,1.351164251E1
1.039966375E0,-3.681411945E0,-1.133613732E1,-5.844897231E0,1.327492474E1
1.049952375E0,-3.135058055E0,-1.177235832E1,-5.615615627E0,1.341462442E1
1.059937375E0,-3.104290883E0,-1.226061486E1,-5.527983990E0,1.380282238E1
1.069922375E0,-3.310433886E0,-1.268990574E1,-5.436120139E0,1.419662221E1
1.079908375E0,-3.378226504E0,-1.295755619E1,-5.219306552E0,1.437191141E1
1.089893375E0,-3.183757467E0,-1.331973272E1,-4.731130704E0,1.448914039E1
1.099878375E0,-2.910084971E0,-1.361290744E1,-4.242833233E0,1.455271374E1
1.109864375E0,-2.521906157E0,-1.367878802E1,-4.103361352E0,1.450195941E1
1.119849375E0,-1.858169559E0,-1.374797344E1,-4.244027819E0,1.450763041E1
1.129834375E0,-8.882777193E-1,-1.420104144E1,-4.353842330E0,1.488000532E1
1.139820375E0,2.683010982E-1,-1.445585842E1,-4.205030691E0,1.505742711E1
1.149805375E0,1.581592458E0,-1.431340153E1,-3.832020725E0,1.490165363E1
1.159791375E0,2.970283810E0,-1.396002155E1,-3.136198846E0,1.461302606E1
1.169776375E0,3.845100946E0,-1.351968177E1,-2.225008228E0,1.423085585E1
1.179761375E0,4.002905895E0,-1.284068438E1,-1.471667581E0,1.353041893E1
1.189747375E0,4.172232197E0,-1.218949400E1,-9.686655325E-1,1.292012378E1
1.199732375E0,4.618245528E0,-1.207077097E1,-9.866691095E-1,1.296168274E1
1.209717375E0,5.619758964E0,-1.177115496E1,-1.664195343E0,1.314957513E1
1.219703375E0,7.507562358E0,-1.097049689E1,-2.338971630E0,1.349763249E1
1.229688375E0,8.934582354E0,-1.001392282E1,-2.555223885E0,1.366142676E1
1.239674375E0,9.457091299E0,-9.068613986E0,-2.177794300E0,1.328228608E1
1.249659375E0,9.118481964E0,-8.346456540E0,-1.162593702E0,1.241618598E1
1.259644375E0,8.059008588E0,-7.941521069E0,-9.708482981E-2,1.131480454E1
1.269630375E0,7.423449576E0,-7.705332733E0,8.465552044E-1,1.073295914E1
1.279615375E0,7.024695196E0,-8.034604649E0,1.543525769E0,1.078349138E1
1.289600375E0,7.402507188E0,-8.491908953E0,1.458597300E0,1.135945141E1
1.299586375E0,9.115295232E0,-8.438618014E0,1.291379212E0,1.248865651E1
1.309571375E0,1.037242847E1,-8.272212104E0,1.573358847E0,1.336009819E1
1.319556375E0,1.081081060E1,-7.188722459E0,1.609801619E0,1.308215646E1
1.329542375E0,1.088992226E1,-6.088510362E0,1.657743525E0,1.258604302E1
1.339527375E0,1.042694908E1,-5.934991715E0,1.648585031E0,1.211045938E1
1.349513375E0,1.029499262E1,-5.506132361E0,1.450843892E0,1.176474882E1
1.359498375E0,1.054948918E1,-5.709722469E0,2.514757059E0,1.225629045E1
1.369483375E0,1.071939874E1,-6.245849580E0,4.176386644E0,1.309039158E1
1.379469375E0,1.151637891E1,-5.828278860E0,5.578395760E0,1.406109231E1
1.389454375E0,1.243181432E1,-5.759793931E0,7.538840284E0,1.563839334E1
1.399439375E0,1.334313913E1,-5.700876217E0,9.551425014E0,1.737150170E1
1.409425375E0,1.394718808E1,-4.744867860E0,1.069011121E1,1.820209614E1
1.419410375E0,1.343608764E1,-3.791624066E0,1.056237059E1,1.750624279E1
1.429395375E0,1.218710249E1,-2.110321525E0,8.931119633E0,1.525594383E1
1.439381375E0,9.690388187E0,-1.825654801E0,7.646045474E0,1.247792651E1
1.449366333E0,5.979324135E0,-2.986887856E0,7.387258819E0,9.962199006E0
1.459352333E0,1.987323297E0,-3.921179946E0,7.908937460E0,9.048557774E0
1.469337333E0,-2.315556748E0,-4.802036672E0,9.353629496E0,1.076623165E1
1.479322333E0,-6.352663007E0,-5.283318946E0,1.143635275E1,1.410886071E1
1.489308333E0,-8.692237485E0,-4.697723222E0,1.406959135E1,1.719235286E1
1.499293333E0,-8.887480109E0,-2.943712893E0,1.632190608E1,1.881641215E1
1.509278333E0,-8.562881287E0,-9.111676683E-1,1.683657917E1,1.891093759E1
1.519264333E0,-9.360184810E0,-2.392204828E-1,1.615286775E1,1.867044249E1
1.529249333E0,-1.139113389E1,-6.858861436E-1,1.413796635E1,1.816894228E1
1.539235333E0,-1.331900650E1,-9.728464378E-1,1.157735017E1,1.767420157E1
1.549220333E0,-1.357060634E1,-7.835707515E-1,9.708152028E0,1.670399819E1
1.559205333E0,-1.132636077E1,-4.696373977E-3,8.530972447E0,1.417970244E1
1.569191333E0,-7.889452783E0,1.004996111E0,8.151211578E0,1.138840343E1
1.579176333E0,-5.028651654E0,1.690441886E0,8.517495199E0,1.003457302E1
1.589161333E0,-3.308309593E0,2.293300929E0,8.534962587E0,9.436616336E0
1.599147333E0,-2.591687414E0,2.694626184E0,7.325868317E0,8.224731031E0
1.609132333E0,-2.412018118E0,2.456564692E0,5.374383482E0,6.382518257E0
1.619117333E0,-2.129607981E0,2.009742106E0,3.480998921E0,4.548807203E0
1.629103333E0,-1.683503141E0,1.702306617E0,2.094678469E0,3.181148933E0
1.639088333E0,-1.219830780E0,1.323179148E0,1.326701657E0,2.235828141E0
1.649074333E0,-8.796847243E-1,1.254761170E0,6.750107610E-1,1.674488081E0
1.659059333E0,-8.310027802E-1,1.238483837E0,2.528096312E-1,1.512719586E0
1.669044333E0,-1.322401614E0,1.191941681E0,1.173179501E-1,1.784162129E0
1.679030333E0,-2.032729850E0,1.268170151E0,3.492717326E-1,2.421205674E0
1.689015333E0,-2.850650947E0,1.301783455E0,1.166807206E0,3.343993128E0
1.699000333E0,-3.130131191E0,1.347428574E0,2.292131340E0,4.106963734E0
1.708986333E0,-2.503787975E0,1.341523471E0,3.149990966E0,4.241589624E0
1.718971333E0,-1.660834217E0,1.182105568E0,3.319191846E0,3.895225074E0
1.728957333E0,-1.160409328E0,9.579030742E-1,2.958025122E0,3.318740836E0
1.738942333E0,-8.868808195E-1,6.793045907E-1,2.320779773E0,2.575661288E0
1.748927333E0,-6.935116437E-1,4.463832038E-1,1.508519073E0,1.719257444E0
1.758913333E0,-6.214319200E-1,3.307811556E-1,9.687351143E-1,1.197514729E0
1.768898333E0,-6.499971765E-1,2.789600972E-1,8.026437843E-1,1.069837422E0
1.778883333E0,-7.203259514E-1,2.102760709E-1,5.902506924E-1,9.547153409E-1
1.788869333E0,-6.062764487E-1,2.228125378E-1,3.375737929E-1,7.288159060E-1
1.798854333E0,-4.195496368E-1,2.300845007E-1,3.415738732E-1,5.879060180E-1
1.808839333E0,-5.381237881E-1,1.454718550E-1,3.785434788E-1,6.738207753E-1
1.818825333E0,-6.596108761E-1,4.304541092E-2,2.781549722E-1,7.171538216E-1
1.828810333E0,-5.415400969E-1,-6.723018922E-2,6.863637149E-2,5.499968422E-1
1.838796333E0,-4.150395332E-1,-1.464805362E-1,-1.643161154E-1,4.698022428E-1
1.848781333E0,-3.203966468E-1,-1.755524173E-1,-3.833972526E-1,5.295905171E-1
1.858766333E0,-1.089794552E-1,-2.532322022E-1,-6.777145135E-1,7.316420106E-1
1.868752333E0,2.040487132E-1,-3.236658251E-1,-1.008126052E0,1.078291974E0
1.878737333E0,3.799399036E-1,-3.586155466E-1,-1.195208302E0,1.304408803E0
1.888722333E0,4.204799653E-1,-3.947123457E-1,-1.173470108E0,1.307529476E0
1.898708333E0,5.190269279E-1,-4.176600725E-1,-1.038892347E0,1.234149989E0
1.908693333E0,6.807748000E-1,-4.185194670E-1,-9.348171705E-1,1.229835767E0
1.918678333E0,8.954912831E-1,-4.570368672E-1,-1.014339888E0,1.428171119E0
1.928664333E0,1.284413424E0,-5.267591763E-1,-1.221783312E0,1.849310016E0
1.938649333E0,1.777053621E0,-5.687257028E-1,-1.351748790E0,2.304038474E0
1.948635333E0,2.252111680E0,-6.217189452E-1,-1.305037138E0,2.676128435E0
1.958620333E0,2.622853366E0,-6.777050118E-1,-1.161244749E0,2.947394312E0
1.968605333E0,3.083216056E0,-6.749973124E-1,-9.329764670E-1,3.291244097E0
1.978591333E0,3.723615393E0,-5.364844115E-1,-5.611426681E-1,3.803683506E0
1.988576333E0,4.593820246E0,-3.176417677E-1,-1.832371205E-1,4.608433203E0
1.998561333E0,5.912502739E0,1.653661657E-1,3.818816543E-2,5.914938118E0
2.008547333E0,7.755739240E0,7.347061551E-1,4.585146779E-1,7.803942594E0
2.018532333E0,9.593182905E0,1.365126927E0,1.438471768E0,9.796016068E0
2.028518333E0,1.096665059E1,2.182825245E0,2.977619142E0,1.157144619E1
2.038503333E0,1.165200508E1,2.653132879E0,4.827057200E0,1.288832098E1
2.048488333E0,1.162145571E1,2.929800028E0,6.264926705E0,1.352372980E1
2.058474333E0,1.119623684E1,2.941570473E0,7.131976985E0,1.359682507E1
2.068459333E0,1.073232226E1,2.673224790E0,7.514165034E0,1.337129567E1
2.078444333E0,1.026164829E1,2.535724590E0,7.810820596E0,1.314306826E1
2.088430333E0,9.852734960E0,2.614350929E0,8.300327856E0,1.314559468E1
2.098415333E0,9.230962513E0,2.589305258E0,8.883798702E0,1.307046480E1
2.108400333E0,8.414671912E0,2.532985169E0,9.576644640E0,1.299749360E1
2.118386333E0,7.930883229E0,2.467552195E0,1.077518118E1,1.360486134E1
2.128371333E0,7.965457816E0,2.201325543E0,1.263252818E1,1.509553313E1
2.138357333E0,7.287216468E0,2.081985918E0,1.519315957E1,1.697852428E1
2.148342333E0,6.312635892E0,1.992595731E0,1.774690060E1,1.894128535E1
2.158327333E0,5.437099548E0,1.712338247E0,1.928563165E1,2.011043863E1
2.168313333E0,4.167946188E0,8.698696612E-1,1.979046973E1,2.024329866E1
2.178298333E0,2.754582363E0,-4.360207682E-1,1.929232905E1,1.949286532E1
2.188283333E0,1.726517891E0,-1.803640326E0,1.846409551E1,1.863214442E1
2.198269333E0,1.114872382E0,-3.019247809E0,1.787544579E1,1.816288413E1
2.208254333E0,5.771312946E-1,-3.987956026E0,1.759922332E1,1.805462642E1
2.218240333E0,-9.169515878E-2,-5.294347379E0,1.736659769E1,1.815591467E1
2.228225333E0,-1.213740613E0,-6.908118088E0,1.674808039E1,1.815746289E1
2.238210333E0,-2.436658285E0,-8.155827370E0,1.544411973E1,1.763450191E1
2.248196333E0,-3.156076456E0,-9.091630965E0,1.392077855E1,1.692355304E1
2.258181333E0,-3.603972298E0,-9.883693628E0,1.257284097E1,1.639366787E1
2.268166333E0,-3.085065530E0,-1.028508510E1,1.194187144E1,1.605954228E1
2.278152333E0,-2.999627477E0,-1.106111938E1,1.144169710E1,1.619439902E1
2.288137333E0,-3.726335226E0,-1.228946034E1,1.003690003E1,1.629895003E1
2.298123333E0,-4.974218754E0,-1.355928847E1,8.082254779E0,1.655052864E1
2.308108333E0,-6.414399079E0,-1.475221753E1,6.077573145E0,1.719620112E1
2.318093333E0,-7.458934574E0,-1.541954037E1,3.670906545E0,1.751780480E1
2.328079333E0,-8.538492551E0,-1.552830911E1,1.215564213E0,1.776265282E1
2.338064333E0,-9.429266739E0,-1.557774965E1,-6.545010674E-1,1.822102432E1
2.348049333E0,-1.022879630E1,-1.505259133E1,-2.182070954E0,1.832949026E1
2.358035333E0,-1.101261672E1,-1.437992882E1,-3.125254905E0,1.838007884E1
2.368020333E0,-1.151969311E1,-1.406950481E1,-3.287440880E0,1.847867860E1
2.378005333E0,-1.169791625E1,-1.383495428E1,-3.335468155E0,1.842206699E1
2.387991333E0,-1.188906874E1,-1.342580589E1,-3.415294343E0,1.825558695E1
2.397976333E0,-1.204056893E1,-1.320433441E1,-3.056582866E0,1.812932559E1
2.407962333E0,-1.196412594E1,-1.316767237E1,-2.755523765E0,1.800335570E1
2.417947333E0,-1.180003202E1,-1.302592183E1,-2.739026431E0,1.778813259E1
2.427932333E0,-1.156440443E1,-1.342284369E1,-2.572778688E0,1.790327827E1
2.437918333E0,-1.119533987E1,-1.398636209E1,-2.621515815E0,1.810597427E1
2.447903458E0,-1.117590256E1,-1.428936597E1,-3.110658793E0,1.840551483E1
2.457888458E0,-1.131271103E1,-1.476011712E1,-4.229556253E0,1.907164477E1
2.467874458E0,-1.119000137E1,-1.561002161E1,-5.212171780E0,1.990114669E1
2.477859458E0,-1.092156739E1,-1.632522379E1,-5.789101930E0,2.047699361E1
2.487844458E0,-1.056508604E1,-1.660639885E1,-6.073797598E0,2.059816844E1
2.497830458E0,-9.909758177E0,-1.663838312E1,-5.913471622E0,2.024866036E1
2.507815458E0,-8.699369334E0,-1.641882251E1,-5.357079232E0,1.933791760E1
2.517801458E0,-7.013356860E0,-1.610515798E1,-4.616456864E0,1.816246024E1
2.527786458E0,-5.464348158E0,-1.623775997E1,-3.788961829E0,1.754651479E1
2.537771458E0,-4.237660786E0,-1.678572009E1,-3.371601317E0,1.763762635E1
2.547757458E0,-2.968830192E0,-1.744417504E1,-3.458786518E0,1.802987520E1
2.557742458E0,-1.266435867E0,-1.796533153E1,-3.984034299E0,1.844531176E1
2.567727458E0,9.128312011E-1,-1.805493894E1,-4.668495330E0,1.867107199E1
2.577713458E0,2.763927383E0,-1.780474360E1,-4.875311347E0,1.866592751E1
2.587698458E0,4.317458323E0,-1.716104000E1,-4.766646692E0,1.832655616E1
2.597684458E0,5.514714319E0,-1.650035842E1,-4.547343360E0,1.798199749E1
2.607669458E0,5.905193719E0,-1.602297069E1,-4.564396765E0,1.767598994E1
2.617654458E0,6.188817008E0,-1.567665881E1,-5.175108619E0,1.763067885E1
2.627640458E0,6.705570538E0,-1.516264412E1,-5.980736237E0,1.762497259E1
2.637625458E0,6.919970394E0,-1.489247586E1,-6.213417413E0,1.755785817E1
2.647610458E0,6.677498056E0,-1.491973207E1,-6.134786981E0,1.745918087E1
2.657596458E0,6.456424187E0,-1.461677262E1,-5.761730529E0,1.698625897E1
2.667581458E0,5.982844158E0,-1.411380800E1,-4.871169764E0,1.608484676E1
2.677566458E0,5.513544291E0,-1.355191162E1,-4.019795285E0,1.517274640E1
2.687552458E0,5.346049629E0,-1.313676633E1,-3.983388474E0,1.473167540E1
2.697537458E0,5.648440726E0,-1.270548272E1,-4.609919677E0,1.464873828E1
2.707523458E0,6.729714861E0,-1.198304051E1,-4.891843180E0,1.458809281E1
2.717508458E0,7.208903539E0,-1.127407146E1,-4.670765803E0,1.417353276E1
2.727493458E0,6.760921451E0,-1.090259668E1,-4.654760220E0,1.364710468E1
2.737479458E0,6.379106455E0,-1.116117927E1,-4.561852641E0,1.364094650E1
2.747464458E0,5.796339029E0,-1.116332169E1,-4.011269460E0,1.320255960E1
2.757449458E0,4.999503869E0,-1.115799137E1,-3.358996181E0,1.267985275E1
2.767435458E0,5.029475527E0,-1.109056596E1,-3.058739319E0,1.255596127E1
2.777420458E0,5.687388445E0,-1.071255984E1,-2.556827776E0,1.239526901E1
2.787405458E0,6.692520137E0,-1.030221394E1,-1.674728517E0,1.239879645E1
2.797391458E0,8.725790563E0,-1.004644152E1,-3.256840646E-1,1.331076550E1
2.807376458E0,1.042764490E1,-1.000686756E1,1.715882975E0,1.455394898E1
2.817362458E0,1.074661753E1,-9.820812671E0,3.772307205E0,1.503889795E1
2.827347458E0,1.106506742E1,-9.020806566E0,5.549919820E0,1.531705840E1
2.837332458E0,1.112451138E1,-7.706179994E0,6.949752603E0,1.521312015E1
2.847318458E0,1.075373008E1,-6.353914311E0,7.734106881E0,1.469119964E1
2.857303458E0,1.071876841E1,-5.722444841E0,9.076073279E0,1.516619522E1
2.867288458E0,1.042505224E1,-5.748698255E0,1.126977025E1,1.639319882E1
2.877274458E0,1.010952362E1,-5.418145798E0,1.372126570E1,1.788384478E1
2.887259458E0,9.599514270E0,-5.502377864E0,1.649158526E1,1.985948692E1
2.897245458E0,9.289799536E0,-5.574857025E0,1.860255641E1,2.152752915E1
2.907230458E0,9.225972499E0,-5.088614851E0,1.957306440E1,2.222875209E1
2.917215458E0,9.330043582E0,-4.143315669E0,1.923216822E1,2.177367843E1
2.927201458E0,9.020950407E0,-2.468715498E0,1.765856788E1,1.998242033E1
2.937186458E0,7.786292696E0,-1.794104395E0,1.644057766E1,1.827943539E1
2.947171458E0,6.259122174E0,-1.533688121E0,1.536990686E1,1.666621873E1
2.957157458E0,4.140450826E0,-2.039753818E0,1.462079200E1,1.533204120E1
2.967142458E0,1.532578319E0,-2.804905548E0,1.449025876E1,1.483859462E1
2.977127458E0,-1.342368101E0,-3.392876996E0,1.458084616E1,1.503045712E1
2.987113458E0,-4.454143713E0,-3.484859545E0,1.462591182E1,1.568122887E1
2.997098458E0,-7.305079127E0,-2.843284332E0,1.449665327E1,1.648033382E1
3.007084458E0,-9.439814531E0,-1.838258182E0,1.347490847E1,1.655483162E1
3.017069458E0,-1.127854809E1,-8.613452978E-1,1.152559646E1,1.614889893E1
3.027054458E0,-1.290514291E1,-2.903260978E-1,9.127408909E0,1.580938317E1
3.037040458E0,-1.359102131E1,6.969150156E-3,6.443953831E0,1.504129149E1
3.047025458E0,-1.348824597E1,1.886042798E-1,4.353366074E0,1.417463040E1
3.057010458E0,-1.291198883E1,5.325143348E-1,3.578888327E0,1.340937988E1
3.066996458E0,-1.203945094E1,1.108428020E0,3.860386738E0,1.269171294E1
3.076981458E0,-1.084930399E1,1.663224997E0,4.345543669E0,1.180497625E1
3.086967458E0,-9.426987494E0,2.012437527E0,4.445241035E0,1.061499721E1
3.096952458E0,-8.108016441E0,2.174714572E0,4.098055004E0,9.341486439E0
3.106937458E0,-7.095538892E0,2.081895286E0,3.513147497E0,8.186767706E0
3.116923458E0,-6.389190563E0,1.742895065E0,2.765315512E0,7.176796579E0
3.126908458E0,-5.788052940E0,1.483910189E0,1.871761558E0,6.261552333E0
3.136893458E0,-5.104920981E0,1.266284131E0,8.910414058E-1,5.334571071E0
3.146879458E0,-4.338042276E0,1.098439587E0,-4.199938059E-2,4.475147401E0
3.156864458E0,-3.386018504E0,9.564827125E-1,-5.539342207E-1,3.561856764E0
3.166849458E0,-2.435090500E0,8.972196469E-1,-7.379080904E-1,2.697995031E0
3.176835458E0,-1.852149266E0,9.516840488E-1,-7.943822533E-1,2.228722189E0
3.186820458E0,-1.726966664E0,8.949664955E-1,-5.380590302E-1,2.018139343E0
3.196806458E0,-1.811043632E0,7.489139389E-1,-1.892942512E-1,1.968904121E0
3.206791458E0,-1.946612058E0,5.254483036E-1,-4.557787657E-2,2.016797404E0
3.216776458E0,-2.091660721E0,2.417919420E-1,-1.204526424E-2,2.105624136E0
3.226762458E0,-2.150620681E0,7.350300908E-2,1.054463482E-1,2.154458386E0
3.236747458E0,-1.909627396E0,5.746691052E-2,1.506833321E-1,1.916424980E0
3.246732458E0,-1.478144542E0,-7.456588671E-3,1.529467893E-1,1.486055049E0
3.256718458E0,-1.145668498E0,-3.068490867E-2,1.107684839E-1,1.151419788E0
3.266703458E0,-7.142014316E-1,-6.775899678E-3,-3.211700141E-2,7.149553129E-1
3.276688458E0,-2.744355583E-1,-2.779799212E-2,-1.941293138E-1,3.373037126E-1
3.286674458E0,7.310189009E-3,-1.878882151E-2,-3.196608478E-1,3.202959823E-1
3.296659458E0,1.760671185E-1,-7.132652923E-3,-4.242301136E-1,4.593709767E-1
3.306645458E0,2.621212491E-1,1.448446680E-2,-4.713376218E-1,5.395150626E-1
3.316630458E0,3.954448557E-1,3.381576374E-2,-5.534629351E-1,6.810589991E-1
3.326615458E0,5.698008596E-1,8.416756298E-3,-7.082229459E-1,9.090234334E-1
3.336601458E0,7.791849744E-1,-5.046925519E-2,-9.395195013E-1,1.221627301E0
3.346586458E0,1.010399157E0,-1.260992621E-1,-1.215830846E0,1.585891588E0
3.356571458E0,1.239333145E0,-2.106828727E-1,-1.484915033E0,1.945586434E0
3.366557458E0,1.624391592E0,-2.459561829E-1,-1.697083592E0,2.362040475E0
3.376542458E0,1.956527766E0,-2.985465521E-1,-1.723300753E0,2.624289700E0
3.386528458E0,2.189216544E0,-2.771214403E-1,-1.620351166E0,2.737700361E0
3.396513458E0,2.495941304E0,-2.223483786E-1,-1.526130302E0,2.933979464E0
3.406498458E0,2.763378622E0,-1.899383951E-1,-1.391998098E0,3.099999469E0
3.416484458E0,2.925353805E0,-1.735066228E-1,-1.221098603E0,3.174725379E0
3.426469458E0,3.230430820E0,-1.270933618E-1,-9.419291389E-1,3.367353042E0
3.436454458E0,3.932751586E0,6.433227260E-2,-7.324479604E-1,4.000894112E0
3.446440458E0,4.758267632E0,3.059483962E-1,-4.659418112E-1,4.790805469E0
3.456425500E0,5.635386817E0,5.649155109E-1,-7.625938654E-3,5.663635958E0
3.466410500E0,6.358806092E0,8.108575143E-1,6.025339383E-1,6.438552008E0
3.476396500E0,6.701426616E0,1.214439355E0,1.192530277E0,6.914196273E0
3.486381500E0,7.232843794E0,1.578800266E0,1.953277591E0,7.656496130E0
3.496367500E0,8.209304835E0,1.712077753E0,3.003483131E0,8.907570208E0
3.506352500E0,8.826186671E0,1.712170431E0,4.282365673E0,9.958501619E0
3.516337500E0,9.139230224E0,1.573825894E0,5.773139032E0,1.092390000E1
3.526323500E0,9.002815853E0,1.695502943E0,7.134643900E0,1.161157040E1
3.536308500E0,8.095620929E0,1.800177751E0,8.376278509E0,1.178735593E1
3.546293500E0,6.685133350E0,1.736783555E0,9.306529005E0,1.158960341E1
3.556279500E0,5.275868424E0,1.562075329E0,9.910828217E0,1.133575683E1
3.566264500E0,4.173336736E0,1.145424230E0,1.030731856E1,1.117897813E1
3.576250500E0,3.356132800E0,6.982225992E-1,1.060890741E1,1.114899362E1
3.586235500E0,3.704638840E0,4.273307459E-1,1.079833732E1,1.142414327E1
3.596220500E0,5.669310023E0,2.472579923E-1,1.108527773E1,1.245333671E1
3.606206500E0,6.990707086E0,-3.999437034E-2,1.194789875E1,1.384282737E1
3.616191500E0,7.188855191E0,-2.703563945E-1,1.283573296E1,1.471423705E1
3.626176500E0,6.002197273E0,-5.874416900E-1,1.381033751E1,1.506973397E1
3.636162500E0,4.451520944E0,-1.086101523E0,1.464236238E1,1.534256925E1
3.646147500E0,2.898727339E0,-1.725320089E0,1.506605046E1,1.543908112E1
3.656132500E0,1.305534444E0,-2.416708608E0,1.476267586E1,1.501604139E1
3.666118500E0,4.488176554E-2,-3.204390537E0,1.403637917E1,1.439757178E1
3.676103500E0,-9.353717789E-1,-3.947292734E0,1.312182435E1,1.373456642E1
3.686089500E0,-1.802740147E0,-4.286645543E0,1.187890394E1,1.275670651E1
3.696074500E0,-1.961515734E0,-4.744989482E0,1.074065922E1,1.190479859E1
3.706059500E0,-1.847748067E0,-5.391256793E0,1.002995003E1,1.153601839E1
3.716045500E0,-2.444696452E0,-6.147303531E0,9.392093650E0,1.148813756E1
3.726030500E0,-3.682598930E0,-6.867498066E0,8.469456815E0,1.150894275E1
3.736015500E0,-5.058817440E0,-7.261794528E0,8.065497243E0,1.197403605E1
3.746001500E0,-6.611482406E0,-7.346521268E0,8.952231590E0,1.333512373E1
3.755986500E0,-8.198430183E0,-7.202066975E0,1.047360869E1,1.512549190E1
3.765971500E0,-8.868883039E0,-6.928083991E0,1.129634234E1,1.594561960E1
3.775957500E0,-8.972215034E0,-7.396964028E0,1.092247020E1,1.595355994E1
3.785942500E0,-9.232756439E0,-8.577575340E0,9.380099841E0,1.571002429E1
3.795928500E0,-9.362700866E0,-9.899327914E0,7.107877686E0,1.536810938E1
3.805913500E0,-9.354687842E0,-1.115538819E1,4.757956560E0,1.531636448E1
3.815898500E0,-1.001696220E1,-1.194889862E1,2.473065827E0,1.578707587E1
3.825884500E0,-1.069663553E1,-1.235869138E1,6.174876076E-1,1.635654472E1
3.835869500E0,-1.109616408E1,-1.217247393E1,-6.105077863E-1,1.648231472E1
3.845854500E0,-1.137502481E1,-1.175678835E1,-1.227527032E0,1.640487990E1
3.855840500E0,-1.133909835E1,-1.106313316E1,-1.492429875E0,1.591211531E1
3.865825500E0,-1.113237823E1,-1.053044713E1,-1.254841130E0,1.537513538E1
3.875811500E0,-1.038955847E1,-1.035711812E1,-9.248710567E-1,1.469925874E1
3.885796500E0,-9.629904004E0,-1.018523805E1,-1.140049762E0,1.406320869E1
3.895781500E0,-9.121228402E0,-9.935815709E0,-1.828285171E0,1.361102009E1
3.905767500E0,-8.506202472E0,-9.850893087E0,-2.503922753E0,1.325387507E1
3.915752500E0,-8.342949380E0,-9.582728668E0,-3.397419405E0,1.315203223E1
3.925737500E0,-8.276327959E0,-9.199926662E0,-4.435850991E0,1.314583695E1
3.935723500E0,-8.084678450E0,-9.955686886E0,-4.799226208E0,1.369344001E1
3.945708500E0,-7.843321760E0,-1.090285396E1,-5.482607843E0,1.450685733E1
3.955693500E0,-7.691694102E0,-1.172421234E1,-6.675977780E0,1.553022835E1
3.965679500E0,-7.663414629E0,-1.257951732E1,-7.689782647E0,1.661640566E1
3.975664500E0,-7.430372095E0,-1.298889726E1,-8.123274166E0,1.702672795E1
3.985650500E0,-7.185389546E0,-1.317383534E1,-7.697214459E0,1.686495985E1
3.995635500E0,-6.814853244E0,-1.364605881E1,-6.594304456E0,1.661752079E1
4.005620500E0,-6.139033813E0,-1.369393815E1,-5.593285110E0,1.601550863E1
4.015606500E0,-5.540208764E0,-1.368325529E1,-4.702532557E0,1.549319854E1
4.025591500E0,-5.351285226E0,-1.379035874E1,-4.062222974E0,1.533987950E1
4.035576500E0,-5.489547318E0,-1.418563870E1,-3.665789062E0,1.564626104E1
4.045562500E0,-5.576265619E0,-1.466190494E1,-3.585519362E0,1.609105789E1
4.055547500E0,-5.634340750E0,-1.529547181E1,-3.791705635E0,1.673542008E1
4.065533500E0,-5.357040641E0,-1.591258929E1,-4.157642517E0,1.729723601E1
4.075518500E0,-3.979812609E0,-1.634373490E1,-4.631438016E0,1.744725758E1
4.085503500E0,-1.553918317E0,-1.652153470E1,-4.958766317E0,1.731950156E1
4.095489500E0,1.029640517E0,-1.641566501E1,-4.822758035E0,1.714039709E1
4.105474500E0,3.489637012E0,-1.620705156E1,-4.450136324E0,1.716536629E1
4.115459500E0,5.009794968E0,-1.606646228E1,-3.977854961E0,1.729313696E1
4.125445500E0,4.801779687E0,-1.610254661E1,-3.978498447E0,1.726781820E1
4.135430500E0,3.841970347E0,-1.569142654E1,-4.653630538E0,1.681183750E1
4.145415500E0,2.862789474E0,-1.561086127E1,-4.800198015E0,1.658120786E1
4.155401500E0,2.375974858E0,-1.590349921E1,-4.211695932E0,1.662242239E1
4.165386500E0,2.776764653E0,-1.577842609E1,-3.698619716E0,1.644229120E1
4.175372500E0,4.316587088E0,-1.551822032E1,-3.326315508E0,1.644726302E1
4.185357500E0,6.564093647E0,-1.474803677E1,-3.070990405E0,1.643237341E1
4.195342500E0,8.201601713E0,-1.328206379E1,-2.425568309E0,1.579755901E1
4.205328500E0,8.973177486E0,-1.204438131E1,-1.853179691E0,1.513338397E1
4.215313500E0,8.594718792E0,-1.145466506E1,-1.801145904E0,1.443338731E1
4.225298500E0,7.746186644E0,-1.116632365E1,-1.885009595E0,1.372018413E1
4.235284500E0,6.962780199E0,-1.101116778E1,-1.349953110E0,1.309765236E1
4.245269500E0,6.861835037E0,-1.058180557E1,-3.886989230E-1,1.261786337E1
4.255254500E0,8.390755046E0,-9.803861593E0,6.425511128E-1,1.292026874E1
4.265240500E0,1.066341048E1,-8.758999824E0,1.164596958E0,1.384863484E1
4.275225500E0,1.249118227E1,-7.329443305E0,9.473296273E-1,1.451371100E1
4.285211500E0,1.384928347E1,-6.081346353E0,8.067754269E-1,1.514715527E1
4.295196500E0,1.396116760E1,-4.880499582E0,1.157585562E0,1.483487382E1
4.305181500E0,1.264441440E1,-4.356985500E0,2.066878467E0,1.353279442E1
4.315167500E0,1.148864557E1,-4.555361062E0,2.629729106E0,1.263549629E1
4.325152500E0,1.127189279E1,-4.637529353E0,2.178522279E0,1.238176905E1
4.335137500E0,1.145077549E1,-4.862833389E0,1.106822959E0,1.248969435E1
4.345123500E0,1.233252392E1,-5.196712326E0,4.201107502E-2,1.338277737E1
4.355108500E0,1.371446071E1,-4.342816820E0,-5.002854323E-1,1.439433138E1
4.365094500E0,1.385140601E1,-2.962345045E0,-3.926697671E-2,1.416469126E1
4.375079500E0,1.271668715E1,-2.792918171E0,1.976173534E0,1.316889463E1
4.385064500E0,1.088759624E1,-3.162547862E0,4.907403790E0,1.235411157E1
4.395050500E0,9.550540915E0,-3.828413578E0,7.475543005E0,1.271822808E1
4.405035500E0,9.129370649E0,-5.243632139E0,8.929301734E0,1.380483669E1
4.415020500E0,8.916376464E0,-6.926013492E0,9.253965459E0,1.459819540E1
4.425006500E0,7.996541029E0,-7.652846956E0,8.698523827E0,1.407746610E1
4.434991500E0,5.905462106E0,-6.983071207E0,7.793222816E0,1.201549367E1
4.444976500E0,1.798890341E0,-5.593511397E0,7.605374581E0,9.610676289E0
4.454962458E0,-2.204360248E0,-4.270365140E0,8.552575570E0,9.810289058E0
4.464947458E0,-4.636575379E0,-3.507597320E0,1.015903784E1,1.170500406E1
4.474933458E0,-5.732799675E0,-3.417870334E0,1.178612500E1,1.354472489E1
4.484918458E0,-6.352123893E0,-3.320434671E0,1.361102463E1,1.538293717E1
4.494903458E0,-7.538016996E0,-3.342327524E0,1.547031291E1,1.753064275E1
4.504889458E0,-9.983102142E0,-3.141562497E0,1.700109994E1,1.996419651E1
4.514874458E0,-1.242267161E1,-2.140227986E0,1.816826265E1,2.211309824E1
4.524859458E0,-1.341076919E1,-1.453679499E0,1.844021899E1,2.284739790E1
4.534845458E0,-1.261541455E1,-7.422345183E-1,1.732124669E1,2.144120293E1
4.544830458E0,-1.125356528E1,1.903288429E-1,1.543229432E1,1.910064565E1
4.554816458E0,-1.086541775E1,2.421499378E-1,1.344209624E1,1.728600274E1
4.564801458E0,-1.069217644E1,6.296976171E-2,1.079768711E1,1.519594187E1
4.574786458E0,-1.011896921E1,-1.035011257E-1,8.000189692E0,1.289989479E1
4.584772458E0,-9.063379558E0,-1.274994144E-1,5.743401262E0,1.073069258E1
4.594757458E0,-8.003736613E0,2.671053426E-1,4.116987119E0,9.004483770E0
4.604742458E0,-6.720202610E0,5.844525202E-1,3.288583426E0,7.504497906E0
4.614728458E0,-5.324075793E0,8.963157405E-1,2.927887988E0,6.141798843E0
4.624713458E0,-3.996245624E0,1.243677334E0,2.612911929E0,4.933966067E0
4.634698458E0,-2.842156405E0,1.508565558E0,2.268720843E0,3.937095037E0
4.644684458E0,-2.187866129E0,1.441760973E0,2.052144653E0,3.328172258E0
4.654669458E0,-2.143372473E0,1.140628563E0,1.849293047E0,3.052042570E0
4.664655458E0,-2.334077511E0,7.894170901E-1,1.486746966E0,2.877761927E0
4.674640458E0,-2.503505554E0,4.066200542E-1,1.081908558E0,2.757427435E0
4.684625458E0,-2.614440976E0,2.362701970E-1,5.644288033E-1,2.685089402E0
4.694611458E0,-2.663725988E0,1.174408147E-1,-3.991309404E-3,2.666316638E0
4.704596458E0,-2.627064530E0,-2.165527280E-2,-5.429537344E-1,2.682673248E0
4.714581458E0,-2.302849140E0,-1.039658515E-1,-9.750682336E-1,2.502934502E0
4.724567458E0,-1.633586923E0,-9.376145516E-2,-1.311537488E0,2.097028380E0
4.734552458E0,-1.195981157E0,-7.789872654E-2,-1.334573763E0,1.793746434E0
4.744537458E0,-9.053818484E-1,1.080569107E-2,-1.000527011E0,1.349402591E0
4.754523458E0,-6.515618183E-1,1.004822814E-1,-7.770078367E-1,1.019004745E0
4.764508458E0,-5.300582850E-1,8.568955667E-2,-7.993184727E-1,9.629197820E-1
4.774494458E0,-5.432762083E-1,5.190591607E-3,-9.819884133E-1,1.122264329E0
4.784479458E0,-7.312842914E-1,-2.136478496E-1,-1.124455823E0,1.358242620E0
4.794464458E0,-9.160142791E-1,-3.320421077E-1,-1.316940899E0,1.638190298E0
4.804450458E0,-9.867360601E-1,-4.856062898E-1,-1.539823896E0,1.892225978E0
4.814435458E0,-7.782373600E-1,-6.065039054E-1,-1.840667819E0,2.088434437E0
4.824420458E0,-3.813605212E-1,-6.722618388E-1,-1.994677048E0,2.139184039E0
4.834406458E0,-1.629450895E-2,-6.686857548E-1,-1.941101350E0,2.053114853E0
4.844391458E0,5.861560334E-1,-6.378978255E-1,-1.920177088E0,2.106554671E0
4.854377458E0,1.728500389E0,-7.108064651E-1,-2.060522543E0,2.781854162E0
4.864362458E0,2.241711384E0,-7.531718083E-1,-2.084839944E0,3.152633073E0
4.874347458E0,1.933547916E0,-7.034533721E-1,-1.845536796E0,2.763957354E0
4.884333458E0,1.638790652E0,-7.036239646E-1,-1.430634161E0,2.286358587E0
4.894318458E0,1.683694345E0,-6.978194337E-1,-1.206196389E0,2.185563620E0
4.904303458E0,2.075231799E0,-5.358962913E-1,-1.165730149E0,2.439815287E0
4.914289458E0,3.172075607E0,-3.328929872E-1,-1.191833873E0,3.404900789E0
4.924274458E0,4.515507902E0,-9.732339621E-2,-1.003864601E0,4.626772914E0
4.934259458E0,5.857681584E0,9.706502236E-2,-6.881377602E-1,5.898761627E0
4.944245458E0,7.447171730E0,2.112510576E-1,-4.853557366E-1,7.465960352E0
4.954230458E0,8.466950698E0,2.917726258E-1,-9.179251492E-2,8.472473739E0
4.964216458E0,8.694419666E0,3.604282931E-1,6.103522503E-1,8.723266117E0
4.974201458E0,8.189095103E0,3.812631650E-1,1.474932082E0,8.329589717E0
4.984186458E0,7.466404392E0,4.545439799E-1,2.418248180E0,7.861407573E0
4.994172458E0,6.766154709E0,5.975034325E-1,3.566457732E0,7.671862919E0
5.004157458E0,6.264213930E0,7.941663449E-1,4.981158230E0,8.042575063E0
5.014142458E0,5.804784163E0,9.832593057E-1,6.354074525E0,8.662365791E0
5.024128458E0,5.281731427E0,1.044238017E0,7.549244235E0,9.272443497E0
5.034113458E0,5.066151018E0,9.336613221E-1,8.291710230E0,9.761663184E0
5.044099458E0,6.781001959E0,7.004702689E-1,8.037165145E0,1.053891217E1
5.054084458E0,8.975075492E0,2.692180878E-1,7.876898811E0,1.194445450E1
5.064069458E0,8.242624024E0,3.128562967E-1,8.698327945E0,1.198747842E1
5.074055458E0,6.146701852E0,2.115412988E-1,1.022291400E1,1.193040921E1
5.084040458E0,4.371076998E0,1.350608875E-1,1.144408160E1,1.225118603E1
5.094025458E0,3.126291032E0,1.587007418E-1,1.205856783E1,1.245824786E1
5.104011458E0,2.323160174E0,8.074040025E-2,1.269734223E1,1.290837293E1
5.113996458E0,1.730551885E0,4.419047847E-2,1.353731230E1,1.364754875E1
5.123981458E0,1.301139384E0,-9.388727993E-3,1.415577463E1,1.421544960E1
5.133967458E0,9.738245308E-1,-2.674843884E-1,1.453875089E1,1.457378329E1
5.143952458E0,5.374886343E-1,-5.898268423E-1,1.459971630E1,1.462150832E1
5.153938458E0,1.383465841E-1,-9.079920454E-1,1.436355310E1,1.439288877E1
5.163923458E0,-6.876080755E-1,-1.557159429E0,1.420548064E1,1.430710420E1
5.173908458E0,-1.620269597E0,-2.196243435E0,1.405204152E1,1.431462992E1
5.183894458E0,-2.418865646E0,-2.744100937E0,1.399746244E1,1.446754837E1
5.193879458E0,-3.527251566E0,-3.492377310E0,1.390596755E1,1.476530177E1
5.203864458E0,-4.762794838E0,-4.262939176E0,1.347863198E1,1.491745237E1
5.213850458E0,-6.214227253E0,-5.134759322E0,1.268053616E1,1.502592330E1
5.223835458E0,-7.372019806E0,-6.244696509E0,1.167800882E1,1.515647718E1
5.233820458E0,-8.365213823E0,-7.301094834E0,1.053266908E1,1.530424470E1
5.243806458E0,-9.418324260E0,-8.190446395E0,9.539845188E0,1.570977053E1
5.253791458E0,-1.002727552E1,-9.003818650E0,8.635093231E0,1.600561900E1
5.263777458E0,-1.004836993E1,-9.656212966E0,7.631056722E0,1.588852460E1
5.273762458E0,-9.780255214E0,-9.999221746E0,6.612667052E0,1.547143151E1
5.283747458E0,-9.567401946E0,-1.020409064E1,5.876571599E0,1.517210399E1
5.293733458E0,-9.550421632E0,-1.064187752E1,5.277322626E0,1.524172709E1
5.303718458E0,-9.689832117E0,-1.131601354E1,4.505838069E0,1.556430486E1
5.313703458E0,-9.699298174E0,-1.212473726E1,3.588626280E0,1.593624414E1
5.323689458E0,-9.782236835E0,-1.283838759E1,2.625495138E0,1.635266272E1
5.333674458E0,-1.040140142E1,-1.311285823E1,1.577294024E0,1.681142644E1
5.343660458E0,-1.140480702E1,-1.344407961E1,4.374834126E-1,1.763531376E1
5.353645458E0,-1.234347224E1,-1.353662700E1,-7.442195749E-1,1.833454227E1
5.363630458E0,-1.311453054E1,-1.373564517E1,-1.558327410E0,1.905484830E1
5.373616458E0,-1.387920484E1,-1.454913086E1,-2.284710054E0,2.023683364E1
5.383601458E0,-1.422578335E1,-1.522720557E1,-3.357372994E0,2.110717069E1
5.393586458E0,-1.389618399E1,-1.550902616E1,-4.543314629E0,2.131374039E1
5.403572458E0,-1.271677486E1,-1.541513040E1,-5.364975897E0,2.069119558E1
5.413557458E0,-1.109601322E1,-1.521282726E1,-5.477362890E0,1.961002619E1
5.423543458E0,-9.476611059E0,-1.530990975E1,-5.120150639E0,1.871938665E1
5.433528458E0,-8.055409042E0,-1.559568423E1,-5.005701333E0,1.825300050E1
5.443513458E0,-6.928305016E0,-1.561859830E1,-5.283721819E0,1.788462299E1
5.453499208E0,-6.166211087E0,-1.550174754E1,-5.571245200E0,1.758877793E1
5.463484208E0,-5.632507648E0,-1.559847920E1,-5.868545710E0,1.759197330E1
5.473469208E0,-4.846757931E0,-1.580792647E1,-6.439881245E0,1.774411655E1
5.483455208E0,-3.746587349E0,-1.582853205E1,-7.073216561E0,1.773724151E1
5.493440208E0,-2.779389176E0,-1.553468608E1,-7.441421578E0,1.744781450E1
5.503425208E0,-2.021572486E0,-1.524485597E1,-7.437843082E0,1.708256124E1
5.513411208E0,-1.275350385E0,-1.512858643E1,-7.256415675E0,1.682724619E1
5.523396208E0,1.868850522E-2,-1.515948545E1,-6.966446403E0,1.668357647E1
5.533382208E0,1.443464998E0,-1.489127250E1,-6.627351165E0,1.636323230E1
5.543367208E0,2.189681105E0,-1.444071179E1,-6.111198728E0,1.583273856E1
5.553352208E0,2.452790314E0,-1.417333616E1,-5.322049733E0,1.533700921E1
5.563338208E0,2.430117151E0,-1.416076582E1,-4.698888572E0,1.511662369E1
5.573323208E0,2.094255861E0,-1.451298338E1,-4.530746039E0,1.534732074E1
5.583308208E0,2.028175161E0,-1.491325569E1,-4.784291834E0,1.579266090E1
5.593294208E0,2.463386638E0,-1.527772200E1,-5.055077561E0,1.627976881E1
5.603279208E0,2.842692887E0,-1.567036955E1,-5.086839051E0,1.671877137E1
5.613264208E0,3.452907727E0,-1.580061745E1,-5.133653029E0,1.696869108E1
5.623250208E0,4.286102629E0,-1.587924379E1,-5.275702363E0,1.727292953E1
5.633235208E0,4.250654469E0,-1.552236249E1,-5.143664047E0,1.689583027E1
5.643221208E0,3.531195221E0,-1.509464568E1,-4.555196171E0,1.615758274E1
5.653206208E0,3.578251858E0,-1.494224034E1,-3.773657911E0,1.582134403E1
5.663191208E0,4.077069932E0,-1.428104304E1,-2.902635033E0,1.513261312E1
5.673177208E0,5.038542219E0,-1.367135854E1,-1.882673632E0,1.469140606E1
5.683162208E0,6.127146424E0,-1.348807172E1,-1.000425854E0,1.484826098E1
5.693147208E0,7.114992578E0,-1.272343367E1,-5.239292336E-1,1.458709654E1
5.703133208E0,8.461623884E0,-1.166680789E1,8.133067667E-2,1.441249804E1
5.713118208E0,9.658864678E0,-1.092811393E1,8.426878560E-1,1.460915685E1
5.723104208E0,1.068287235E1,-1.016186322E1,9.852225083E-1,1.477693775E1
5.733089208E0,1.184808327E1,-9.501409101E0,8.167373282E-1,1.520923772E1
5.743074208E0,1.249977416E1,-9.079583947E0,6.705171758E-1,1.546391904E1
5.753060208E0,1.310473996E1,-8.308172480E0,2.588702703E-1,1.551860023E1
5.763045208E0,1.417092243E1,-6.965803210E0,1.722203815E-1,1.579136209E1
5.773030208E0,1.446767330E1,-5.966702335E0,1.353709361E0,1.570820284E1
5.783016208E0,1.431131174E1,-5.196192509E0,2.830443555E0,1.548629946E1
5.793001208E0,1.433644190E1,-4.488229472E0,3.929554036E0,1.552801227E1
5.802986208E0,1.383562204E1,-4.683757732E0,5.014874445E0,1.544380100E1
5.812972208E0,1.340431854E1,-4.590663042E0,5.423270298E0,1.517108446E1
5.822957208E0,1.299638754E1,-3.416078455E0,5.355975278E0,1.446589618E1
5.832943208E0,1.182291101E1,-2.427646556E0,5.732992049E0,1.336195683E1
5.842928208E0,1.002950097E1,-1.539862926E0,6.182464008E0,1.188212644E1
5.852913208E0,8.034514017E0,-1.445379377E0,7.044017905E0,1.078242669E1
5.862899208E0,6.518430401E0,-3.028334675E0,8.612917666E0,1.121798095E1
5.872884208E0,5.809048537E0,-4.259675553E0,1.027954311E1,1.255224630E1
5.882869208E0,5.581273175E0,-4.175672114E0,1.220910206E1,1.405877025E1
5.892855208E0,6.083658927E0,-3.627949975E0,1.338920232E1,1.514739799E1
5.902840208E0,6.248382593E0,-2.164515566E0,1.273917204E1,1.435318490E1
5.912825208E0,4.470714430E0,-1.338996889E0,1.194756896E1,1.282671448E1
5.922811208E0,1.707450705E0,-1.337743246E0,1.202202156E1,1.221613471E1
5.932796208E0,-1.662350400E0,-1.424130303E0,1.231816549E1,1.251114531E1
5.942782208E0,-5.913514892E0,-1.766605670E0,1.255914211E1,1.399366302E1
5.952767208E0,-9.355148603E0,-2.210105429E0,1.290650999E1,1.609289817E1
5.962752208E0,-1.117802510E1,-2.667824301E0,1.311757928E1,1.743950738E1
5.972738208E0,-1.130108092E1,-2.308873526E0,1.288054836E1,1.729028204E1
5.982723208E0,-9.937027252E0,-1.502318393E0,1.255007893E1,1.607812030E1
5.992708208E0,-9.025549242E0,-1.043141226E0,1.223430707E1,1.523899446E1
6.002694208E0,-9.344322483E0,-6.387227945E-1,1.134774287E1,1.471378937E1
6.012679208E0,-1.032078352E1,-2.699598802E-1,9.461925777E0,1.400426686E1
6.022665208E0,-1.173923852E1,-3.422091731E-1,7.175393731E0,1.376274331E1
6.032650208E0,-1.281289607E1,-8.624926677E-1,4.764038249E0,1.369708946E1
6.042635208E0,-1.254147768E1,-1.035065490E0,2.583577618E0,1.284659084E1
6.052621208E0,-1.109554895E1,-8.293423171E-1,1.542764461E0,1.123294874E1
6.062606208E0,-8.930453635E0,-6.087916285E-1,1.738903463E0,9.118520419E0
6.072591208E0,-6.950554256E0,-1.857085924E-1,2.667573456E0,7.447190093E0
6.082577208E0,-5.434518002E0,3.084362403E-1,3.657754403E0,6.558070303E0
6.092562208E0,-4.020143779E0,6.849083430E-1,4.120996554E0,5.797695063E0
6.102547208E0,-2.670167573E0,8.469539845E-1,3.924944676E0,4.822065598E0
6.112533208E0,-1.541965731E0,8.935761738E-1,3.121069468E0,3.594052215E0
6.122518208E0,-9.273328806E-1,8.491203779E-1,2.023053585E0,2.381952455E0
6.132504208E0,-9.769263326E-1,6.631319962E-1,8.525170255E-1,1.456335944E0
6.142489208E0,-1.303468330E0,3.556580980E-1,-2.444083518E-1,1.373046908E0
6.152474208E0,-1.641444850E0,1.321148592E-1,-1.038494151E0,1.946860455E0
6.162460208E0,-1.782502349E0,7.670962214E-2,-1.371722878E0,2.250516084E0
6.172445208E0,-1.699465601E0,4.827581841E-2,-1.253260628E0,2.112149636E0
6.182430208E0,-1.398716403E0,5.429507012E-2,-1.032279146E0,1.739239997E0
6.192416208E0,-9.449379699E-1,9.811870890E-2,-8.634793854E-1,1.283795816E0
6.202401208E0,-7.331727228E-1,6.916497806E-2,-5.356043690E-1,9.106031384E-1
6.212386208E0,-5.699434586E-1,1.195094317E-1,-2.866726112E-1,6.490756784E-1
6.222372208E0,-4.409785858E-1,1.438513357E-1,-3.905934209E-1,6.063980049E-1
6.232357208E0,-4.821673961E-1,7.481768243E-3,-7.279140294E-1,8.731553177E-1
6.242343208E0,-7.035190071E-1,-1.215104586E-1,-1.038899363E0,1.260561649E0
6.252328208E0,-8.764195660E-1,-2.394093661E-1,-1.156146562E0,1.470409118E0
6.262313208E0,-9.023130103E-1,-3.545237017E-1,-1.139510649E0,1.496108399E0
6.272299208E0,-8.990232206E-1,-3.527959591E-1,-1.134932864E0,1.490228286E0
6.282284208E0,-1.019513066E0,-3.789213552E-1,-1.043657243E0,1.507384730E0
6.292269208E0,-1.111792946E0,-4.215897669E-1,-9.293389142E-1,1.509136278E0
6.302255208E0,-5.462693980E-1,-4.917916938E-1,-9.634790522E-1,1.211842073E0
6.312240208E0,3.649824701E-1,-5.529238949E-1,-1.015260825E0,1.212308368E0
6.322226208E0,1.025308314E0,-5.444297909E-1,-1.027956299E0,1.550598301E0
6.332211208E0,1.387786641E0,-4.825831697E-1,-1.028734564E0,1.793636831E0
6.342196208E0,1.296199364E0,-4.242288345E-1,-9.776509488E-1,1.678065634E0
6.352182208E0,1.113954589E0,-3.442324559E-1,-9.992792147E-1,1.535561708E0
6.362167208E0,1.080958239E0,-3.500153157E-1,-1.155694572E0,1.620682381E0
6.372152208E0,1.286034710E0,-4.443927750E-1,-1.421147053E0,1.967493116E0
6.382138208E0,1.696598419E0,-4.843877666E-1,-1.822760137E0,2.536835079E0
6.392123208E0,1.965572093E0,-5.686566691E-1,-1.998330973E0,2.860099778E0
6.402108208E0,2.254244598E0,-5.609533645E-1,-2.037734190E0,3.090088674E0
6.412094208E0,2.968327039E0,-4.452236643E-1,-2.009297426E0,3.611989157E0
6.422079208E0,4.105525699E0,-3.671520795E-1,-1.672190825E0,4.448186605E0
6.432065208E0,5.332259556E0,-3.143780346E-1,-9.096513391E-1,5.418421457E0
6.442050208E0,6.140900245E0,-3.504747972E-3,1.748592299E-1,6.143390257E0
6.452035208E0,6.572499020E0,3.502900252E-1,1.657863393E0,6.787411693E0
6.462021208E0,6.995108285E0,8.475365134E-1,3.312242430E0,7.785936551E0
6.472006208E0,7.491241025E0,1.241389318E0,5.181818299E0,9.192985392E0
6.481991208E0,7.739450651E0,1.688146854E0,7.214699299E0,1.071451456E1
6.491977208E0,7.784851942E0,2.164340588E0,8.888749539E0,1.201241684E1
6.501962208E0,7.585224491E0,2.281761157E0,9.905924742E0,1.268343051E1
6.511947208E0,7.480813685E0,1.949175039E0,1.029626615E1,1.287536226E1
6.521933208E0,7.285568138E0,1.554021228E0,1.026576005E1,1.268386040E1
6.531918208E0,6.902258009E0,1.106229321E0,1.006325460E1,1.225291811E1
6.541904208E0,6.524577579E0,7.050056617E-1,9.921090081E0,1.189517440E1
6.551889208E0,5.878107662E0,3.909291972E-1,1.010387872E1,1.169586852E1
6.561874208E0,4.861098520E0,1.953822260E-1,1.066475768E1,1.172200961E1
6.571860208E0,3.979792144E0,2.699428502E-1,1.142846018E1,1.210459899E1
6.581845208E0,3.337148060E0,3.196314655E-1,1.242765110E1,1.287187761E1
6.591830208E0,2.934612578E0,2.199153887E-1,1.336631398E1,1.368644085E1
6.601816208E0,2.287014295E0,-9.795548022E-2,1.402923621E1,1.421476339E1
6.611801208E0,1.232086106E0,-7.850757518E-1,1.445483399E1,1.452847568E1
6.621787208E0,1.129749307E-1,-1.539371029E0,1.443486458E1,1.451715337E1
6.631772208E0,-1.097872041E0,-2.238066522E0,1.400822132E1,1.422830029E1
6.641757208E0,-2.259493644E0,-2.940083233E0,1.341601532E1,1.391901102E1
6.651743208E0,-3.456676843E0,-3.432092517E0,1.272942590E1,1.362960592E1
6.661728208E0,-4.452731318E0,-3.992100533E0,1.245528036E1,1.381657308E1
6.671713208E0,-5.286765295E0,-4.571392958E0,1.248141858E1,1.430501069E1
6.681699208E0,-6.064794055E0,-5.027373453E0,1.249338316E1,1.476959151E1
6.691684208E0,-6.405848111E0,-5.355311619E0,1.255278502E1,1.507602946E1
6.701669208E0,-6.493490857E0,-5.820506741E0,1.234034047E1,1.511051704E1
6.711655208E0,-6.888252173E0,-6.554386100E0,1.163615328E1,1.502691113E1
6.721640208E0,-7.143180251E0,-7.202185673E0,1.069527897E1,1.474060701E1
6.731626208E0,-7.550707208E0,-8.025637359E0,9.792330299E0,1.474156596E1
6.741611208E0,-7.992030487E0,-8.889415537E0,8.662579238E0,1.476260610E1
6.751596208E0,-8.103592438E0,-9.583549032E0,7.366757897E0,1.455272292E1
6.761582208E0,-8.431232396E0,-1.046173533E1,6.280896621E0,1.483183226E1
6.771567208E0,-9.153677525E0,-1.121147702E1,5.150254444E0,1.536268694E1
6.781552208E0,-9.757881428E0,-1.147723531E1,3.888542250E0,1.555840420E1
6.791538208E0,-9.824690545E0,-1.167048111E1,2.883792965E0,1.552549308E1
6.801523208E0,-8.854678398E0,-1.209737229E1,2.350420479E0,1.517485494E1
6.811509208E0,-7.497357797E0,-1.232234625E1,1.689178156E0,1.452253125E1
6.821494208E0,-6.695160155E0,-1.284556329E1,9.507128263E-1,1.451680133E1
6.831479208E0,-7.247339042E0,-1.352721649E1,-6.220969677E-2,1.534644517E1
6.841465208E0,-8.460106532E0,-1.364131321E1,-1.268643483E0,1.610180999E1
6.851450208E0,-9.901366253E0,-1.415298551E1,-2.189927273E0,1.741091135E1
6.861435208E0,-1.118380215E1,-1.490616185E1,-3.309735729E0,1.892684449E1
6.871421208E0,-1.177345526E1,-1.537107514E1,-4.882471848E0,1.996804274E1
6.881406208E0,-1.180698553E1,-1.585023926E1,-6.375698698E0,2.076739092E1
6.891391208E0,-1.164058780E1,-1.629061178E1,-7.574471462E0,2.140700667E1
6.901377208E0,-1.158442647E1,-1.621957162E1,-8.596674685E0,2.170659475E1
6.911362208E0,-1.131602874E1,-1.596169420E1,-9.007442170E0,2.153978187E1
6.921348208E0,-1.076516139E1,-1.590572466E1,-8.830998344E0,2.113923623E1
6.931333208E0,-1.017056154E1,-1.565406400E1,-8.585021185E0,2.054732660E1
6.941318208E0,-9.321745799E0,-1.561416845E1,-8.229495855E0,1.996050609E1
6.951304208E0,-7.961265362E0,-1.560596832E1,-7.875677912E0,1.920818304E1
6.961289208E0,-6.751154847E0,-1.556203000E1,-7.604662390E0,1.858993705E1
6.971274208E0,-5.539468507E0,-1.561997591E1,-7.580038011E0,1.822433359E1
6.981260208E0,-4.042321976E0,-1.576686498E1,-7.731456338E0,1.801970631E1
6.991245208E0,-2.536513087E0,-1.597915048E1,-7.767978632E0,1.794738535E1
7.001231208E0,-1.330068337E0,-1.606997996E1,-7.672962547E0,1.785742680E1
7.011216208E0,-7.623254051E-1,-1.595357710E1,-7.305944515E0,1.756344464E1
7.021201208E0,-6.580788325E-1,-1.587733409E1,-6.665648088E0,1.723234371E1
7.031187208E0,-7.212935194E-1,-1.624660563E1,-5.924218220E0,1.730805652E1
7.041172208E0,-3.106082616E-1,-1.646229539E1,-5.512853150E0,1.736361704E1
7.051157208E0,6.174548632E-1,-1.646466468E1,-5.078729548E0,1.724122755E1
7.061143208E0,1.779702118E0,-1.652695741E1,-4.525379756E0,1.722749903E1
7.071128208E0,2.982078813E0,-1.622214673E1,-4.189279169E0,1.701766431E1
7.081113208E0,3.799155865E0,-1.577870442E1,-3.981498654E0,1.671087760E1
7.091099208E0,4.164980772E0,-1.553816400E1,-3.671048340E0,1.650024852E1
7.101084208E0,4.410804150E0,-1.557869222E1,-3.192053497E0,1.650272857E1
7.111070208E0,5.107696069E0,-1.539860617E1,-2.653800924E0,1.643923023E1
7.121055208E0,6.305934983E0,-1.489769041E1,-1.967378152E0,1.629652025E1
7.131040208E0,7.476925871E0,-1.453227217E1,-1.195845063E0,1.638662260E1
7.141026208E0,8.384502618E0,-1.393499079E1,-6.610125268E-1,1.627638750E1
7.151011208E0,8.965108913E0,-1.321024478E1,-9.725322962E-2,1.596537513E1
7.160996208E0,9.223645892E0,-1.242384339E1,5.198075312E-1,1.548217452E1
7.170982208E0,9.782147373E0,-1.119619708E1,9.444586444E-1,1.489755813E1
7.180967208E0,1.054720058E1,-1.005547547E1,1.396274167E0,1.463918059E1
7.190952208E0,1.087735191E1,-9.325516083E0,1.682315279E0,1.442609509E1
7.200938208E0,1.125991068E1,-8.639462271E0,1.830036997E0,1.430995920E1
7.210923208E0,1.145637946E1,-8.295258905E0,2.033568633E0,1.428969391E1
7.220909208E0,1.129634819E1,-8.279619942E0,1.748378876E0,1.411440461E1
7.230894208E0,1.186710660E1,-8.354394135E0,1.647413834E0,1.460609779E1
7.240879208E0,1.275542964E1,-7.927988273E0,2.158559884E0,1.517278366E1
7.250865208E0,1.362474688E1,-6.916314130E0,2.890722501E0,1.555073649E1
7.260850208E0,1.422481622E1,-5.748542719E0,3.759700608E0,1.579640745E1
7.270835208E0,1.468140424E1,-4.296965586E0,4.703980327E0,1.600421740E1
7.280821208E0,1.524532492E1,-2.720023565E0,5.617354004E0,1.647340663E1
7.290806208E0,1.530414440E1,-1.891892791E0,6.966828811E0,1.692137104E1
7.300791208E0,1.512282458E1,-1.723323264E0,8.241648708E0,1.730879660E1
7.310777208E0,1.455885361E1,-1.272915459E0,8.834420135E0,1.707710489E1
7.320762208E0,1.327444253E1,-1.020508481E0,9.184642040E0,1.617435969E1
7.330748208E0,1.173266391E1,-7.634351335E-1,9.485586535E0,1.510677290E1
7.340733208E0,9.573093626E0,-1.179497783E0,1.064776801E1,1.436698647E1
7.350718208E0,5.855091852E0,-2.500172057E0,1.317600115E1,1.463352203E1
7.360704208E0,1.988743147E0,-3.537160258E0,1.615470378E1,1.665656195E1
7.370689208E0,-1.260805437E0,-4.484494563E0,1.804131960E1,1.863302270E1
7.380674208E0,-3.427961167E0,-4.982002568E0,1.781271452E1,1.881127497E1
7.390660208E0,-5.324571052E0,-4.696090972E0,1.629785531E1,1.777707555E1
7.400645208E0,-8.522006911E0,-3.830940160E0,1.470809561E1,1.742494708E1
7.410631208E0,-1.169359048E1,-2.509939538E0,1.306763002E1,1.771448021E1
7.420616208E0,-1.340505062E1,-1.104347540E0,1.120643906E1,1.750711975E1
7.430601208E0,-1.395818786E1,-3.183694171E-1,9.414745764E0,1.683953103E1
7.440587208E0,-1.342088838E1,-3.299364522E-2,8.064735936E0,1.565762751E1
7.450572208E0,-1.259867514E1,3.575484663E-1,7.669386975E0,1.475377757E1
7.460557958E0,-1.203012463E1,7.395675302E-1,7.778648631E0,1.434497241E1
7.470543958E0,-1.109031336E1,1.005835478E0,7.640099441E0,1.350473527E1
7.480528958E0,-9.749187788E0,1.037609979E0,6.928982708E0,1.200558613E1
7.490513958E0,-8.134413697E0,6.758649661E-1,5.611835402E0,9.905461938E0
7.500499958E0,-6.719060065E0,6.595682645E-1,3.646779764E0,7.673317476E0
7.510484958E0,-5.923390254E0,7.646365171E-1,1.891805813E0,6.264994042E0
7.520470958E0,-5.950659329E0,4.417999003E-1,7.690597165E-1,6.016393143E0
7.530455958E0,-6.136115468E0,2.161492702E-1,1.322429681E-1,6.141345272E0
7.540440958E0,-5.542582734E0,2.553373095E-1,1.209397155E-1,5.549778997E0
7.550426958E0,-4.441563721E0,3.753566732E-1,4.259948033E-1,4.477706164E0
7.560411958E0,-3.526721224E0,5.323904470E-1,7.126960659E-1,3.637188180E0
7.570396958E0,-2.951817718E0,6.376363818E-1,9.856505245E-1,3.176683011E0
7.580382958E0,-2.514929844E0,7.056128950E-1,1.155978747E0,2.856404828E0
7.590367958E0,-2.053701474E0,6.896260227E-1,8.811718905E-1,2.338747035E0
7.600353958E0,-1.643127386E0,5.513752233E-1,1.860999173E-1,1.743133794E0
7.610338958E0,-1.376953359E0,2.728830495E-1,-5.996454138E-1,1.526446964E0
7.620323958E0,-1.151917856E0,6.006683841E-2,-1.176420028E0,1.647569985E0
7.630309958E0,-1.070473305E0,-3.625792645E-2,-1.191550283E0,1.602192189E0
7.640294958E0,-9.989406610E-1,-5.287469007E-2,-8.740347791E-1,1.328388110E0
7.650279958E0,-6.797502217E-1,2.443555076E-2,-4.989282936E-1,8.435561049E-1
7.660265958E0,-1.857448451E-1,8.380452398E-2,-2.056038898E-1,2.894776420E-1
7.670250958E0,5.073190480E-2,1.288938291E-1,2.620137334E-2,1.409746691E-1
7.680235958E0,-8.153942227E-3,1.729433532E-1,3.868517876E-2,1.774047159E-1
7.690221958E0,-1.532849045E-1,1.381835565E-1,-2.478470993E-1,3.225199868E-1
7.700206958E0,-2.535370979E-1,4.828941319E-2,-5.832737947E-1,6.378254048E-1
7.710192958E0,-3.692301799E-1,-9.032705650E-3,-7.739877498E-1,8.575952148E-1
7.720177958E0,-3.985025109E-1,-7.837085266E-2,-8.245889693E-1,9.191807277E-1
7.730162958E0,-1.284742183E-1,-1.427116403E-1,-9.421928483E-1,9.615610228E-1
7.740148958E0,6.376637176E-2,-1.752334883E-1,-1.018704250E0,1.035630858E0
7.750133958E0,9.218157403E-2,-2.028074589E-1,-9.935214615E-1,1.018191142E0
7.760118958E0,1.122960690E-1,-2.131917850E-1,-9.831549329E-1,1.012252323E0
7.770104958E0,5.260593742E-2,-3.034808712E-1,-1.037828153E0,1.082568843E0
7.780089958E0,4.666830920E-2,-3.082065909E-1,-1.129077462E0,1.171317698E0
7.790074958E0,1.708916748E-1,-3.016068751E-1,-1.188712630E0,1.238227922E0
7.800060958E0,3.743685669E-1,-3.038243951E-1,-1.237592429E0,1.328192797E0
7.810045958E0,5.675676618E-1,-2.746442674E-1,-1.289386480E0,1.435297886E0
7.820031958E0,9.089623909E-1,-1.889566476E-1,-1.361931131E0,1.648263828E0
7.830016958E0,1.224409443E0,-1.331484094E-3,-1.432740328E0,1.884655168E0
7.840001958E0,1.516625653E0,1.785676803E-1,-1.431493117E0,2.093134571E0
7.849987958E0,2.053437764E0,3.398009243E-1,-1.659086630E0,2.661698662E0
7.859972958E0,2.857629891E0,4.265313584E-1,-2.078226743E0,3.559073474E0
7.869957958E0,4.149322806E0,3.082405778E-1,-2.471894630E0,4.839644105E0
7.879943958E0,5.221064810E0,2.159759002E-1,-2.698880618E0,5.881336577E0
7.889928958E0,5.643626128E0,1.528468019E-1,-2.684465477E0,6.251418473E0
7.899914958E0,5.909250517E0,-1.482188769E-1,-2.332313991E0,6.354596688E0
7.909899958E0,6.049008327E0,-2.975798611E-1,-1.504692655E0,6.240445137E0
7.919884958E0,6.505136172E0,-5.217679565E-1,-4.065101266E-2,6.526154374E0
7.929870958E0,7.203736939E0,-5.070342886E-1,1.914005937E0,7.470898767E0
7.939855958E0,7.643445802E0,3.506753567E-1,4.425180992E0,8.838974134E0
7.949840958E0,8.096869894E0,1.177896450E0,7.656775115E0,1.120593358E1
7.959826958E0,8.148359891E0,1.665842503E0,1.047215039E1,1.337298523E1
7.969811958E0,7.508682684E0,1.620125463E0,1.148440283E1,1.381653468E1
7.979796958E0,6.200001562E0,1.128535864E0,1.050512284E1,1.225035585E1
7.989782958E0,4.407662734E0,1.148890167E-1,9.186343580E0,1.018968099E1
7.999767958E0,2.664386431E0,-5.789415926E-1,8.129474553E0,8.574525348E0
8.009753958E0,1.690064594E0,-7.299174316E-1,7.592849845E0,7.812839853E0
8.019738958E0,1.382711404E0,-5.422813046E-1,8.146337339E0,8.280626297E0
8.029723958E0,1.310234728E0,-2.139598534E-1,9.843336146E0,9.932459934E0
8.039709958E0,1.420816101E0,3.171478607E-1,1.184613498E1,1.193525094E1
8.049694958E0,1.721166519E0,9.033296219E-1,1.360096041E1,1.373916091E1
8.059679958E0,1.990014770E0,9.938253705E-1,1.490225825E1,1.506735374E1
8.069665958E0,1.839246215E0,5.391129908E-1,1.563955472E1,1.575655868E1
8.079650958E0,1.313692771E0,2.431052998E-2,1.550899341E1,1.556455128E1
8.089635958E0,4.168361633E-1,-6.657389773E-1,1.503466026E1,1.505516423E1
8.099621958E0,-4.999002470E-1,-1.615488329E0,1.445226940E1,1.455086917E1
8.109606958E0,-1.539918329E0,-2.341537973E0,1.364701776E1,1.393180685E1
8.119592958E0,-2.037119209E0,-2.769560006E0,1.292944745E1,1.337874914E1
8.129577958E0,-2.344629250E0,-3.344281956E0,1.281582202E1,1.345090339E1
8.139562958E0,-2.628778349E0,-4.037164147E0,1.289867589E1,1.376898725E1
8.149548958E0,-2.778976362E0,-4.812960733E0,1.270493308E1,1.386732221E1
8.159533958E0,-3.053394964E0,-5.449434834E0,1.266827572E1,1.412461576E1
8.169518958E0,-3.789980999E0,-6.041729128E0,1.251245677E1,1.440236166E1
8.179504958E0,-5.084860353E0,-7.031073339E0,1.196644144E1,1.478132328E1
8.189489958E0,-6.305884112E0,-8.340537404E0,1.096743061E1,1.515299551E1
8.199475958E0,-7.030382198E0,-9.767873150E0,9.518636752E0,1.534412152E1
8.209460958E0,-7.684578626E0,-1.097337723E1,7.854517424E0,1.552936574E1
8.219445958E0,-8.085478349E0,-1.151547142E1,6.303941667E0,1.541819454E1
8.229431958E0,-8.190838158E0,-1.163030606E1,5.117162712E0,1.511751312E1
8.239416958E0,-8.325613555E0,-1.160385326E1,4.202897919E0,1.488722951E1
8.249401958E0,-8.561822941E0,-1.134163136E1,3.183182101E0,1.456262553E1
8.259387958E0,-9.183755602E0,-1.137313616E1,2.636521817E0,1.485398399E1
8.269372958E0,-9.918878664E0,-1.169429565E1,2.328730232E0,1.551011570E1
8.279357958E0,-1.010162169E1,-1.174714980E1,1.722565173E0,1.558863432E1
8.289343958E0,-1.032098935E1,-1.214099018E1,1.129128917E0,1.597502412E1
8.299328958E0,-1.037999828E1,-1.305524211E1,1.840633321E-1,1.667985582E1
8.309314958E0,-9.892603616E0,-1.378354790E1,-1.435511323E0,1.702675811E1
8.319299958E0,-9.393744904E0,-1.443837057E1,-3.180035130E0,1.751632414E1
8.329284958E0,-9.515008555E0,-1.441264750E1,-4.893769838E0,1.795017490E1
8.339270958E0,-1.039275339E1,-1.398730232E1,-5.757097780E0,1.835206049E1
8.349255958E0,-1.140750376E1,-1.426389199E1,-5.773146633E0,1.915512930E1
8.359240958E0,-1.171174023E1,-1.457534042E1,-5.906370179E0,1.960843228E1
8.369226958E0,-1.159457840E1,-1.488105625E1,-6.160365626E0,1.984515528E1
8.379211958E0,-1.115707686E1,-1.531832507E1,-6.393476572E0,2.000019974E1
8.389196958E0,-1.014564421E1,-1.546931655E1,-6.851136387E0,1.972744080E1
8.399182958E0,-9.472319788E0,-1.568990042E1,-7.097270837E0,1.965372918E1
8.409167958E0,-8.752442756E0,-1.633079852E1,-7.443625394E0,1.996766871E1
8.419153958E0,-6.949281317E0,-1.635314424E1,-8.342496221E0,1.962944423E1
8.429138958E0,-5.743442777E0,-1.628372142E1,-8.902423838E0,1.942678225E1
8.439123958E0,-5.034660253E0,-1.623416510E1,-8.890973235E0,1.918190098E1
8.449109958E0,-4.221295599E0,-1.582763626E1,-8.388297461E0,1.840372083E1
8.459094125E0,-3.317863066E0,-1.535454740E1,-7.682823876E0,1.748702730E1
8.469079125E0,-1.975872402E0,-1.503583789E1,-7.219078864E0,1.679570161E1
8.479065125E0,-8.900578310E-1,-1.488758174E1,-6.897638708E0,1.643197227E1
8.489050125E0,-3.082349499E-1,-1.520527968E1,-6.653464245E0,1.660012426E1
8.499036125E0,7.218231310E-1,-1.552333780E1,-6.788971714E0,1.695833666E1
8.509021125E0,1.581058607E0,-1.560970819E1,-6.773873034E0,1.708941462E1
8.519006125E0,1.833157802E0,-1.550145752E1,-6.281521103E0,1.682596684E1
8.528992125E0,2.312252778E0,-1.520542352E1,-5.818420454E0,1.644400906E1
8.538977125E0,2.782908030E0,-1.492662009E1,-5.400821668E0,1.611575127E1
8.548962125E0,2.487686205E0,-1.477904104E1,-5.023052945E0,1.580631829E1
8.558948125E0,2.173625820E0,-1.470218992E1,-4.854515725E0,1.563474850E1
8.568933125E0,2.258798410E0,-1.470682091E1,-4.569575059E0,1.556514593E1
8.578918125E0,2.485080978E0,-1.472756216E1,-3.895052540E0,1.543528908E1
8.588904125E0,3.425274079E0,-1.457506444E1,-3.479797318E0,1.537120669E1
8.598889125E0,4.662792833E0,-1.413317281E1,-3.504829833E0,1.528960571E1
8.608875125E0,5.583209188E0,-1.346914195E1,-3.594171780E0,1.501692646E1
8.618860125E0,5.977203934E0,-1.299980583E1,-3.541837445E0,1.473996373E1
8.628845125E0,6.033617286E0,-1.243349714E1,-3.391312573E0,1.423015776E1
8.638831125E0,6.015029572E0,-1.180577165E1,-2.958250240E0,1.357601081E1
8.648816125E0,6.084211489E0,-1.151912710E1,-2.296381681E0,1.322804927E1
8.658801125E0,6.731321091E0,-1.111342155E1,-2.007781827E0,1.314724344E1
8.668787125E0,7.633671012E0,-1.081562988E1,-2.110191132E0,1.340536047E1
8.678772125E0,8.756985458E0,-1.036852838E1,-2.487158201E0,1.379772195E1
8.688757125E0,1.043958023E1,-9.377234706E0,-2.318646709E0,1.422299155E1
8.698743125E0,1.195532471E1,-8.574196819E0,-6.958122307E-1,1.472857069E1
8.708728125E0,1.286764940E1,-7.657906551E0,1.689669907E0,1.506900522E1
8.718714125E0,1.347587560E1,-6.851679593E0,4.426387857E0,1.575238540E1
8.728699125E0,1.398223980E1,-6.216539242E0,6.704037398E0,1.670606199E1
8.738684125E0,1.457070592E1,-5.334421272E0,7.631185945E0,1.729151585E1
8.748670125E0,1.527373303E1,-3.935894172E0,7.707044798E0,1.755496292E1
8.758655125E0,1.543957878E1,-2.570309116E0,8.265047511E0,1.770022859E1
8.768640125E0,1.477900596E1,-1.479019285E0,9.695553033E0,1.773725638E1
8.778626125E0,1.325846677E1,-1.242023887E0,1.167318720E1,1.770855341E1
8.788611125E0,1.096264993E1,-2.286568299E0,1.397078861E1,1.790505578E1
8.798597125E0,8.848825920E0,-3.074602230E0,1.590923299E1,1.846235611E1
8.808582125E0,7.429607863E0,-3.165611803E0,1.700885101E1,1.882873293E1
8.818567125E0,6.157206960E0,-2.986924986E0,1.693510592E1,1.826556134E1
8.828553125E0,4.524874849E0,-2.186853684E0,1.545259585E1,1.624929352E1
8.838538125E0,2.213143789E0,-1.786380807E0,1.391232698E1,1.420007056E1
8.848523125E0,-7.192477249E-1,-1.910254071E0,1.285662389E1,1.301764824E1
8.858509125E0,-4.479739607E0,-2.176990601E0,1.183214961E1,1.283772251E1
8.868494125E0,-8.312435101E0,-2.765790891E0,1.059072023E1,1.374443639E1
8.878479125E0,-1.081413884E1,-3.146270091E0,9.225402396E0,1.455859415E1
8.888465125E0,-1.148932267E1,-2.873055723E0,8.799616923E0,1.475439740E1
8.898450125E0,-1.092388289E1,-1.938163855E0,9.638233362E0,1.469636822E1
8.908436125E0,-9.991891676E0,-6.945742290E-1,1.081172861E1,1.473817520E1
8.918421125E0,-1.000922282E1,3.502774537E-1,1.114556487E1,1.498435357E1
8.928406125E0,-1.038153726E1,9.673323673E-1,1.067706022E1,1.492352716E1
8.938392125E0,-1.040870694E1,1.068452945E0,9.721122907E0,1.428226181E1
8.948377125E0,-1.021243111E1,9.262262951E-1,8.715083726E0,1.345750083E1
8.958362125E0,-9.581163953E0,1.051222516E0,7.845545456E0,1.242804711E1
8.968348125E0,-8.134165775E0,1.085137390E0,6.921713449E0,1.073556208E1
8.978333125E0,-6.298314307E0,1.004013413E0,5.730445586E0,8.574077948E0
8.988319125E0,-4.844344201E0,1.063612182E0,4.731937619E0,6.854938019E0
8.998304125E0,-4.248358559E0,1.300482888E0,4.168467175E0,6.092284036E0
9.008289125E0,-4.232886534E0,1.397627944E0,3.709332107E0,5.799123810E0
9.018275125E0,-4.145953640E0,1.208630877E0,3.015347131E0,5.267071151E0
9.028260125E0,-3.793212755E0,9.818629906E-1,2.163972652E0,4.476080381E0
9.038245125E0,-3.412338576E0,8.152769861E-1,1.447247854E0,3.795162378E0
9.048231125E0,-3.275434792E0,5.675170103E-1,1.108171912E0,3.504082422E0
9.058216125E0,-3.201117266E0,4.583905707E-1,9.843150204E-1,3.380258825E0
9.068201125E0,-3.041940561E0,3.319138344E-1,8.172700095E-1,3.167254242E0
9.078187125E0,-2.715108395E0,1.102156296E-1,3.597745013E-1,2.741057966E0
9.088172125E0,-1.866244418E0,1.402747035E-2,-3.020028412E-1,1.890574175E0
9.098158125E0,-9.015861283E-1,1.039993085E-2,-8.307922804E-1,1.226043033E0
9.108143125E0,-4.459990051E-1,6.073729478E-2,-9.993534744E-1,1.096043566E0
9.118128125E0,-6.140653785E-1,1.352572078E-1,-8.042886060E-1,1.020906932E0
9.128114125E0,-9.457118489E-1,1.368238230E-1,-4.831402266E-1,1.070754938E0
9.138099125E0,-1.063420978E0,7.713237584E-2,-3.026062739E-1,1.108324924E0
9.148084125E0,-1.043301586E0,1.923288099E-2,-2.531867766E-1,1.073755860E0
9.158070125E0,-9.974306175E-1,-6.137464128E-2,-3.115975374E-1,1.046770132E0
9.168055125E0,-8.952785906E-1,-1.153788672E-1,-4.248592740E-1,9.976680012E-1
9.178040125E0,-7.169481611E-1,-1.470079916E-1,-4.539596969E-1,8.612232125E-1
9.188026125E0,-3.399237889E-1,-1.116498055E-1,-4.399421668E-1,5.670652268E-1
9.198011125E0,3.168964304E-1,-1.120026849E-1,-6.506840050E-1,7.323644062E-1
9.207997125E0,7.796984330E-1,-1.757075878E-1,-8.795715076E-1,1.188464909E0
9.217982125E0,9.440733129E-1,-1.370387082E-1,-1.008675690E0,1.388337378E0
9.227967125E0,9.366086112E-1,-4.974526025E-2,-1.062860084E0,1.417526662E0
9.237953125E0,9.389850658E-1,-1.271547941E-1,-1.094832659E0,1.447936410E0
9.247938125E0,1.047443607E0,-1.886874564E-1,-1.275104071E0,1.660912839E0
9.257923125E0,1.137183311E0,-2.891010330E-1,-1.427238683E0,1.847640535E0
9.267909125E0,1.312122501E0,-4.653592093E-1,-1.503823759E0,2.049319534E0
9.277894125E0,1.666140127E0,-6.293603059E-1,-1.716339642E0,2.473446802E0
9.287880125E0,2.144276598E0,-7.498391146E-1,-1.836765972E0,2.921282264E0
9.297865125E0,2.732622560E0,-7.319121362E-1,-1.739240263E0,3.320824916E0
9.307850125E0,3.522112741E0,-5.854434771E-1,-1.370401992E0,3.824398494E0
9.317836125E0,4.267799674E0,-4.087723412E-1,-8.429398710E-1,4.369411461E0
9.327821125E0,4.855509167E0,-2.495958553E-1,-4.259322381E-1,4.880541530E0
9.337806125E0,5.353613588E0,-1.188384455E-1,-8.649903059E-2,5.355630972E0
9.347792125E0,5.742205507E0,-5.088524804E-2,2.597339040E-1,5.748301931E0
9.357777125E0,5.873308268E0,-7.676005438E-2,5.360318005E-1,5.898217714E0
9.367762125E0,5.687512406E0,-1.335888509E-1,7.259458566E-1,5.735210609E0
9.377748125E0,5.353714744E0,-7.955407329E-2,9.081503588E-1,5.430775956E0
9.387733125E0,5.045836621E0,5.833606258E-2,1.227115388E0,5.193234298E0
9.397719125E0,5.094677244E0,2.410350931E-1,1.875879752E0,5.434405117E0
9.407704125E0,5.596962424E0,5.129195112E-1,2.898107534E0,6.323614637E0
9.417689125E0,6.042075284E0,9.810435033E-1,4.146934218E0,7.393658330E0
9.427675125E0,6.187341170E0,1.456058293E0,5.660621061E0,8.511517333E0
9.437660125E0,6.253076738E0,1.719240592E0,7.308367016E0,9.770823167E0
9.447645125E0,6.205893216E0,1.931230519E0,8.977551788E0,1.108328462E1
9.457630833E0,5.620714983E0,1.683327578E0,1.043023054E1,1.196727779E1
9.467615833E0,4.578010544E0,1.247014778E0,1.119893357E1,1.216262059E1
9.477601833E0,3.436457756E0,7.702175383E-1,1.143195330E1,1.196210823E1
9.487586833E0,2.416828184E0,2.391258310E-1,1.140319787E1,1.165895198E1
9.497571833E0,1.395676874E0,-3.852374444E-1,1.114674600E1,1.124038559E1
9.507557833E0,6.726907320E-1,-4.286832800E-1,1.106309808E1,1.109181776E1
9.517542833E0,5.838161239E-1,-9.406642400E-2,1.163120419E1,1.164622689E1
9.527527833E0,1.387655079E0,2.495646824E-1,1.266120994E1,1.273947041E1
9.537513833E0,2.917416210E0,3.731773429E-1,1.370644652E1,1.401846121E1
9.547498833E0,3.871499956E0,2.170323825E-1,1.522390657E1,1.570996328E1
9.557483833E0,3.015037229E0,-5.484909014E-1,1.673160645E1,1.700993668E1
9.567469833E0,3.929958956E-1,-1.871929081E0,1.686274780E1,1.697088176E1
9.577454833E0,-2.275724930E0,-3.336282965E0,1.547769912E1,1.599590191E1
9.587440833E0,-4.822395800E0,-5.062997614E0,1.383126586E1,1.549817284E1
9.597425833E0,-6.723101660E0,-6.502247647E0,1.225451738E1,1.541598251E1
9.607410833E0,-8.129506713E0,-7.132245373E0,1.111144519E1,1.550554797E1
9.617396833E0,-8.982672780E0,-7.288436197E0,1.046497937E1,1.559889437E1
9.627381833E0,-9.094753963E0,-7.461845902E0,9.853564095E0,1.534556676E1
9.637366833E0,-9.146633969E0,-7.661499081E0,8.968791490E0,1.492644304E1
9.647352833E0,-9.572698939E0,-8.072453091E0,7.942151399E0,1.482831186E1
9.657337833E0,-1.052011861E1,-8.667497331E0,7.247255427E0,1.543765257E1
9.667322833E0,-1.122161843E1,-8.989842635E0,6.786279071E0,1.589954636E1
9.677308833E0,-1.140366330E1,-9.015232415E0,6.194380633E0,1.580152852E1
9.687293833E0,-1.126274190E1,-9.039718800E0,5.470702327E0,1.544326568E1
9.697279833E0,-1.099641292E1,-9.211995315E0,4.783803592E0,1.512173044E1
9.707264833E0,-1.077593898E1,-9.203657185E0,4.144064405E0,1.476487170E1
9.717249833E0,-1.057471524E1,-9.524550626E0,3.639088336E0,1.468960962E1
9.727235833E0,-9.978046639E0,-1.000324697E1,3.232119203E0,1.449389386E1
9.737220833E0,-9.152888736E0,-1.029126093E1,2.869431034E0,1.406837084E1
9.747205833E0,-8.392003427E0,-1.024153387E1,2.528701499E0,1.347995062E1
9.757191833E0,-8.225478818E0,-1.055179649E1,2.117244043E0,1.354553924E1
9.767176833E0,-8.842129104E0,-1.128798667E1,1.128327849E0,1.438315034E1
9.777162833E0,-9.452494218E0,-1.185924093E1,-3.371668267E-1,1.516920973E1
9.787147833E0,-9.850110730E0,-1.243692478E1,-1.688053152E0,1.595466398E1
9.797132833E0,-9.904192797E0,-1.293209273E1,-2.959936577E0,1.655576280E1
9.807118833E0,-9.583254333E0,-1.278291038E1,-4.347696029E0,1.655729513E1
9.817103833E0,-9.415621092E0,-1.278134683E1,-5.122976598E0,1.668117612E1
9.827088833E0,-9.443047457E0,-1.312865741E1,-5.506792511E0,1.708383898E1
9.837074833E0,-8.826103640E0,-1.283030089E1,-6.125285255E0,1.673427160E1
9.847059833E0,-8.134309031E0,-1.287407432E1,-6.253034638E0,1.646235752E1
9.857044833E0,-7.785680493E0,-1.331268098E1,-6.194716848E0,1.661983190E1
9.867030833E0,-7.477231096E0,-1.352429405E1,-6.343534334E0,1.670496760E1
9.877015833E0,-7.359141313E0,-1.362215773E1,-6.332101858E0,1.672769130E1
9.887001833E0,-6.901678550E0,-1.363546717E1,-6.232765850E0,1.650474180E1
9.896986833E0,-5.522825577E0,-1.326782816E1,-6.131747013E0,1.562482601E1
9.906971833E0,-3.677570032E0,-1.302050497E1,-5.902387640E0,1.476130925E1
9.916957833E0,-2.258807766E0,-1.307084248E1,-5.871530129E0,1.450599882E1
9.926942833E0,-1.212540545E0,-1.320074188E1,-6.349117840E0,1.469833794E1
9.936927833E0,-1.028225637E0,-1.343670276E1,-6.876568851E0,1.512909212E1
9.946913833E0,-1.161127074E0,-1.393961009E1,-7.204423403E0,1.573418768E1
9.956898833E0,-7.397048666E-1,-1.408406906E1,-7.511009876E0,1.597884332E1
9.966884833E0,-2.489827748E-1,-1.401757452E1,-7.178243079E0,1.575060512E1
9.976869833E0,2.746451810E-2,-1.408109984E1,-6.128485436E0,1.535696783E1
9.986854833E0,4.206574649E-1,-1.371206686E1,-5.168771991E0,1.465994318E1
9.996840833E0,8.472593553E-1,-1.344893982E1,-4.531489512E0,1.421711039E1
1.000682583E1,9.979935582E-1,-1.364909001E1,-4.226299646E0,1.432324188E1
1.001681083E1,9.595428528E-1,-1.374216950E1,-4.503657643E0,1.449313207E1
1.002679683E1,8.699241865E-1,-1.409339771E1,-4.980644259E0,1.497289031E1
1.003678183E1,1.355712909E0,-1.448929514E1,-5.331621040E0,1.549851006E1
1.004676683E1,2.453698094E0,-1.419128361E1,-5.078696219E0,1.527109426E1
1.005675283E1,3.528897557E0,-1.367919031E1,-4.579350434E0,1.485071769E1
1.006673783E1,4.449103705E0,-1.286438665E1,-4.164152514E0,1.423471580E1
1.007672383E1,5.245811981E0,-1.215528896E1,-3.251107451E0,1.363228861E1
1.008670883E1,6.143723865E0,-1.157734666E1,-1.970197679E0,1.325375334E1
1.009669383E1,7.279157835E0,-1.079942139E1,-1.049659410E0,1.306581135E1
1.010667983E1,8.500345316E0,-1.038822765E1,-3.097042090E-1,1.342635695E1
1.011666483E1,9.320789194E0,-1.031672673E1,-1.270050323E-1,1.390424726E1
1.012664983E1,1.020966538E1,-9.974548835E0,-4.756136906E-1,1.428128495E1
1.013663583E1,1.135599563E1,-9.580626009E0,-3.065385264E-1,1.486071995E1
1.014662083E1,1.213793793E1,-8.378049631E0,1.857023066E-1,1.474977079E1
1.015660583E1,1.235704480E1,-6.930437495E0,6.876986343E-1,1.418451442E1
1.016659183E1,1.213422495E1,-6.403915606E0,1.512223284E0,1.380349121E1
1.017657683E1,1.199602718E1,-6.021577284E0,1.690130668E0,1.352851074E1
1.018656283E1,1.254781138E1,-5.933784850E0,1.535734354E0,1.396480766E1
1.019654783E1,1.342717063E1,-6.023767651E0,1.370092674E0,1.478011644E1
1.020653283E1,1.459818550E1,-4.872226064E0,1.085303451E0,1.542800992E1
1.021651883E1,1.562659261E1,-3.630511056E0,1.997860272E0,1.616670817E1
1.022650383E1,1.591028899E1,-2.599133843E0,3.780283391E0,1.655848227E1
1.023648883E1,1.537495769E1,-1.804307640E0,5.616773375E0,1.646793834E1
1.024647483E1,1.480449865E1,-2.247480832E0,7.715612723E0,1.684502983E1
1.025645983E1,1.454183120E1,-3.767622415E0,9.396673189E0,1.771884027E1
1.026644483E1,1.419136430E1,-5.324474573E0,1.052803691E1,1.845492919E1
1.027643083E1,1.325401704E1,-5.301282762E0,1.067770108E1,1.782654949E1
1.028641583E1,1.107568362E1,-3.881561844E0,9.223143616E0,1.492660940E1
1.029640183E1,7.506375958E0,-3.752001579E0,8.104715104E0,1.166660202E1
1.030638683E1,3.383768495E0,-4.682127528E0,7.936279040E0,9.816146516E0
1.031637183E1,-2.725279042E-1,-4.671735857E0,7.759250493E0,9.061200560E0
1.032635783E1,-3.924216990E0,-4.798168446E0,8.016226850E0,1.013320247E1
1.033634283E1,-7.456447168E0,-5.144156383E0,8.828114498E0,1.264897446E1
1.034632783E1,-1.023044989E1,-5.101233727E0,9.497459891E0,1.486224865E1
1.035631383E1,-1.233610709E1,-4.635671985E0,1.047026525E1,1.683138281E1
1.036629883E1,-1.354350684E1,-3.789324064E0,1.230862985E1,1.868924619E1
1.037628483E1,-1.459197575E1,-2.885325228E0,1.400578069E1,2.043068160E1
1.038626983E1,-1.656729384E1,-2.561760487E0,1.472033266E1,2.230977444E1
1.039625483E1,-1.862078101E1,-2.567365043E0,1.442823149E1,2.369596406E1
1.040624083E1,-1.935217180E1,-2.205303403E0,1.393737645E1,2.395037325E1
1.041622583E1,-1.826460372E1,-1.678778883E0,1.350116481E1,2.277488746E1
1.042621083E1,-1.556228026E1,-7.483216160E-1,1.293175944E1,2.024783826E1
1.043619683E1,-1.263135757E1,-3.494303383E-2,1.214596499E1,1.752360923E1
1.044618183E1,-1.037116898E1,4.851305457E-1,1.081985040E1,1.499552134E1
1.045616775E1,-8.538898348E0,6.644034733E-1,9.220592476E0,1.258465504E1
1.046615375E1,-7.063058193E0,7.409661841E-1,7.715246102E0,1.048622164E1
1.047613875E1,-6.595649900E0,6.046726305E-1,6.283905598E0,9.129934072E0
1.048612475E1,-6.353400925E0,2.730963998E-1,4.577460614E0,7.835396010E0
1.049610975E1,-5.867514262E0,8.036376648E-3,2.889058383E0,6.540217621E0
1.050609475E1,-5.026970580E0,-8.039051749E-2,1.599489470E0,5.275913419E0
1.051608075E1,-4.014863158E0,-1.106712374E-1,6.364255697E-1,4.066498716E0
1.052606575E1,-3.116515657E0,-6.418773673E-2,-2.535264999E-1,3.127469519E0
1.053605075E1,-2.359270239E0,1.276812628E-2,-1.119937094E0,2.611623668E0
1.054603675E1,-1.685678013E0,-4.006024288E-2,-1.824279243E0,2.484171883E0
1.055602175E1,-1.396515657E0,-6.503278730E-2,-2.209250566E0,2.614435562E0
1.056600775E1,-1.343690449E0,-5.689156277E-2,-2.117930506E0,2.508858367E0
1.057599275E1,-1.325501808E0,-1.107053339E-1,-1.918439296E0,2.334442127E0
1.058597775E1,-1.152824759E0,-1.677147547E-1,-1.738849669E0,2.093019669E0
1.059596375E1,-7.584942363E-1,-2.430618476E-1,-1.599745578E0,1.787058612E0
1.060594875E1,-4.382897437E-1,-2.750583233E-1,-1.474685914E0,1.562835092E0
1.061593375E1,-1.154462564E-1,-2.786945423E-1,-1.374672214E0,1.407381321E0
1.062591975E1,7.187733695E-2,-1.962364859E-1,-1.325536891E0,1.341910265E0
1.063590475E1,4.550902560E-2,-1.081202982E-1,-1.214728062E0,1.220379176E0
1.064588975E1,-5.573010474E-2,-8.191572715E-2,-1.120866802E0,1.125237050E0
1.065587575E1,-2.039785101E-1,-1.070722761E-1,-9.940225679E-1,1.020368840E0
1.066586075E1,-2.502649230E-1,-2.196755067E-1,-8.907332575E-1,9.509445809E-1
1.067584675E1,-1.617977927E-1,-2.798052940E-1,-7.784918600E-1,8.429229528E-1
1.068583175E1,-2.011298197E-1,-2.801525638E-1,-7.214616269E-1,7.996533889E-1
1.069581675E1,-2.751060147E-1,-2.808298906E-1,-7.087801856E-1,8.105048416E-1
1.070580275E1,-1.559725772E-1,-2.977727096E-1,-7.235075676E-1,7.977839506E-1
1.071578775E1,1.084546676E-1,-3.251006587E-1,-7.816025788E-1,8.534374285E-1
1.072577275E1,3.220965055E-1,-4.268142906E-1,-8.126360911E-1,9.727764461E-1
1.073575875E1,5.050766408E-1,-4.551572797E-1,-8.942199522E-1,1.123343173E0
1.074574375E1,7.217341071E-1,-5.180590310E-1,-9.302908409E-1,1.286361664E0
1.075572875E1,9.874293937E-1,-6.495344424E-1,-8.199696690E-1,1.438492981E0
1.076571475E1,1.495715133E0,-6.302236473E-1,-7.765967774E-1,1.799291015E0
1.077569975E1,2.206127568E0,-5.040186237E-1,-6.334908521E-1,2.349966868E0
1.078568575E1,2.876038680E0,-4.265645048E-1,-2.794980776E-1,2.920903104E0
1.079567075E1,3.603025634E0,-1.732212055E-1,1.062316293E-1,3.608751095E0
1.080565575E1,4.534455512E0,8.030354016E-2,7.041538686E-1,4.589506305E0
1.081564175E1,5.579822481E0,2.417918690E-1,1.672592529E0,5.830132759E0
1.082562675E1,6.304766124E0,5.047974363E-1,2.687124791E0,6.872083816E0
1.083561175E1,6.781962656E0,7.567071079E-1,3.537518107E0,7.686459359E0
1.084559775E1,7.155329010E0,9.499841901E-1,4.240668594E0,8.371646990E0
1.085558275E1,7.347708837E0,9.439758106E-1,4.926510737E0,8.896652378E0
1.086556875E1,7.327275158E0,9.935615149E-1,5.571572059E0,9.258430803E0
1.087555375E1,7.037985917E0,1.071450301E0,6.339642427E0,9.532697290E0
1.088553875E1,6.842371995E0,1.216162530E0,7.158644382E0,9.977138628E0
1.089552475E1,6.754375493E0,1.228147275E0,7.824501327E0,1.040926294E1
1.090550975E1,6.997562946E0,1.204937995E0,8.643566431E0,1.118610761E1
1.091549475E1,7.298761795E0,1.550116750E0,9.784641210E0,1.230503918E1
1.092548075E1,7.495763261E0,1.890055449E0,1.133298450E1,1.371842973E1
1.093546575E1,7.510973623E0,2.152711353E0,1.268475551E1,1.489805065E1
1.094545075E1,7.244504896E0,2.056225278E0,1.384699253E1,1.576230046E1
1.095543675E1,6.641769814E0,1.812137792E0,1.472048235E1,1.625083229E1
1.096542175E1,5.395056898E0,1.370537063E0,1.561223887E1,1.657489105E1
1.097540775E1,3.881989276E0,6.137003660E-1,1.635260981E1,1.681827329E1
1.098539275E1,2.094534189E0,-3.195815449E-1,1.644769840E1,1.658360601E1
1.099537775E1,4.436032547E-1,-1.406847103E0,1.599441172E1,1.606229152E1
1.100536375E1,-1.150087823E0,-2.436573062E0,1.530758256E1,1.554289787E1
1.101534875E1,-2.471752542E0,-3.299151683E0,1.465720144E1,1.522588311E1
1.102533375E1,-3.539580420E0,-3.850796719E0,1.421133371E1,1.514329128E1
1.103531975E1,-4.818240184E0,-4.795870491E0,1.423056520E1,1.577101132E1
1.104530475E1,-6.320890406E0,-5.992773315E0,1.408074199E1,1.655700102E1
1.105529075E1,-7.560039364E0,-7.075133278E0,1.340116573E1,1.693525757E1
1.106527575E1,-8.336140298E0,-8.009182125E0,1.269736912E1,1.717152923E1
1.107526075E1,-8.912847084E0,-8.723719479E0,1.217872343E1,1.743167890E1
1.108524675E1,-9.675024628E0,-9.507194921E0,1.168726496E1,1.790488813E1
1.109523175E1,-1.050434516E1,-1.008075649E1,1.093583810E1,1.820866480E1
1.110521675E1,-1.106451778E1,-1.068871021E1,1.020442276E1,1.846083215E1
1.111520275E1,-1.162510906E1,-1.151294776E1,9.292818453E0,1.881615268E1
1.112518775E1,-1.248715119E1,-1.232586277E1,7.954491947E0,1.926472891E1
1.113517275E1,-1.323003760E1,-1.287845271E1,6.312112566E0,1.951233467E1
1.114515875E1,-1.367629126E1,-1.317016796E1,4.511606932E0,1.951534944E1
1.115514375E1,-1.387207826E1,-1.303725023E1,2.564407521E0,1.920886864E1
1.116512975E1,-1.373402082E1,-1.277662462E1,1.018879082E0,1.878572807E1
1.117511475E1,-1.317681391E1,-1.272349799E1,-2.720007777E-2,1.831711128E1
1.118509975E1,-1.252402608E1,-1.292829321E1,-1.039919118E0,1.802979274E1
1.119508575E1,-1.195960721E1,-1.322084110E1,-2.169473712E0,1.795910522E1
1.120507075E1,-1.135895432E1,-1.324243253E1,-3.398049150E0,1.777454924E1
1.121505575E1,-1.094497029E1,-1.302747719E1,-4.437430909E0,1.758403621E1
1.122504175E1,-1.051111156E1,-1.281428771E1,-5.151003472E0,1.735575618E1
1.123502675E1,-9.786986529E0,-1.255426203E1,-5.758043275E0,1.692777784E1
1.124501275E1,-8.745776346E0,-1.264587854E1,-6.001351765E0,1.650524374E1
1.125499775E1,-7.816600569E0,-1.306032217E1,-6.127244657E0,1.640775386E1
1.126498275E1,-7.270254280E0,-1.315088385E1,-6.458129236E0,1.635572611E1
1.127496875E1,-6.704731463E0,-1.342179587E1,-6.682790371E0,1.642430259E1
1.128495375E1,-6.341998270E0,-1.383863803E1,-7.123060566E0,1.680674973E1
1.129493875E1,-5.947033471E0,-1.397760763E1,-8.003654752E0,1.716971787E1
1.130492475E1,-5.216064856E0,-1.401611623E1,-8.626528814E0,1.726487318E1
1.131490975E1,-4.541349964E0,-1.411678423E1,-8.923981937E0,1.730736578E1
1.132489475E1,-3.845824832E0,-1.383174767E1,-9.140369847E0,1.701922364E1
1.133488075E1,-3.008260598E0,-1.355838800E1,-8.897399325E0,1.649373310E1
1.134486575E1,-2.478110220E0,-1.360417404E1,-8.305733607E0,1.613070960E1
1.135485175E1,-2.086048855E0,-1.351909471E1,-7.852296066E0,1.577263691E1
1.136483675E1,-1.643585515E0,-1.333239311E1,-7.537857952E0,1.540368079E1
1.137482175E1,-1.031419824E0,-1.331990112E1,-7.312513862E0,1.523011660E1
1.138480775E1,-8.363287166E-2,-1.311457264E1,-7.290889689E0,1.500520184E1
1.139479275E1,6.576614875E-1,-1.284401144E1,-7.392066985E0,1.483387350E1
1.140477775E1,1.140483918E0,-1.278785362E1,-7.517220204E0,1.487744949E1
1.141476375E1,1.628543699E0,-1.285515975E1,-7.755858523E0,1.510167633E1
1.142474875E1,2.058091417E0,-1.306126123E1,-7.871232274E0,1.538793627E1
1.143473375E1,2.157408714E0,-1.372770115E1,-7.752491696E0,1.591242655E1
1.144471975E1,2.622705431E0,-1.455392558E1,-7.736991897E0,1.669000830E1
1.145470446E1,3.254360842E0,-1.461418465E1,-7.412702394E0,1.670668771E1
1.146469046E1,2.915986858E0,-1.453190380E1,-6.430218136E0,1.615632732E1
1.147467546E1,1.887337663E0,-1.436052541E1,-5.484069062E0,1.548747065E1
1.148466046E1,1.031969828E0,-1.434476834E1,-5.031404523E0,1.523654724E1
1.149464646E1,1.045610797E-1,-1.442516288E1,-4.695581971E0,1.517052231E1
1.150463146E1,-7.226196679E-1,-1.431557670E1,-4.540872831E0,1.503587182E1
1.151461646E1,-5.048909917E-1,-1.444184147E1,-4.780574175E0,1.522089319E1
1.152460246E1,6.798034313E-1,-1.471317216E1,-4.839724608E0,1.550362867E1
1.153458746E1,1.852975039E0,-1.486376486E1,-4.813080601E0,1.573311054E1
1.154457246E1,3.208370737E0,-1.478225467E1,-4.687523924E0,1.583608464E1
1.155455846E1,4.545472836E0,-1.444192333E1,-4.072561144E0,1.567852758E1
1.156454346E1,5.763315709E0,-1.351872634E1,-2.720962043E0,1.494574870E1
1.157452946E1,6.981977777E0,-1.267869545E1,-8.715070277E-1,1.450023643E1
1.158451446E1,8.029477226E0,-1.228378854E1,6.869501907E-1,1.469135344E1
1.159449946E1,9.339439473E0,-1.188716840E1,1.502763074E0,1.519171482E1
1.160448546E1,1.152225536E1,-1.118033943E1,2.050461824E0,1.618538699E1
1.161447046E1,1.313487300E1,-1.022417466E1,2.449430797E0,1.682433795E1
1.162445546E1,1.399858861E1,-9.322110665E0,3.202432305E0,1.712068349E1
1.163444146E1,1.467685043E1,-8.626111908E0,5.319618461E0,1.783586515E1
1.164442646E1,1.514209934E1,-7.782034754E0,7.878169996E0,1.875923239E1
1.165441146E1,1.550072662E1,-6.555587702E0,9.661764312E0,1.940613165E1
1.166439746E1,1.529024089E1,-6.312857502E0,1.092506870E1,1.982424683E1
1.167438246E1,1.469136555E1,-6.745316402E0,1.149234218E1,1.983455177E1
1.168436846E1,1.398511897E1,-6.845571592E0,1.174543774E1,1.950386399E1
1.169435346E1,1.257046817E1,-7.215412075E0,1.300261951E1,1.947169627E1
1.170433846E1,1.104519507E1,-6.146151629E0,1.434522910E1,1.911954790E1
1.171432446E1,9.344270443E0,-4.746940990E0,1.579702492E1,1.895771176E1
1.172430946E1,7.298876985E0,-4.529309085E0,1.748181708E1,1.947824875E1
1.173429446E1,5.670723295E0,-3.719708869E0,1.747441450E1,1.874429244E1
1.174428046E1,3.307801177E0,-3.820177774E0,1.640156854E1,1.716236457E1
1.175426546E1,3.537398824E-1,-4.835163780E0,1.581937765E1,1.654559307E1
1.176425146E1,-1.968933950E0,-4.629701393E0,1.567918247E1,1.646656002E1
1.177423646E1,-4.196119827E0,-3.992540243E0,1.591668936E1,1.693779204E1
1.178422146E1,-6.842847959E0,-3.275506128E0,1.640656324E1,1.807564178E1
1.179420746E1,-9.397849064E0,-2.428878272E0,1.686856695E1,1.946195179E1
1.180419246E1,-1.200863962E1,-2.010987710E0,1.724126613E1,2.110717307E1
1.181417746E1,-1.384603125E1,-1.429491761E0,1.726802767E1,2.217973867E1
1.182416346E1,-1.404468806E1,-9.574705996E-1,1.693725302E1,2.202363622E1
1.183414846E1,-1.357992329E1,-6.630822949E-1,1.609333608E1,2.106773507E1
1.184413346E1,-1.337052281E1,-4.338261254E-1,1.470247877E1,1.987767510E1
1.185411946E1,-1.302647615E1,-1.090105185E-1,1.280969180E1,1.826989787E1
1.186410446E1,-1.212923260E1,1.391324499E-1,1.037143327E1,1.595945705E1
1.187409046E1,-1.128867430E1,3.563239132E-1,7.419449496E0,1.351330326E1
1.188407546E1,-1.089473920E1,2.683804742E-1,4.502044396E0,1.179134318E1
1.189406046E1,-1.094938727E1,-1.027238846E-1,2.130214922E0,1.115515349E1
1.190404646E1,-1.086513006E1,-3.992054924E-1,5.878439784E-1,1.088834133E1
1.191403146E1,-1.033134009E1,-6.172777656E-1,-1.225231415E-1,1.035048944E1
1.192401646E1,-9.406715782E0,-3.794169798E-1,-8.352279782E-2,9.414735000E0
1.193400246E1,-8.429257792E0,7.945050448E-2,5.794508851E-1,8.449524403E0
1.194398746E1,-7.230214886E0,3.370899358E-1,9.923210281E-1,7.305774288E0
1.195397246E1,-5.765882052E0,1.684868612E-1,8.920295852E-1,5.836908466E0
1.196395846E1,-4.633325497E0,8.317021072E-2,6.614370346E-1,4.681038495E0
1.197394346E1,-3.724466748E0,-2.398092243E-1,3.024267644E-1,3.744412233E0
1.198392946E1,-3.082173790E0,-6.061201087E-1,-4.722497874E-1,3.176507000E0
1.199391446E1,-2.858216952E0,-8.878946536E-1,-1.472229499E0,3.335449109E0
1.200389946E1,-2.827590698E0,-1.036856492E0,-2.342620878E0,3.815522653E0
1.201388546E1,-2.817837542E0,-8.939490069E-1,-3.000084729E0,4.211871511E0
1.202387046E1,-2.563916940E0,-7.530981334E-1,-3.366905125E0,4.298473799E0
1.203385546E1,-2.149166625E0,-6.407200572E-1,-3.435895838E0,4.103025662E0
1.204384146E1,-1.736577733E0,-5.139944487E-1,-3.002865080E0,3.506720862E0
1.205382646E1,-1.396762117E0,-2.226244402E-1,-2.198844277E0,2.614464038E0
1.206381246E1,-1.044586073E0,4.541444689E-2,-1.256394151E0,1.634548500E0
1.207379746E1,-8.035568270E-1,2.283702432E-1,-5.403634179E-1,9.949116371E-1
1.208378246E1,-6.449398465E-1,2.669715510E-1,-2.502351022E-1,7.415111739E-1
1.209376846E1,-7.151893187E-1,1.978626148E-1,-3.231335092E-1,8.093581658E-1
1.210375346E1,-1.067024471E0,2.035996836E-1,-6.592589468E-1,1.270675573E0
1.211373846E1,-1.451901507E0,4.092564907E-2,-8.979592466E-1,1.707636877E0
1.212372446E1,-1.569612975E0,-4.148848012E-2,-9.904177594E-1,1.856430317E0
1.213370946E1,-1.285832543E0,4.590298176E-2,-8.529590750E-1,1.543700617E0
1.214369446E1,-7.974133037E-1,2.038506753E-1,-5.379607970E-1,9.832725430E-1
1.215368046E1,-4.864326476E-1,3.719364175E-1,-1.148486710E-1,6.230117467E-1
1.216366546E1,-2.471754004E-1,4.472071861E-1,3.283457172E-1,6.073720901E-1
1.217365146E1,-1.325718740E-1,4.479135297E-1,7.124738717E-1,8.519512015E-1
1.218363646E1,-2.718901192E-1,3.924528354E-1,1.013908948E0,1.120693901E0
1.219362146E1,-5.145359740E-1,2.693853913E-1,1.116245162E0,1.258300052E0
1.220360746E1,-8.360692464E-1,1.972748966E-1,1.032059875E0,1.342786936E0
1.221359246E1,-1.142219956E0,1.743051331E-1,8.326277214E-1,1.424190166E0
1.222357746E1,-1.416885895E0,1.080137144E-1,5.826089662E-1,1.535794846E0
1.223356346E1,-1.522219392E0,-3.530746154E-2,2.872286814E-1,1.549483401E0
1.224354846E1,-1.345576030E0,-1.020971362E-1,3.146035910E-2,1.349810517E0
1.225353446E1,-1.041235034E0,-1.175010411E-1,-7.626523376E-3,1.047871678E0
1.226351946E1,-6.712792142E-1,-1.385429775E-1,6.534848213E-2,6.885349404E-1
1.227350446E1,-2.728674813E-1,-1.220737099E-1,-2.722288191E-2,3.001661844E-1
1.228349046E1,-3.198573142E-2,-1.070546249E-1,-1.864671224E-1,2.173793170E-1
1.229347546E1,1.119059135E-1,-1.534185134E-1,-2.630001587E-1,3.243905936E-1
1.230346046E1,3.666348933E-1,-2.174577308E-1,-3.000241435E-1,5.212710392E-1
1.231344646E1,7.027417660E-1,-4.286651536E-1,-3.614216620E-1,8.990135824E-1
1.232343146E1,1.024875109E0,-4.594155876E-1,-4.078479695E-1,1.194893986E0
1.233341646E1,1.358765595E0,-4.725015832E-1,-3.371258962E-1,1.477550526E0
1.234340246E1,1.981869160E0,-3.494646907E-1,-1.370604891E-1,2.017105976E0
1.235338746E1,2.967566024E0,-1.772975919E-1,2.575891453E-1,2.983996433E0
1.236337346E1,3.959515754E0,-9.902237780E-2,1.007234352E0,4.086819237E0
1.237335846E1,4.709187273E0,8.382224835E-2,2.049223968E0,5.136417994E0
1.238334346E1,5.513171239E0,4.119481833E-1,3.504733354E0,6.545831826E0
1.239332946E1,6.332831005E0,6.005543634E-1,5.354360862E0,8.314721542E0
1.240331446E1,7.016462317E0,7.691502021E-1,6.975071631E0,9.923404644E0
1.241329946E1,7.709257384E0,9.115396973E-1,8.009159321E0,1.115393146E1
1.242328546E1,8.281556540E0,9.457785071E-1,8.678166161E0,1.203284021E1
1.243327046E1,8.689713242E0,9.582427244E-1,9.037824302E0,1.257424405E1
1.244325546E1,9.212973554E0,1.329057500E0,9.386739355E0,1.321953673E1
1.245324146E1,9.804785453E0,1.524608272E0,1.013322473E1,1.418240077E1
1.246322633E1,1.030348629E1,1.557554701E0,1.089425271E1,1.507556130E1
1.247321233E1,1.065992905E1,1.493978363E0,1.164711096E1,1.585942156E1
1.248319733E1,1.057780257E1,1.311934513E0,1.252220759E1,1.644435351E1
1.249318233E1,9.539192639E0,9.232648265E-1,1.369711787E1,1.671704675E1
1.250316833E1,7.587654009E0,3.053123653E-3,1.463581233E1,1.648573642E1
1.251315333E1,5.595738017E0,-1.118541218E0,1.478909241E1,1.585183499E1
1.252313833E1,3.883625327E0,-2.426569937E0,1.432652503E1,1.504061523E1
1.253312433E1,2.267902525E0,-3.622436343E0,1.363273301E1,1.428694636E1
1.254310933E1,2.803492860E-1,-4.558604220E0,1.307229493E1,1.384717888E1
1.255309533E1,-1.869602766E0,-5.194037225E0,1.232878170E1,1.350823065E1
1.256308033E1,-3.838421087E0,-5.764912584E0,1.179988935E1,1.368229082E1
1.257306533E1,-5.169630947E0,-6.440408079E0,1.176380267E1,1.437327359E1
1.258305133E1,-5.974899547E0,-6.969179392E0,1.155806839E1,1.476000782E1
1.259303633E1,-6.498820009E0,-7.483277117E0,1.106158482E1,1.485236535E1
1.260302133E1,-7.302970036E0,-7.641316246E0,1.111983946E1,1.534190063E1
1.261300733E1,-8.197632623E0,-7.526630128E0,1.170714783E1,1.615266702E1
1.262299233E1,-9.148867021E0,-7.593897082E0,1.184276581E1,1.678154173E1
1.263297733E1,-9.974870431E0,-7.713907675E0,1.167858067E1,1.718696187E1
1.264296333E1,-1.098949683E1,-8.267826108E0,1.116658327E1,1.771492509E1
1.265294833E1,-1.196394935E1,-9.334657620E0,1.001562319E1,1.818198627E1
1.266293433E1,-1.222046904E1,-1.051166822E1,8.385991904E0,1.817030249E1
1.267291933E1,-1.241256177E1,-1.134201260E1,6.519158379E0,1.803364538E1
1.268290433E1,-1.272541003E1,-1.174370579E1,4.763410258E0,1.795941991E1
1.269289033E1,-1.325076131E1,-1.253864411E1,3.153910940E0,1.851343906E1
1.270287533E1,-1.342496974E1,-1.353197379E1,1.540164789E0,1.912370871E1
1.271286033E1,-1.328614047E1,-1.406699753E1,-1.839399558E-1,1.935034320E1
1.272284633E1,-1.297352610E1,-1.428360412E1,-1.672126506E0,1.936826614E1
1.273283133E1,-1.260216242E1,-1.405705024E1,-2.789286758E0,1.908390106E1
1.274281633E1,-1.246691866E1,-1.407374054E1,-3.155409581E0,1.906438678E1
1.275280233E1,-1.228735534E1,-1.426077659E1,-3.188881967E0,1.909234974E1
1.276278733E1,-1.192054313E1,-1.433462342E1,-3.399006339E0,1.895083168E1
1.277277333E1,-1.149845135E1,-1.484658223E1,-3.459750724E0,1.909463963E1
1.278275833E1,-1.085034012E1,-1.508400258E1,-3.782809973E0,1.896224316E1
1.279274333E1,-1.025437786E1,-1.517450695E1,-4.153083735E0,1.877940444E1
1.280272933E1,-9.821701448E0,-1.582101721E1,-4.234441309E0,1.909714372E1
1.281271433E1,-9.517172610E0,-1.614167150E1,-4.603954348E0,1.929576454E1
1.282269933E1,-9.192303647E0,-1.580511863E1,-5.066993601E0,1.897299780E1
1.283268533E1,-8.826456812E0,-1.542207221E1,-5.229681852E0,1.852285679E1
1.284267033E1,-8.468394960E0,-1.519630069E1,-5.195905995E0,1.815595514E1
1.285265533E1,-7.980276414E0,-1.513772095E1,-5.090695875E0,1.785358764E1
1.286264133E1,-7.499082141E0,-1.520386933E1,-5.005203735E0,1.767614041E1
1.287262633E1,-6.676456082E0,-1.506374899E1,-5.194899690E0,1.727653270E1
1.288261233E1,-5.593442985E0,-1.481425766E1,-5.523124369E0,1.677062125E1
1.289259733E1,-4.784999932E0,-1.484031402E1,-5.698972363E0,1.660148880E1
1.290258233E1,-3.959201759E0,-1.496318624E1,-5.972993354E0,1.659062598E1
1.291256833E1,-3.109924091E0,-1.484273360E1,-6.415640443E0,1.646629317E1
1.292255333E1,-2.238474658E0,-1.508932237E1,-6.644317446E0,1.663867101E1
1.293253833E1,-1.134238068E0,-1.570141709E1,-6.698698305E0,1.710828904E1
1.294252433E1,2.673291448E-1,-1.578633855E1,-6.723427935E0,1.716054873E1
1.295250933E1,1.325906143E0,-1.542619216E1,-6.323449733E0,1.672457618E1
1.296249533E1,1.606053554E0,-1.545474879E1,-5.452579467E0,1.646691505E1
1.297248033E1,1.477185306E0,-1.547070351E1,-4.638255869E0,1.621845125E1
1.298246533E1,1.623062519E0,-1.545327646E1,-3.939054592E0,1.602979215E1
1.299245133E1,2.170416868E0,-1.575688378E1,-3.512258136E0,1.628883216E1
1.300243633E1,2.774705848E0,-1.586149983E1,-3.385229130E0,1.645435947E1
1.301242133E1,2.658303572E0,-1.551458218E1,-2.898327389E0,1.600528475E1
1.302240733E1,1.953912891E0,-1.533242738E1,-1.996524183E0,1.558483923E1
1.303239233E1,1.562027236E0,-1.533641284E1,-1.516592909E0,1.549017566E1
1.304237733E1,2.180700366E0,-1.473106113E1,-1.321908694E0,1.495015247E1
1.305236333E1,3.710981899E0,-1.368168473E1,-1.184478661E0,1.422543052E1
1.306234833E1,5.476356584E0,-1.271810803E1,-1.039549574E0,1.388601514E1
1.307233433E1,7.305770853E0,-1.187689484E1,-9.644783413E-1,1.397730794E1
1.308231933E1,8.745400954E0,-1.097375028E1,-1.373661230E0,1.409936801E1
1.309230433E1,1.004363603E1,-9.878491945E0,-1.837054825E0,1.420682928E1
1.310229033E1,1.155843676E1,-8.760382106E0,-1.560492049E0,1.458687391E1
1.311227533E1,1.246051713E1,-7.714946725E0,-1.182958385E0,1.470320647E1
1.312226033E1,1.310511769E1,-6.895590429E0,-7.394453233E-1,1.482700430E1
1.313224633E1,1.369529003E1,-6.406072059E0,-1.818881679E-1,1.512057577E1
1.314223133E1,1.366396533E1,-5.735463082E0,-3.758525902E-1,1.482365509E1
1.315221733E1,1.393131289E1,-5.291340741E0,-7.033726805E-1,1.491893089E1
1.316220233E1,1.464923637E1,-4.312429717E0,-8.804310483E-1,1.529615425E1
1.317218733E1,1.492048636E1,-3.366002315E0,-5.441301942E-1,1.530512863E1
1.318217333E1,1.500109725E1,-3.495056212E0,8.757930368E-1,1.542774611E1
1.319215833E1,1.535628870E1,-3.936505206E0,2.336284250E0,1.602404131E1
1.320214333E1,1.560150806E1,-4.737778988E0,3.493339469E0,1.667504195E1
1.321212933E1,1.517878360E1,-6.042050725E0,4.496915803E0,1.694473666E1
1.322211433E1,1.445955152E1,-6.714707397E0,4.935782667E0,1.668915445E1
1.323209933E1,1.242472281E1,-6.384328018E0,4.965134520E0,1.482517932E1
1.324208533E1,8.711060257E0,-5.813982418E0,5.640347595E0,1.189531350E1
1.325207033E1,3.963370823E0,-5.263415024E0,7.670352935E0,1.011168434E1
1.326205633E1,-9.771432643E-1,-5.157949964E0,1.107962932E1,1.226040141E1
1.327204133E1,-4.509042343E0,-5.607371053E0,1.501847049E1,1.665318375E1
1.328202633E1,-5.318934921E0,-5.510095603E0,1.833922822E1,1.987409153E1
1.329201233E1,-4.395480937E0,-4.964778425E0,2.033342112E1,2.138731615E1
1.330199733E1,-3.522959710E0,-4.467857188E0,2.025810898E1,2.104195743E1
1.331198233E1,-4.050329445E0,-3.666631938E0,1.799393377E1,1.880507939E1
1.332196833E1,-6.155276794E0,-2.525280586E0,1.535403869E1,1.673352857E1
1.333195333E1,-9.300898721E0,-1.082547586E0,1.358505364E1,1.649946389E1
1.334193833E1,-1.277130132E1,-9.295558459E-1,1.259334248E1,1.796002467E1
1.335192433E1,-1.523309254E1,-1.239689533E0,1.163313143E1,1.920712591E1
1.336190933E1,-1.538558910E1,-9.357173494E-1,1.079576338E1,1.881861912E1
1.337189533E1,-1.393015748E1,-6.330178124E-1,1.076272427E1,1.761494345E1
1.338188033E1,-1.207817939E1,3.104491442E-2,1.114338502E1,1.643345402E1
1.339186533E1,-1.035451611E1,9.607513261E-1,1.131335657E1,1.536655732E1
1.340185133E1,-8.870919040E0,1.426283540E0,1.069305703E1,1.396670892E1
1.341183633E1,-7.539005760E0,1.531463255E0,9.023027923E0,1.185736145E1
1.342182133E1,-6.483147132E0,1.462711109E0,6.880907485E0,9.566483594E0
1.343180733E1,-5.789048721E0,1.284164332E0,4.613312817E0,7.512976658E0
1.344179233E1,-5.309626154E0,9.604312641E-1,2.358940457E0,5.888901271E0
1.345177833E1,-4.908028858E0,5.297054055E-1,5.439132625E-1,4.966404808E0
1.346176338E1,-4.798284221E0,9.784379840E-2,-6.001289785E-1,4.836657903E0
1.347174837E1,-4.774223806E0,-1.913333946E-1,-1.141728498E0,4.912572176E0
1.348173438E1,-4.635878099E0,-2.660179798E-1,-9.710786784E-1,4.743956694E0
1.349171938E1,-4.484172674E0,-1.641616758E-1,-2.988786739E-1,4.497119309E0
1.350170438E1,-4.071888129E0,1.718735685E-1,5.439571166E-1,4.111654509E0
1.351169037E1,-3.421154423E0,4.715851052E-1,1.460039808E0,3.749454139E0
1.352167537E1,-2.871876048E0,6.408341510E-1,1.882629193E0,3.493226749E0
1.353166038E1,-2.530020046E0,5.507135743E-1,1.483462000E0,2.984115678E0
1.354164638E1,-2.464161102E0,2.851746277E-1,5.593949354E-1,2.542899369E0
1.355163137E1,-2.559599941E0,-1.640509441E-2,-3.376129693E-1,2.581821741E0
1.356161738E1,-2.713957078E0,-2.592386448E-1,-9.440797448E-1,2.885143716E0
1.357160238E1,-2.742252340E0,-3.491175853E-1,-1.354453127E0,3.078372014E0
1.358158738E1,-2.717322736E0,-3.527389122E-1,-1.317837278E0,3.040553022E0
1.359157337E1,-2.774697078E0,-1.911530080E-1,-8.422960925E-1,2.906018935E0
1.360155837E1,-2.819988148E0,1.257005185E-3,-3.179528761E-1,2.837856368E0
1.361154338E1,-2.152106313E0,-6.535147883E-2,-1.433129168E-1,2.157862597E0
1.362152938E1,-6.156593294E-1,-1.109473356E-1,-4.473447418E-1,7.690663425E-1
1.363151438E1,4.335181233E-1,-9.244652599E-2,-7.050999480E-1,8.328566864E-1
1.364150038E1,3.822786802E-1,-2.637657054E-2,-6.831091547E-1,7.832437871E-1
1.365148538E1,-2.557342623E-1,2.072830640E-2,-5.879696935E-1,6.415123040E-1
1.366147038E1,-1.039476191E0,-1.283405364E-2,-5.742304909E-1,1.187609415E0
1.367145637E1,-1.478523880E0,-4.475217663E-2,-7.427022225E-1,1.655186459E0
1.368144137E1,-1.479535010E0,-9.473841526E-2,-1.027051150E0,1.803561276E0
1.369142638E1,-1.401259065E0,-1.883711220E-1,-1.426413640E0,2.008398994E0
1.370141238E1,-1.410013955E0,-1.685975198E-1,-1.746904208E0,2.251274925E0
1.371139738E1,-1.249362874E0,-1.675127151E-1,-2.066936354E0,2.420990292E0
1.372138237E1,-2.261736636E-1,-2.928459553E-1,-2.708856552E0,2.734011174E0
1.373136838E1,1.442965938E0,-4.915584630E-1,-3.492277615E0,3.810483350E0
1.374135338E1,2.548517128E0,-8.164782965E-1,-4.116377839E0,4.909800696E0
1.375133937E1,2.608863902E0,-1.142105205E0,-4.155950625E0,5.038104877E0
1.376132437E1,2.304815120E0,-1.103313533E0,-3.511027297E0,4.342440117E0
1.377130938E1,2.131304258E0,-9.691993102E-1,-2.342141991E0,3.311711679E0
1.378129538E1,2.269768371E0,-7.623520830E-1,-8.540565974E-1,2.542133322E0
1.379128038E1,2.943440705E0,-2.358778489E-1,6.798697972E-1,3.030132750E0
1.380126537E1,3.942931296E0,1.226102650E-1,2.186318956E0,4.510180824E0
1.381125138E1,4.990445362E0,4.890198943E-1,3.983943082E0,6.404333521E0
1.382123638E1,5.871014990E0,1.092682199E0,5.849843976E0,8.359631926E0
1.383122138E1,6.748937582E0,1.650642959E0,7.727081451E0,1.039136990E1
1.384120737E1,7.474947174E0,2.303499643E0,9.359776089E0,1.219780121E1
1.385119238E1,7.346496710E0,2.493318828E0,1.046740246E1,1.302897413E1
1.386117838E1,6.567784410E0,2.056978984E0,1.070997303E1,1.273069035E1
1.387116338E1,5.795157307E0,1.592658460E0,1.020307323E1,1.184158403E1
1.388114837E1,5.220186558E0,1.045471195E0,9.719871018E0,1.108238469E1
1.389113438E1,4.970236216E0,6.309853202E-1,9.552928918E0,1.078702190E1
1.390111938E1,5.092690945E0,5.943918367E-1,9.651824046E0,1.092915871E1
1.391110438E1,5.030914527E0,5.966893539E-1,1.005972990E1,1.126340556E1
1.392109037E1,4.602093179E0,4.767211533E-1,1.077962974E1,1.173059853E1
1.393107538E1,4.166298150E0,2.499379174E-1,1.159111568E1,1.231967824E1
1.394106138E1,3.988311829E0,3.145743549E-2,1.245150774E1,1.307469563E1
1.395104638E1,3.860593144E0,-1.834755407E-1,1.332734697E1,1.387645560E1
1.396103137E1,3.440851646E0,-4.250266506E-1,1.406603157E1,1.448700631E1
1.397101738E1,2.777461349E0,-7.604524688E-1,1.455637673E1,1.483848655E1
1.398100238E1,1.573206820E0,-1.226843785E0,1.471494153E1,1.484956664E1
1.399098738E1,-3.072470628E-1,-2.011748140E0,1.463628595E1,1.477709030E1
1.400097337E1,-2.253817167E0,-3.053755737E0,1.432198057E1,1.481635054E1
1.401095838E1,-4.051530463E0,-4.010537681E0,1.396439410E1,1.508322293E1
1.402094338E1,-5.743956163E0,-4.866358091E0,1.405236078E1,1.594187307E1
1.403092938E1,-6.628641061E0,-5.577029266E0,1.427230263E1,1.669553114E1
1.404091437E1,-6.885729100E0,-6.261181564E0,1.416493371E1,1.694877597E1
1.405090038E1,-6.760091731E0,-7.042255554E0,1.381933520E1,1.691940392E1
1.406088538E1,-6.736923308E0,-7.724834366E0,1.340058919E1,1.687112896E1
1.407087038E1,-7.014182487E0,-8.210937962E0,1.287003974E1,1.680048157E1
1.408085637E1,-7.389885389E0,-8.810646526E0,1.242482455E1,1.692968291E1
1.409084138E1,-7.568738852E0,-9.291498152E0,1.198840475E1,1.695109419E1
1.410082638E1,-7.406801383E0,-9.854130106E0,1.163601996E1,1.695174172E1
1.411081238E1,-7.652131841E0,-1.065098281E1,1.113775649E1,1.720605057E1
1.412079737E1,-8.266049139E0,-1.159483217E1,1.025278391E1,1.754671706E1
1.413078237E1,-8.893999754E0,-1.243752354E1,9.106988677E0,1.779697913E1
1.414076838E1,-9.573308219E0,-1.324736992E1,7.865847573E0,1.813870442E1
1.415075338E1,-1.032714412E1,-1.404225445E1,6.389087652E0,1.856489313E1
1.416073937E1,-1.093976509E1,-1.469034112E1,4.752285930E0,1.892270605E1
1.417072437E1,-1.091826488E1,-1.493629489E1,3.181020970E0,1.877286093E1
1.418070938E1,-1.031394813E1,-1.486682295E1,1.916870488E0,1.819544842E1
1.419069538E1,-9.318002411E0,-1.470738459E1,1.021637798E0,1.744064431E1
1.420068037E1,-8.295141960E0,-1.449989614E1,2.797337204E-1,1.670732232E1
1.421066537E1,-7.362637364E0,-1.450332729E1,-3.006421942E-1,1.626792295E1
1.422065138E1,-6.494577854E0,-1.458802070E1,-8.129606116E-1,1.598908360E1
1.423063638E1,-6.108798446E0,-1.448826486E1,-1.290364135E0,1.577632012E1
1.424062237E1,-6.321082780E0,-1.420513683E1,-1.847018480E0,1.565737772E1
1.425060737E1,-6.641039497E0,-1.390981502E1,-2.336684784E0,1.558994725E1
1.426059238E1,-6.871726772E0,-1.407120402E1,-2.596948446E0,1.587335984E1
1.427057838E1,-6.954503465E0,-1.443096565E1,-2.925706392E0,1.628427604E1
1.428056338E1,-6.786249835E0,-1.475835243E1,-3.373653105E0,1.659046981E1
1.429054837E1,-6.373570311E0,-1.486823915E1,-4.051103909E0,1.667628186E1
1.430053438E1,-5.876588556E0,-1.449780167E1,-4.783553331E0,1.635857355E1
1.431051938E1,-5.438216366E0,-1.441198091E1,-5.334962139E0,1.630157085E1
1.432050438E1,-5.405389513E0,-1.441307317E1,-5.968506201E0,1.650993581E1
1.433049037E1,-5.731479374E0,-1.460940747E1,-6.508372605E0,1.698951313E1
1.434047538E1,-6.286646773E0,-1.490176825E1,-7.205357788E0,1.770598220E1
1.435046138E1,-6.967045158E0,-1.521073630E1,-8.123875844E0,1.859848316E1
1.436044638E1,-7.588838655E0,-1.535276517E1,-8.863808241E0,1.928380064E1
1.437043137E1,-8.189740636E0,-1.549630262E1,-9.165510535E0,1.977912611E1
1.438041738E1,-8.181906536E0,-1.549290772E1,-9.291409859E0,1.983189556E1
1.439040238E1,-7.397002035E0,-1.547662557E1,-9.134265938E0,1.943389802E1
1.440038738E1,-6.206803043E0,-1.588053134E1,-9.000054213E0,1.927995476E1
1.441037337E1,-4.752517187E0,-1.605569054E1,-9.080061080E0,1.904781162E1
1.442035838E1,-3.062530361E0,-1.609765834E1,-8.873539177E0,1.863473622E1
1.443034338E1,-1.294625147E0,-1.601804733E1,-8.378324450E0,1.812319550E1
1.444032938E1,3.424489090E-1,-1.593467539E1,-7.832883310E0,1.775908815E1
1.445031437E1,1.303979377E0,-1.594289658E1,-7.303048974E0,1.758439188E1
1.446030058E1,1.639202296E0,-1.585367040E1,-6.439390079E0,1.718986894E1
1.447028558E1,1.629019078E0,-1.582005827E1,-5.026327386E0,1.667908612E1
1.448027058E1,1.222451649E0,-1.581549744E1,-3.625021397E0,1.627160494E1
1.449025658E1,1.088346635E0,-1.530684347E1,-3.083866559E0,1.565229020E1
1.450024158E1,1.396641665E0,-1.490513040E1,-2.718949724E0,1.521532806E1
1.451022658E1,2.131791039E0,-1.465846093E1,-2.596102939E0,1.503844275E1
1.452021258E1,3.866594142E0,-1.400933112E1,-3.158359501E0,1.487236173E1
1.453019758E1,5.720829840E0,-1.349817571E1,-3.152833590E0,1.499563274E1
1.454018258E1,7.219366547E0,-1.287926197E1,-2.969832405E0,1.506036343E1
1.455016858E1,8.360024419E0,-1.214337117E1,-2.865864818E0,1.501880996E1
1.456015358E1,8.701207699E0,-1.119024695E1,-2.212722058E0,1.434673416E1
1.457013958E1,8.208302622E0,-1.029727187E1,-1.634924766E0,1.326962768E1
1.458012458E1,8.284326950E0,-9.568838022E0,-1.417134694E0,1.273581583E1
1.459010958E1,8.717319117E0,-9.023768181E0,-1.388488015E0,1.262330954E1
1.460009558E1,9.073624465E0,-8.439086376E0,-1.569730065E0,1.249051209E1
1.461008058E1,9.506848766E0,-7.919119801E0,-1.575979570E0,1.247302463E1
1.462006558E1,1.006727164E1,-7.508930022E0,-1.091227266E0,1.260653661E1
1.463005158E1,1.082463927E1,-6.961127191E0,-5.008151901E-1,1.287947681E1
1.464003658E1,1.150727363E1,-6.679186147E0,-1.342070478E-1,1.330589664E1
1.465002258E1,1.206509683E1,-6.552355362E0,-2.372192001E-1,1.373157658E1
1.466000758E1,1.304462474E1,-6.611164902E0,-3.925580853E-1,1.462955357E1
1.466999258E1,1.422369472E1,-5.638698095E0,-4.914257312E-1,1.530849134E1
1.467997858E1,1.435170898E1,-5.202967093E0,6.517359191E-1,1.527963275E1
1.468996358E1,1.370887311E1,-5.502041649E0,2.855581904E0,1.504526544E1
1.469994858E1,1.301235629E1,-5.478511868E0,4.997493596E0,1.497699739E1
1.470993458E1,1.181929392E1,-6.436670539E0,7.834990647E0,1.557284543E1
1.471991958E1,1.053949862E1,-7.451212741E0,1.099406117E1,1.695496929E1
1.472990458E1,1.000934328E1,-7.141892109E0,1.383146466E1,1.850683632E1
1.473989058E1,9.021022328E0,-6.637966200E0,1.712210105E1,2.045990673E1
1.474987558E1,7.434835274E0,-5.971692349E0,1.967146251E1,2.186102291E1
1.475986158E1,5.390730543E0,-5.268061806E0,2.007328785E1,2.144176616E1
1.476984658E1,1.678216235E0,-5.940078208E0,1.976906658E1,2.071030980E1
1.477983158E1,-3.310707536E0,-6.519475299E0,1.951346841E1,2.083842105E1
1.478981758E1,-9.035828063E0,-6.919250017E0,1.836866544E1,2.160856496E1
1.479980258E1,-1.507178891E1,-7.146571051E0,1.661568072E1,2.354385577E1
1.480978758E1,-1.990994004E1,-6.666265554E0,1.518103244E1,2.590962282E1
1.481977358E1,-2.254277752E1,-5.626526531E0,1.414111216E1,2.719936897E1
1.482975858E1,-2.257092602E1,-4.231312756E0,1.293508651E1,2.635653945E1
1.483974358E1,-2.083263534E1,-2.552463414E0,1.172034149E1,2.403913828E1
1.484972958E1,-1.855971035E1,-1.508555618E0,1.083414684E1,2.154338242E1
1.485971458E1,-1.614570608E1,-1.060771677E0,9.850327077E0,1.894301995E1
1.486970058E1,-1.388046199E1,-3.817148624E-1,9.482092239E0,1.681436899E1
1.487968558E1,-1.196535970E1,2.576255442E-1,9.600336388E0,1.534283750E1
1.488967058E1,-9.676918541E0,9.491694537E-1,9.311107374E0,1.346255532E1
1.489965658E1,-6.657635649E0,1.632270422E0,8.354896996E0,1.080706820E1
1.490964158E1,-3.902526159E0,1.926792628E0,6.980963286E0,8.226547796E0
1.491962658E1,-1.965086921E0,2.053340116E0,5.226929567E0,5.949669313E0
1.492961258E1,-9.543714291E-1,2.053914897E0,3.600419530E0,4.253517605E0
1.493959758E1,-8.106813669E-1,1.827489949E0,2.382573148E0,3.110237708E0
1.494958258E1,-1.055208856E0,1.629252382E0,1.281858190E0,2.326174859E0
1.495956858E1,-1.565447272E0,1.335194299E0,3.444922185E-1,2.086155283E0
1.496955358E1,-2.172209186E0,7.795420200E-1,-2.760739481E-1,2.324305344E0
1.497953958E1,-2.829940109E0,3.773685540E-1,-7.538797599E-1,2.952846549E0
1.498952458E1,-3.431944290E0,8.713893525E-2,-9.177263439E-1,3.553597676E0
1.499950958E1,-3.833291325E0,-1.417465208E-1,-8.580596012E-1,3.930709953E0
1.500949558E1,-3.899593488E0,-2.457263142E-1,-7.779012913E-1,3.984010694E0
1.501948058E1,-3.612403691E0,-3.418875032E-1,-8.454401404E-1,3.725737044E0
1.502946558E1,-3.104855432E0,-3.866312014E-1,-9.912047946E-1,3.282087428E0
1.503945158E1,-2.624782362E0,-5.029044002E-1,-1.093736306E0,2.887672833E0
1.504943658E1,-2.164499925E0,-5.745100609E-1,-1.164802780E0,2.524259743E0
1.505942258E1,-1.695730400E0,-5.380110099E-1,-1.170458792E0,2.129537795E0
1.506940758E1,-1.219705065E0,-6.304899880E-1,-1.063482227E0,1.736718895E0
1.507939258E1,-8.181007527E-1,-6.055337792E-1,-7.858412254E-1,1.285887410E0
1.508937858E1,-7.256719145E-1,-4.498015957E-1,-3.819793028E-1,9.353231477E-1
1.509936358E1,-9.090619397E-1,-3.109540513E-1,-9.147735000E-2,9.651187170E-1
1.510934858E1,-1.069932583E0,-2.137465762E-1,-9.138788760E-2,1.094895008E0
1.511933458E1,-1.134821767E0,-1.694953597E-1,-2.750185257E-1,1.179908602E0
1.512931958E1,-1.219323681E0,-1.555307470E-1,-4.901656562E-1,1.323330050E0
1.513930458E1,-1.404972047E0,-1.014625671E-1,-5.916399908E-1,1.527834737E0
1.514929058E1,-1.451546874E0,-6.565421842E-2,-5.239093530E-1,1.544596974E0
1.515927558E1,-1.408505812E0,-5.428299196E-2,-5.739059705E-1,1.521907792E0
1.516926158E1,-1.522283857E0,-5.754646920E-2,-7.275286978E-1,1.688181787E0
1.517924658E1,-1.656242106E0,-1.588950887E-1,-8.070976084E-1,1.849267994E0
1.518923158E1,-1.669371152E0,-2.531993482E-1,-9.648630881E-1,1.944703250E0
1.519921758E1,-1.653854396E0,-3.637532392E-1,-1.235525438E0,2.096204639E0
1.520920258E1,-1.605478334E0,-5.361608778E-1,-1.420302715E0,2.209590227E0
1.521918758E1,-1.445451882E0,-7.101746003E-1,-1.501463238E0,2.201833545E0
1.522917358E1,-1.226911466E0,-7.924015821E-1,-1.552747412E0,2.131721497E0
1.523915858E1,-8.510588761E-1,-7.971377537E-1,-1.601994417E0,1.981442888E0
1.524914358E1,-7.805857480E-2,-8.263874267E-1,-1.764416034E0,1.949916219E0
1.525912958E1,6.960471426E-1,-7.505157106E-1,-1.988251542E0,2.236269137E0
1.526911458E1,1.227200611E0,-7.490362919E-1,-2.016897052E0,2.476883208E0
1.527910058E1,1.772432567E0,-6.259822232E-1,-1.948075324E0,2.707095937E0
1.528908558E1,2.513009034E0,-2.966859680E-1,-1.580996481E0,2.983753817E0
1.529907058E1,4.024590586E0,-6.732601047E-2,-9.918070579E-1,4.145545009E0
1.530905658E1,5.926227323E0,1.209984800E-1,-3.048825949E-1,5.935298166E0
1.531904158E1,7.103132671E0,2.206802045E-1,7.484430188E-1,7.145863170E0
1.532902658E1,7.472232896E0,4.142516939E-1,2.538307890E0,7.902460115E0
1.533901258E1,7.618592797E0,7.362827106E-1,4.680017268E0,8.971489846E0
1.534899758E1,7.644348612E0,1.178035175E0,6.579075968E0,1.015421455E1
1.535898358E1,7.539673512E0,1.403616808E0,8.125825306E0,1.117344413E1
1.536896858E1,7.263074484E0,1.412262209E0,9.234104807E0,1.183281146E1
1.537895358E1,6.686871727E0,1.100420112E0,9.792962968E0,1.190912682E1
1.538893958E1,5.964569855E0,7.259505343E-1,9.980034692E0,1.164921415E1
1.539892458E1,5.489580063E0,1.967304477E-1,1.032456901E1,1.169490989E1
1.540890958E1,5.143728366E0,-2.067863430E-1,1.097249898E1,1.212008399E1
1.541889558E1,4.539080367E0,-5.100961831E-1,1.191177699E1,1.275750288E1
1.542888058E1,3.809922635E0,-5.800316598E-1,1.299256697E1,1.355207526E1
1.543886558E1,2.781583636E0,-7.447005084E-1,1.399287354E1,1.428608751E1
1.544885158E1,1.525836333E0,-1.001984283E0,1.476160231E1,1.487403952E1
1.545883583E1,2.861539632E-1,-1.393818775E0,1.497236403E1,1.503982378E1
1.546882183E1,-4.937472220E-1,-1.944788311E0,1.463341029E1,1.477033123E1
1.547880683E1,-8.532770173E-1,-2.604772605E0,1.412454115E1,1.438803616E1
1.548879183E1,-1.477260882E0,-3.110990915E0,1.374672682E1,1.417155822E1
1.549877783E1,-2.405430353E0,-3.532115865E0,1.346219662E1,1.412418761E1
1.550876283E1,-3.388970178E0,-3.925351935E0,1.314040330E1,1.412670186E1
1.551874783E1,-4.117961850E0,-4.232401508E0,1.279852829E1,1.409514664E1
1.552873383E1,-4.699725308E0,-4.677413795E0,1.237291180E1,1.403761249E1
1.553871883E1,-4.799471206E0,-4.984469508E0,1.198892515E1,1.384247761E1
1.554870483E1,-4.815503394E0,-5.074358754E0,1.202819739E1,1.391458667E1
1.555868983E1,-4.812522484E0,-5.242547480E0,1.210020468E1,1.403779292E1
1.556867483E1,-4.809873403E0,-5.672662232E0,1.207860975E1,1.418473801E1
1.557866083E1,-4.482699468E0,-6.554506552E0,1.209323714E1,1.446729191E1
1.558864583E1,-4.073339993E0,-7.500140487E0,1.182480550E1,1.458321745E1
1.559863083E1,-4.276384264E0,-8.572242680E0,1.119104568E1,1.473126981E1
1.560861683E1,-5.050460599E0,-9.882796665E0,1.019314231E1,1.506907338E1
1.561860183E1,-6.106625621E0,-1.096656756E1,8.776694083E0,1.531622798E1
1.562858683E1,-7.211849951E0,-1.192572377E1,7.084074841E0,1.563386655E1
1.563857283E1,-8.177967267E0,-1.272163741E1,5.368489489E0,1.604804930E1
1.564855783E1,-9.019791489E0,-1.333353215E1,3.682078235E0,1.651355256E1
1.565854383E1,-9.389473513E0,-1.365393501E1,1.969535190E0,1.668745706E1
1.566852883E1,-9.849402047E0,-1.356778564E1,1.283545697E-1,1.676639505E1
1.567851383E1,-9.758069124E0,-1.314647972E1,-1.242571918E0,1.641931263E1
1.568849983E1,-9.223378090E0,-1.279862886E1,-2.084666866E0,1.591293311E1
1.569848483E1,-8.779346380E0,-1.246032066E1,-2.602372908E0,1.546314517E1
1.570846983E1,-8.313318615E0,-1.192416373E1,-3.199752526E0,1.488406407E1
1.571845583E1,-8.150982952E0,-1.132504281E1,-3.828001349E0,1.446888773E1
1.572844083E1,-8.690734751E0,-1.070227341E1,-4.333907710E0,1.445165329E1
1.573842583E1,-9.851801745E0,-1.054565574E1,-4.586889249E0,1.514293253E1
1.574841183E1,-1.069275064E1,-1.054062480E1,-4.675270498E0,1.572570639E1
1.575839683E1,-1.118399628E1,-1.052649559E1,-4.696523373E0,1.606070403E1
1.576838283E1,-1.159577942E1,-1.076243425E1,-4.772138397E0,1.652469050E1
1.577836783E1,-1.177234896E1,-1.100529250E1,-4.799449571E0,1.681485591E1
1.578835283E1,-1.159613142E1,-1.072468930E1,-5.006003634E0,1.656952917E1
1.579833883E1,-1.128894678E1,-1.072792866E1,-4.858504111E0,1.631360889E1
1.580832383E1,-1.088681388E1,-1.132754074E1,-4.519172937E0,1.634805248E1
1.581830883E1,-1.073747131E1,-1.183748811E1,-4.458531463E0,1.659210408E1
1.582829483E1,-1.088430425E1,-1.224375617E1,-4.352025307E0,1.695045039E1
1.583827983E1,-1.110490801E1,-1.274676406E1,-4.241693026E0,1.742959941E1
1.584826483E1,-1.126844878E1,-1.307916658E1,-4.403591902E0,1.781668201E1
1.585825083E1,-1.092218836E1,-1.312390947E1,-4.586895681E0,1.767967224E1
1.586823583E1,-9.865561413E0,-1.324442059E1,-4.559233966E0,1.713273454E1
1.587822183E1,-8.625184540E0,-1.352406835E1,-4.523632316E0,1.666605780E1
1.588820683E1,-7.350104442E0,-1.384464429E1,-4.557927990E0,1.632399823E1
1.589819183E1,-6.153997423E0,-1.418428449E1,-4.405729644E0,1.607719081E1
1.590817783E1,-5.158770329E0,-1.451167126E1,-4.190405051E0,1.596123456E1
1.591816283E1,-4.424526688E0,-1.460889642E1,-4.020920874E0,1.578493256E1
1.592814783E1,-3.875491557E0,-1.467719892E1,-3.871471012E0,1.566613835E1
1.593813383E1,-2.902732097E0,-1.489532813E1,-3.933530435E0,1.567703146E1
1.594811883E1,-1.266020130E0,-1.495546557E1,-4.092716204E0,1.555696254E1
1.595810383E1,1.484520346E-2,-1.477229921E1,-4.210211617E0,1.536056399E1
1.596808983E1,6.626979867E-1,-1.444854940E1,-4.334193931E0,1.509917168E1
1.597807483E1,9.844059446E-1,-1.415829595E1,-4.491024733E0,1.488609091E1
1.598806083E1,1.159031286E0,-1.448690012E1,-4.728801758E0,1.528316703E1
1.599804583E1,1.466047238E0,-1.471736929E1,-5.095858381E0,1.564346592E1
1.600803083E1,1.273439077E0,-1.445745120E1,-5.190924752E0,1.541380038E1
1.601801683E1,9.886501461E-1,-1.446783586E1,-4.753971682E0,1.526092888E1
1.602800183E1,1.531931909E0,-1.428184528E1,-4.291822960E0,1.499125293E1
1.603798683E1,2.456021193E0,-1.363067479E1,-3.970987114E0,1.440819468E1
1.604797283E1,3.626409234E0,-1.283686498E1,-3.610517086E0,1.381925396E1
1.605795783E1,4.684167329E0,-1.177064391E1,-3.256137811E0,1.308021082E1
1.606794283E1,4.591955277E0,-1.089651558E1,-2.806074114E0,1.215294849E1
1.607792883E1,3.579911590E0,-1.036754137E1,-3.012834583E0,1.137448255E1
1.608791383E1,3.017389856E0,-1.053134527E1,-3.547460128E0,1.151513561E1
1.609789983E1,2.559298224E0,-1.107058017E1,-4.135044490E0,1.209158160E1
1.610788483E1,3.275059693E0,-1.126443642E1,-4.695677281E0,1.263577972E1
1.611786983E1,4.650603142E0,-1.116225165E1,-4.780442612E0,1.300294594E1
1.612785583E1,5.867724177E0,-1.074896460E1,-4.212631779E0,1.295054800E1
1.613784083E1,6.711728826E0,-1.005188645E1,-3.088788745E0,1.247510885E1
1.614782583E1,7.453464503E0,-9.261293775E0,-1.790028593E0,1.202205880E1
1.615781183E1,7.918612847E0,-8.906579454E0,-7.345512038E-1,1.194031626E1
1.616779683E1,9.660957397E0,-8.190901308E0,4.389592499E-1,1.267350178E1
1.617778283E1,1.248704711E1,-7.821216361E0,2.663247685E0,1.497299767E1
1.618776783E1,1.505697675E1,-7.331998538E0,4.896595797E0,1.744842118E1
1.619775283E1,1.739458481E1,-6.905333644E0,6.881033785E0,1.994000600E1
1.620773883E1,1.871237180E1,-6.459909713E0,8.513120897E0,2.154893313E1
1.621772383E1,1.848618980E1,-5.747419469E0,9.619928069E0,2.161747117E1
1.622770883E1,1.698875062E1,-5.934536217E0,1.135927358E1,2.128072987E1
1.623769483E1,1.519003482E1,-5.253919730E0,1.272049720E1,2.049760667E1
1.624767983E1,1.368952117E1,-3.717453013E0,1.403859877E1,1.995757255E1
1.625766483E1,1.182227717E1,-3.870212399E0,1.628634565E1,2.049365356E1
1.626765083E1,1.008976003E1,-4.564934416E0,1.812977862E1,2.124454651E1
1.627763583E1,8.261153265E0,-5.455255153E0,1.868517640E1,2.114573903E1
1.628762183E1,6.376751196E0,-6.705260636E0,1.822259030E1,2.043737442E1
1.629760683E1,4.807981536E0,-7.296737489E0,1.674173616E1,1.888504154E1
1.630759183E1,2.938719955E0,-6.780499098E0,1.447150323E1,1.624917379E1
1.631757783E1,6.970801994E-1,-5.985019907E0,1.272729751E1,1.408156547E1
1.632756283E1,-2.674966675E0,-5.606726689E0,1.127089409E1,1.286949433E1
1.633754783E1,-7.522782075E0,-5.556023144E0,1.037571344E1,1.396843129E1
1.634753383E1,-1.345631666E1,-5.296830107E0,1.065538342E1,1.796290798E1
1.635751883E1,-1.917209509E1,-4.432859555E0,1.139672383E1,2.273993817E1
1.636750483E1,-2.248004158E1,-2.998617078E0,1.211145823E1,2.571053080E1
1.637748983E1,-2.184757399E1,-1.649340053E0,1.236577118E1,2.515847986E1
1.638747483E1,-1.884093687E1,-8.103868134E-1,1.180073602E1,2.224623563E1
1.639746083E1,-1.618065606E1,-6.851938333E-1,1.016967510E1,1.912342576E1
1.640744583E1,-1.509125196E1,-9.310091713E-1,8.163032894E0,1.718277538E1
1.641743083E1,-1.486580203E1,-1.119592401E0,5.976340300E0,1.606120172E1
1.642741683E1,-1.418312791E1,-9.373702841E-1,3.601274977E0,1.466318389E1
1.643740183E1,-1.276820697E1,-5.326319370E-1,1.447432042E0,1.286102117E1
1.644738683E1,-1.062335354E1,-3.055852841E-1,-1.537174523E-2,1.062775890E1
1.645737283E1,-8.252716902E0,-1.290704150E-1,-6.116006309E-1,8.276354921E0
1.646735896E1,-6.687828916E0,7.269258499E-3,-2.738525909E-1,6.693437360E0
1.647734496E1,-6.232706793E0,1.818339349E-1,5.969457543E-1,6.263867957E0
