"Time (s)","Linear Acceleration x (m/s^2)","Linear Acceleration y (m/s^2)","Linear Acceleration z (m/s^2)","Absolute acceleration (m/s^2)"
-3.886249615E-4,-4.858737268E-1,2.905822058E-1,-1.597110822E0,1.694483483E0
9.596374992E-3,-2.281557052E-1,2.211085130E-1,-8.259110248E-1,8.849141321E-1
1.958137500E-2,-2.000395515E-1,1.206059857E-1,1.736102647E-1,2.910363378E-1
2.956637501E-2,-3.739073677E-1,1.973509835E-1,4.928319865E-1,6.493361974E-1
3.955237503E-2,-3.062065325E-1,1.809852116E-1,2.567038769E-1,4.386513054E-1
4.953737499E-2,-1.867106041E-1,1.056667882E-1,3.670472682E-2,2.176546733E-1
5.952237500E-2,-9.811503612E-2,1.285348101E-1,-1.392222047E-3,1.617086763E-1
6.950837502E-2,-7.953232896E-2,1.699955159E-1,2.709260595E-1,3.295827612E-1
7.949337503E-2,-4.270020593E-2,1.475742213E-1,6.194908637E-1,6.382557392E-1
8.947837504E-2,-1.635391301E-2,9.867439538E-2,7.048514414E-1,7.119126640E-1
9.946337499E-2,-6.738768032E-2,4.350211501E-2,6.619451576E-1,6.667870164E-1
1.094493750E-1,-1.099724768E-1,9.847529769E-2,5.697813445E-1,5.885933320E-1
1.194343750E-1,-6.439796241E-2,2.623293369E-1,4.208381438E-1,5.000685171E-1
1.294193750E-1,-2.167800386E-3,2.957118219E-1,3.453429884E-1,4.546558705E-1
1.394053750E-1,7.628007106E-2,2.393815005E-1,3.085534769E-1,3.979037574E-1
1.493906667E-1,1.240768015E-1,2.289763802E-1,2.510116124E-1,3.617071536E-1
1.593756667E-1,-3.894076421E-1,-7.942737874E-1,6.125876409E-1,1.075998503E0
1.693606667E-1,-3.744040156E-1,4.257021502E-2,2.814557254E-2,3.778660654E-1
1.793466667E-1,-1.560423418E-1,5.949075611E-1,-4.600922567E-1,7.680814432E-1
1.893316667E-1,2.278658478E-1,-7.211941168E-2,3.323791265E-2,2.413064710E-1
1.993166667E-1,8.781377703E-2,-4.222522929E-2,7.442569971E-2,1.226108242E-1
2.093026667E-1,5.234590809E-1,2.387270509E-1,3.104041207E-1,6.537206837E-1
2.192876667E-1,3.917612926E-1,3.261310843E-1,1.329650992E-1,5.267998786E-1
2.292726667E-1,-4.214603972E-1,-9.593702137E-2,-4.224157226E-1,6.043739084E-1
2.392586667E-1,-1.092395612E0,-8.043742678E-1,-1.000549230E0,1.685658595E0
2.492436667E-1,-2.930839918E-1,-1.191737102E-1,-8.318529654E-1,8.899887389E-1
2.592286667E-1,1.357213670E-2,-4.546444058E-2,-5.752128232E-1,5.771663626E-1
2.692136667E-1,8.227950619E-2,-2.795068485E-1,-7.563747668E-1,8.105533809E-1
2.791996667E-1,2.371431498E-1,-3.863957047E-2,-7.788982415E-1,8.151149370E-1
2.891846667E-1,2.724377475E-1,8.996511385E-2,-5.528314358E-1,6.228472079E-1
2.991696667E-1,1.755373790E-1,7.521419674E-3,-3.957518345E-1,4.330005285E-1
3.091556667E-1,1.880864905E-1,5.554767162E-2,-3.124062073E-1,3.688627253E-1
3.191406667E-1,2.253075082E-1,6.726885393E-2,-3.510674125E-1,4.225362707E-1
3.291256667E-1,-1.640558046E-1,-1.237028173E-1,-1.505953315E0,1.519905287E0
3.391106667E-1,-4.270048733E-1,-2.474269769E-1,-1.076537890E0,1.184266482E0
3.490966667E-1,-4.958875587E-1,-1.216831890E-1,-9.471887094E-1,1.076047267E0
3.590816667E-1,-5.648698296E-1,-2.104240420E-1,-9.979326010E-1,1.165858344E0
3.690666667E-1,-4.543983477E-1,-2.334382443E-1,-6.889095926E-1,8.576524349E-1
3.790526667E-1,-1.026478068E-1,4.045403458E-2,-7.075417453E-1,7.160924678E-1
3.890376667E-1,3.826156991E-1,1.905515487E-1,-6.386890268E-1,7.685234797E-1
3.990226667E-1,8.890016046E-1,1.820177568E-1,-3.705012184E-1,9.801660419E-1
4.090076667E-1,9.918178021E-1,1.926851977E-1,-3.406757408E-1,1.066250486E0
4.189936667E-1,8.158552026E-1,1.311554591E-1,-4.361198419E-1,9.343564537E-1
4.289786667E-1,9.421926291E-1,1.019253011E-1,-7.110436428E-1,1.184777945E0
4.389636667E-1,1.484999818E0,-7.345345393E-3,-1.382399309E0,2.028868222E0
4.489496667E-1,2.125621934E0,-1.500054936E-1,-2.044447378E0,2.953055254E0
4.589346667E-1,2.514824302E0,-2.842820137E-1,-2.077624480E0,3.274397809E0
4.689196667E-1,2.736752156E0,-3.218508128E-1,-1.723452196E0,3.250182730E0
4.789056667E-1,3.158366226E0,-2.055893083E-1,-1.159707516E0,3.370825671E0
4.888906667E-1,3.923662089E0,-1.580483022E-1,-2.091075414E-1,3.932407586E0
4.988756667E-1,4.825163287E0,3.360646083E-3,9.331723487E-1,4.914572481E0
5.088606667E-1,5.665806372E0,1.641902358E-1,1.935136605E0,5.989413490E0
5.188466667E-1,6.430830925E0,2.085664182E-1,2.261512980E0,6.820082645E0
5.288316667E-1,6.741407538E0,-1.916147187E-2,2.118352091E0,7.066424721E0
5.388166667E-1,6.628649247E0,-2.477715606E-1,2.171892706E0,6.979792225E0
5.488026667E-1,6.227491077E0,-8.013301342E-1,2.699949489E0,6.834727671E0
5.587876667E-1,5.823913329E0,-1.236440674E0,3.628782619E0,6.972432523E0
5.687726667E-1,5.465646240E0,-1.166175853E0,4.839926337E0,7.393114491E0
5.787576667E-1,5.652244924E0,-8.398716907E-1,5.844085638E0,8.173530087E0
5.887436667E-1,5.890064049E0,-4.870724060E-1,6.372278076E0,8.691146179E0
5.987286667E-1,5.708113316E0,-1.714562966E-1,6.349988490E0,8.540158588E0
6.087136667E-1,5.179451931E0,-3.592690095E-2,6.049141644E0,7.963675512E0
6.186996667E-1,4.745429485E0,-2.068511009E-2,5.874429764E0,7.551718607E0
6.286846667E-1,4.468337536E0,-7.480920397E-2,5.754606866E0,7.286092021E0
6.386696667E-1,4.339813982E0,-1.574288262E-1,5.592983394E0,7.080976803E0
6.486546667E-1,4.103284754E0,-1.040145843E-1,5.845045166E0,7.142290795E0
6.586406667E-1,3.836215518E0,-2.323074659E-1,6.391844029E0,7.458296478E0
6.686256667E-1,2.997467515E0,-1.862558918E-1,6.803880360E0,7.437223320E0
6.786106667E-1,1.902483706E0,-2.362594528E-1,6.898771899E0,7.160189697E0
6.885966667E-1,6.307368866E-1,-3.338194785E-1,6.846142865E0,6.883235910E0
6.985816667E-1,-6.415087735E-1,-3.563824219E-1,7.113026159E0,7.150781991E0
7.085666667E-1,-1.676577699E0,-4.993610606E-1,7.492839069E0,7.694342828E0
7.185526667E-1,-2.527998079E0,-3.248424676E-1,7.728445022E0,8.137884208E0
7.285376667E-1,-2.957074365E0,-3.027897668E-1,8.194054127E0,8.716564316E0
7.385226667E-1,-3.531311288E0,-3.896285572E-1,8.684322109E0,9.382932395E0
7.485076667E-1,-4.061431261E0,-4.598881523E-1,8.886305403E0,9.781264986E0
7.584936667E-1,-4.554838614E0,-6.872910833E-1,9.133486505E0,1.022934502E1
7.684786667E-1,-5.065906019E0,-8.148879270E-1,9.476353782E0,1.077630396E1
7.784636667E-1,-5.387332141E0,-1.017109056E0,9.515569303E0,1.098198150E1
7.884496667E-1,-6.358066419E0,-1.896095477E0,8.884388686E0,1.108839704E1
7.984346667E-1,-7.306299441E0,-2.472370593E0,8.150643813E0,1.122174774E1
8.084196667E-1,-8.225899817E0,-2.987885976E0,7.078158628E0,1.125580828E1
8.184046667E-1,-8.884366466E0,-3.651955719E0,6.118551602E0,1.138882882E1
8.283906667E-1,-9.176423779E0,-3.977808183E0,5.326951454E0,1.133164256E1
8.383756667E-1,-9.359964370E0,-4.259582874E0,4.745218985E0,1.132563828E1
8.483606667E-1,-9.465758042E0,-4.580111157E0,4.290043067E0,1.135704464E1
8.583466667E-1,-9.614448643E0,-4.950574368E0,3.735941616E0,1.144128791E1
8.683316667E-1,-9.660673807E0,-5.211812761E0,2.805968279E0,1.132983092E1
8.783166667E-1,-9.514913830E0,-5.398665215E0,1.851193392E0,1.109531830E1
8.883016667E-1,-9.241815530E0,-5.663573905E0,1.010072590E0,1.088611365E1
8.982876667E-1,-9.018424410E0,-5.894924254E0,3.942140168E-1,1.078135036E1
9.082726667E-1,-8.973454644E0,-6.120627363E0,-8.811403155E-2,1.086244593E1
9.182576667E-1,-8.762487103E0,-6.372098567E0,-7.122756511E-1,1.085781548E1
9.282436667E-1,-8.382140343E0,-6.546923883E0,-1.244733633E0,1.070849433E1
9.382286667E-1,-8.129992617E0,-6.694207644E0,-1.663500693E0,1.066191495E1
9.482136667E-1,-7.800819519E0,-6.854113789E0,-2.175740758E0,1.060968938E1
9.581986667E-1,-7.305700686E0,-6.975103791E0,-2.708923795E0,1.045770546E1
9.681846667E-1,-6.947103229E0,-7.223743188E0,-3.311465920E0,1.055511797E1
9.781696667E-1,-6.683379185E0,-7.568137173E0,-4.119656957E0,1.090485355E1
9.881546667E-1,-6.228650579E0,-7.833121877E0,-4.692784079E0,1.105333021E1
9.981406667E-1,-5.950346503E0,-8.086449571E0,-5.011981242E0,1.122128541E1
1.008125667E0,-5.802251149E0,-8.162482086E0,-5.508494636E0,1.142959953E1
1.018110667E0,-5.478634075E0,-8.298950837E0,-5.733628811E0,1.147878546E1
1.028096667E0,-5.158006098E0,-8.385227088E0,-5.961884814E0,1.150917594E1
1.038081667E0,-4.975508650E0,-8.611513749E0,-6.289096756E0,1.176718290E1
1.048066667E0,-4.481825309E0,-8.644445853E0,-6.591385526E0,1.175838277E1
1.058051667E0,-3.511483380E0,-8.671833041E0,-6.713992867E0,1.151559395E1
1.068037667E0,-2.739948829E0,-8.977072901E0,-6.619156292E0,1.148513768E1
1.078022667E0,-2.254682263E0,-8.943898138E0,-6.593744878E0,1.133818228E1
1.088007667E0,-1.570252514E0,-9.006438788E0,-6.384737324E0,1.115107633E1
1.097993667E0,-9.621662792E-1,-9.052310779E0,-6.479421287E0,1.117376367E1
1.107978667E0,-1.443987995E-1,-8.586688811E0,-6.946952956E0,1.104591468E1
1.117963667E0,7.080744267E-1,-8.066560267E0,-6.939949161E0,1.066459837E1
1.127948667E0,7.535774589E-1,-7.850646567E0,-6.233979732E0,1.005301118E1
1.137934667E0,5.167574408E-1,-7.422713996E0,-5.562683707E0,9.290165302E0
1.147919375E0,5.472941226E-1,-7.372764741E0,-5.558353844E0,9.249458808E0
1.157904375E0,6.315057955E-1,-7.325970059E0,-6.324737874E0,9.699017788E0
1.167890375E0,9.343371872E-1,-7.491971342E0,-6.973577667E0,1.027781135E1
1.177875375E0,1.456548874E0,-7.632857080E0,-7.311805764E0,1.066979594E1
1.187860375E0,2.159850657E0,-7.348688831E0,-6.960362375E0,1.034962931E1
1.197845375E0,3.039595827E0,-6.989585590E0,-5.980063223E0,9.687858672E0
1.207831375E0,3.735983716E0,-6.582895954E0,-4.947626202E0,9.042737334E0
1.217816375E0,4.147788204E0,-6.134132093E0,-3.845462889E0,8.343818571E0
1.227801375E0,4.529552622E0,-5.749605158E0,-3.360079671E0,8.053877440E0
1.237787375E0,5.133041995E0,-5.428026423E0,-3.388449191E0,8.203241975E0
1.247772375E0,5.887469639E0,-5.078693295E0,-3.131221404E0,8.382122155E0
1.257757375E0,6.255422641E0,-5.180185171E0,-3.080791508E0,8.686535969E0
1.267742375E0,6.289314857E0,-5.319105075E0,-3.489875579E0,8.945814201E0
1.277728375E0,6.309825135E0,-5.389862816E0,-3.770365344E0,9.114832376E0
1.287713375E0,6.100004818E0,-5.074069317E0,-3.720247105E0,8.763359900E0
1.297698375E0,5.866831307E0,-4.902358813E0,-3.424178018E0,8.377220697E0
1.307684375E0,5.827289511E0,-4.631240965E0,-3.271053473E0,8.130528073E0
1.317669375E0,6.094435346E0,-4.326206342E0,-2.535029356E0,7.892057864E0
1.327654375E0,6.687601460E0,-4.035818702E0,-1.082820139E0,7.885705126E0
1.337640375E0,7.475854077E0,-3.993717580E0,1.502599937E-1,8.477072157E0
1.347625375E0,8.121662673E0,-4.077899067E0,7.802191275E-1,9.121370909E0
1.357610375E0,8.125910676E0,-3.982076066E0,7.826737887E-1,9.082947339E0
1.367595375E0,7.299550000E0,-3.703410340E0,2.755482835E-1,8.189908742E0
1.377581375E0,6.563843386E0,-3.572347632E0,2.708412749E-1,7.477904961E0
1.387566375E0,6.425293611E0,-2.950060630E0,7.672885948E-1,7.111679654E0
1.397551375E0,6.412216898E0,-2.488393133E0,1.750389733E0,7.097357970E0
1.407537375E0,6.480359765E0,-2.285871749E0,3.345085655E0,7.642635041E0
1.417522375E0,6.319151444E0,-2.148923673E0,4.748211590E0,8.191157503E0
1.427507375E0,5.921768821E0,-2.314045389E0,5.347117916E0,8.307455810E0
1.437492375E0,5.850245095E0,-2.109894532E0,5.109550222E0,8.048883530E0
1.447478375E0,5.446412408E0,-2.055553287E0,4.303753619E0,7.239544367E0
1.457463375E0,4.660027100E0,-1.874480806E0,4.055019497E0,6.455440649E0
1.467448375E0,3.723149370E0,-8.028042904E-1,4.551182057E0,5.934609851E0
1.477434375E0,3.332497770E0,1.990267589E-1,5.381339915E0,6.332769719E0
1.487419375E0,3.189946453E0,4.611642706E-1,6.718354306E0,7.451490819E0
1.497404375E0,2.728442093E0,3.705347668E-1,8.257245571E0,8.704240156E0
1.507389375E0,2.069285327E0,2.000358056E-1,9.742121428E0,9.961470072E0
1.517375375E0,1.473101611E0,-2.842341761E-1,1.017032882E1,1.028038937E1
1.527360375E0,6.529905854E-1,-6.841164838E-1,9.704175922E0,9.750150890E0
1.537345375E0,-6.964086376E-2,-4.504098523E-1,9.233103179E0,9.244344931E0
1.547331375E0,-6.829390007E-1,5.882317219E-1,8.722586288E0,8.769032660E0
1.557316375E0,-1.114738335E0,1.343692788E0,8.684531440E0,8.858286414E0
1.567301375E0,-1.888631068E0,1.459621294E0,9.125788645E0,9.432785380E0
1.577287375E0,-3.100402192E0,1.356217670E0,9.596618144E0,1.017579972E1
1.587272375E0,-4.139973693E0,9.266595738E-1,9.716732817E0,1.060249861E1
1.597257375E0,-4.771989293E0,5.654220991E-1,9.055397524E0,1.025142957E1
1.607242375E0,-4.751752079E0,4.498129977E-1,8.212452391E0,9.498729064E0
1.617228375E0,-4.720432638E0,3.597164677E-1,7.270878763E0,8.676264070E0
1.627213375E0,-4.588673527E0,5.543382633E-1,6.165013577E0,7.705232511E0
1.637198375E0,-4.718083811E0,5.077355160E-1,4.805575114E0,6.753640676E0
1.647184375E0,-5.202965924E0,3.902630532E-1,2.846953168E0,5.943761603E0
1.657169375E0,-5.666064819E0,3.531325029E-1,9.018517381E-1,5.748245789E0
1.667154375E0,-5.883113464E0,3.399841614E-2,-4.669463629E-1,5.901713211E0
1.677139375E0,-5.937538762E0,-5.396219909E-2,-6.033771068E-1,5.968361786E0
1.687125375E0,-5.403903151E0,-3.936952226E-2,-2.471056724E-1,5.409693192E0
1.697110375E0,-4.223916321E0,1.261585017E-1,2.563185453E-2,4.225877666E0
1.707095375E0,-2.879346158E0,1.990099847E-1,-8.709544659E-2,2.887529201E0
1.717081375E0,-1.862928462E0,3.422862833E-1,-6.091564947E-1,1.989656751E0
1.727066375E0,-1.430590453E0,1.875324120E-1,-7.840332663E-1,1.642091840E0
1.737051375E0,-1.326979984E0,-1.035881761E-1,-7.776065916E-1,1.541518213E0
1.747036375E0,-1.306042274E0,-2.983621455E-1,-9.321970332E-1,1.632102234E0
1.757022375E0,-8.471576138E-1,-3.969300485E-1,-1.189246480E0,1.513121501E0
1.767007375E0,-3.454787900E-1,-5.586527775E-1,-1.468451028E0,1.608663091E0
1.776992375E0,2.811350057E-1,-4.856176188E-1,-1.774894245E0,1.861480847E0
1.786978375E0,1.550363064E0,-4.055084255E-1,-1.988601791E0,2.553938095E0
1.796963375E0,3.176526216E0,-3.178834404E-1,-1.995307378E0,3.764654063E0
1.806948375E0,5.011010020E0,-6.214004181E-2,-1.510965548E0,5.234223886E0
1.816934375E0,7.164710868E0,1.843558390E-1,-8.127366632E-1,7.213016691E0
1.826919375E0,8.850314037E0,1.379207607E-1,-1.690751642E-1,8.853003281E0
1.836904375E0,1.007674296E1,3.578548604E-1,4.138179767E-1,1.009158333E1
1.846889375E0,1.095290379E1,3.470168269E-1,1.019034033E0,1.100567819E1
1.856875375E0,1.128237685E1,4.178067280E-1,1.455576628E0,1.138355363E1
1.866860375E0,1.132377163E1,1.746555275E-1,1.610270566E0,1.143902442E1
1.876845375E0,1.098914951E1,-3.577655442E-1,1.678994061E0,1.112242888E1
1.886831375E0,1.047584350E1,-8.889937109E-1,1.920836654E0,1.068752638E1
1.896816375E0,1.000329492E1,-1.491234850E0,2.549239259E0,1.043016353E1
1.906801375E0,9.524911984E0,-1.742932633E0,3.919647099E0,1.044631015E1
1.916786375E0,8.754289307E0,-1.873239296E0,5.903281095E0,1.072358776E1
1.926772375E0,7.813015641E0,-1.667888298E0,7.555281485E0,1.099578752E1
1.936757375E0,6.936326811E0,-1.198947742E0,8.594649210E0,1.110936994E1
1.946742375E0,5.774438283E0,-8.579392216E-1,9.431457106E0,1.109200524E1
1.956728375E0,3.947741216E0,-6.173603576E-1,1.052668504E1,1.125952452E1
1.966713375E0,2.141569484E0,-6.873755756E-1,1.165643259E1,1.187144582E1
1.976698375E0,6.487903842E-1,-7.762369544E-1,1.262465315E1,1.266512297E1
1.986683375E0,-7.282310215E-1,-6.131126478E-1,1.340070029E1,1.343447043E1
1.996669375E0,-2.217398661E0,-3.182237484E-1,1.409832106E1,1.427518056E1
2.006654375E0,-3.691788706E0,-1.699154822E-1,1.478632434E1,1.524117983E1
2.016639375E0,-5.365809125E0,-5.719856717E-1,1.505960215E1,1.599720888E1
2.026625375E0,-7.240153399E0,-1.166237395E0,1.503003278E1,1.672369027E1
2.036610375E0,-8.849358017E0,-1.789249305E0,1.448543364E1,1.706869468E1
2.046595375E0,-9.884695841E0,-2.477883640E0,1.389046541E1,1.722765650E1
2.056580375E0,-1.100970832E1,-3.251064767E0,1.335210057E1,1.760856862E1
2.066566375E0,-1.234651279E1,-4.038257284E0,1.254249275E1,1.805707685E1
2.076551375E0,-1.397206681E1,-5.130783800E0,1.104027990E1,1.853190151E1
2.086536375E0,-1.511324801E1,-6.027064312E0,9.237945258E0,1.871030204E1
2.096522375E0,-1.555755571E1,-7.105464540E0,7.532532308E0,1.868861174E1
2.106507375E0,-1.610296177E1,-8.086682875E0,5.386526980E0,1.880729886E1
2.116492375E0,-1.625944027E1,-8.757373713E0,3.688421295E0,1.883256339E1
2.126478375E0,-1.647302737E1,-9.571494412E0,2.267059649E0,1.918628925E1
2.136463375E0,-1.612813169E1,-1.016865885E1,5.646831572E-1,1.907451498E1
2.146448625E0,-1.537707789E1,-1.061703738E1,-9.935413420E-1,1.871264630E1
2.156433625E0,-1.463352490E1,-1.108819783E1,-2.663834161E0,1.855220188E1
2.166419625E0,-1.371960275E1,-1.144496804E1,-4.494706725E0,1.842327825E1
2.176404625E0,-1.302162881E1,-1.199487177E1,-6.233573935E0,1.876958203E1
2.186389625E0,-1.232154869E1,-1.231829530E1,-7.715556589E0,1.905494095E1
2.196375625E0,-1.129041443E1,-1.235709976E1,-8.725899321E0,1.887624675E1
2.206360625E0,-1.014264576E1,-1.237935544E1,-9.441366967E0,1.858120325E1
2.216345625E0,-8.969439946E0,-1.212577105E1,-9.885432590E0,1.803349533E1
2.226330625E0,-7.468314092E0,-1.172335748E1,-1.002164582E1,1.713610839E1
2.236316625E0,-6.377838778E0,-1.152653202E1,-9.962592448E0,1.651638629E1
2.246301625E0,-5.726739621E0,-1.152910362E1,-9.828685362E0,1.619625984E1
2.256286625E0,-4.854712191E0,-1.150553349E1,-9.759691726E0,1.584919916E1
2.266272625E0,-3.879865567E0,-1.156919096E1,-9.880807443E0,1.570127040E1
2.276257625E0,-3.122899354E0,-1.163484584E1,-9.983212069E0,1.564565950E1
2.286242625E0,-2.407524679E0,-1.140210561E1,-9.973616788E0,1.533874894E1
2.296227625E0,-1.638624592E0,-1.132438909E1,-9.839830155E0,1.509135966E1
2.306213625E0,-7.708393165E-1,-1.095580868E1,-9.703947296E0,1.465573370E1
2.316198625E0,-3.051770023E-1,-1.071794629E1,-9.351132735E0,1.422712863E1
2.326183625E0,-5.406490909E-2,-1.062934928E1,-9.141127061E0,1.401949332E1
2.336169625E0,3.604659346E-1,-1.054703218E1,-9.101339682E0,1.393571697E1
2.346154625E0,9.307464121E-1,-1.058090510E1,-9.038766289E0,1.394708348E1
2.356139625E0,1.665705386E0,-1.023961365E1,-8.609988796E0,1.348169756E1
2.366124625E0,2.021814853E0,-9.875757787E0,-7.850291641E0,1.277675256E1
2.376110625E0,2.113850612E0,-9.659497347E0,-7.225057642E0,1.224645709E1
2.386095625E0,2.693798802E0,-9.422022039E0,-6.812285732E0,1.193475128E1
2.396080625E0,3.751471821E0,-9.317133515E0,-6.415652137E0,1.191818401E1
2.406066625E0,4.911723713E0,-9.108894285E0,-6.020228916E0,1.197247431E1
2.416051625E0,5.861362991E0,-8.595168443E0,-5.484616946E0,1.176067684E1
2.426036625E0,6.486992846E0,-8.435704932E0,-4.899524083E0,1.171526910E1
2.436022625E0,7.454700605E0,-7.961749511E0,-4.348267302E0,1.174178202E1
2.446007625E0,8.339812934E0,-7.335820863E0,-3.906407248E0,1.177398680E1
2.455992625E0,8.616524813E0,-6.979027272E0,-3.585060064E0,1.165349635E1
2.465977625E0,8.694500942E0,-6.830978111E0,-2.969389186E0,1.144875018E1
2.475963625E0,8.467932445E0,-6.898290088E0,-2.348779750E0,1.117179719E1
2.485948625E0,8.391806960E0,-7.450464297E0,-2.372234101E0,1.146993186E1
2.495933625E0,8.661335535E0,-7.823650557E0,-2.531340348E0,1.194302831E1
2.505919625E0,8.496639351E0,-7.799486353E0,-2.099066804E0,1.172309469E1
2.515904625E0,8.162026588E0,-7.398995351E0,-1.736915994E0,1.115260899E1
2.525889625E0,8.247701161E0,-7.090085194E0,-9.517688334E-1,1.091786364E1
2.535874625E0,8.392698660E0,-6.792001156E0,2.827631629E-1,1.080039932E1
2.545860625E0,8.738779567E0,-6.307228972E0,1.348007741E0,1.086114775E1
2.555845625E0,9.238195519E0,-5.792761703E0,2.424733327E0,1.117048237E1
2.565830625E0,9.592005275E0,-5.266260864E0,3.312770433E0,1.143304494E1
2.575816625E0,1.003124461E1,-4.260959309E0,3.815004743E0,1.154711669E1
2.585801625E0,1.010170473E1,-3.104674753E0,4.256213416E0,1.139292747E1
2.595786625E0,9.796219867E0,-2.303629597E0,5.155457296E0,1.130713814E1
2.605771625E0,9.415056251E0,-1.810533316E0,6.817190377E0,1.176415742E1
2.615757625E0,8.907563540E0,-2.085156424E0,7.965257841E0,1.213004114E1
2.625742625E0,7.736781982E0,-2.451112163E0,8.786765912E0,1.196131270E1
2.635727625E0,6.105714625E0,-2.296813498E0,9.709923735E0,1.169776569E1
2.645713625E0,4.724407283E0,-1.465371738E0,9.921430389E0,1.108612283E1
2.655698625E0,3.340496761E0,-7.547694869E-1,1.029502888E1,1.084971037E1
2.665683625E0,2.291431867E0,-7.346747263E-1,1.140244591E1,1.165359085E1
2.675668625E0,1.548403077E0,-7.151828867E-1,1.274781188E1,1.286140531E1
2.685654625E0,7.125172873E-1,-1.288356055E0,1.385285144E1,1.393086628E1
2.695639625E0,-9.151992504E-2,-1.721938205E0,1.434709202E1,1.445034590E1
2.705624625E0,-1.555045953E0,-1.960248642E0,1.333066585E1,1.356345806E1
2.715610625E0,-2.949687285E0,-1.611806045E0,1.125032826E1,1.174174006E1
2.725595625E0,-3.846177419E0,-6.607495482E-1,8.606275229E0,9.449743066E0
2.735580625E0,-4.945097281E0,-1.889632988E-1,7.165629466E0,8.708383311E0
2.745566625E0,-5.776351492E0,-5.799268484E-3,7.769715255E0,9.681670586E0
2.755551625E0,-6.238332399E0,2.712143272E-1,8.127984683E0,1.024960894E1
2.765536625E0,-6.628352793E0,4.324258634E-1,8.098205398E0,1.047391921E1
2.775521625E0,-8.135374979E0,1.935633034E-1,6.968822712E0,1.071383604E1
2.785507625E0,-9.037958204E0,5.354280755E-2,5.134255877E0,1.039462066E1
2.795492625E0,-8.967940135E0,-2.104179025E-2,3.295938054E0,9.554454494E0
2.805477625E0,-8.917678054E0,7.146350026E-2,2.276970094E0,9.204057894E0
2.815463625E0,-9.194475887E0,-6.160114780E-2,1.736147670E0,9.357157169E0
2.825448625E0,-9.056048319E0,-3.068937448E-1,1.262076475E0,9.148717504E0
2.835433625E0,-8.446064444E0,-6.108847855E-1,7.751899374E-1,8.503534809E0
2.845418625E0,-7.014284229E0,-4.632403976E-1,-1.085675919E-1,7.030402679E0
2.855404625E0,-5.078582783E0,-2.635901427E-1,-1.569860458E-1,5.087841140E0
2.865389625E0,-3.608588090E0,-8.597760513E-2,-4.950375563E-1,3.643399832E0
2.875374625E0,-2.477480475E0,1.325834222E-1,-8.195024765E-1,2.612866659E0
2.885360625E0,-1.618074552E0,1.326398478E-1,-8.890931135E-1,1.851011926E0
2.895345625E0,-8.054057166E-1,2.115481693E-1,-9.626142490E-1,1.272814672E0
2.905330625E0,-6.651264815E-1,-4.331822008E-2,-1.295735972E0,1.457120933E0
2.915315625E0,-7.004975315E-1,-3.139277990E-1,-1.892114546E0,2.041897380E0
2.925301625E0,-6.295021740E-1,-4.401186065E-1,-2.273247172E0,2.399506216E0
2.935286625E0,1.536371262E-1,-5.037276882E-1,-2.417392733E0,2.474092475E0
2.945271625E0,9.915814284E-1,-5.813616090E-1,-2.047351105E0,2.347948381E0
2.955257625E0,1.861817783E0,-5.049773844E-1,-1.962263592E0,2.751698752E0
2.965242625E0,3.041485647E0,-3.445847507E-1,-2.113125265E0,3.719498888E0
2.975227625E0,4.422460575E0,-2.815248688E-1,-2.030022882E0,4.874259604E0
2.985212625E0,5.776932120E0,-2.821493514E-1,-1.858707064E0,6.075141556E0
2.995198625E0,7.335264793E0,-2.535098353E-1,-1.689816672E0,7.531657003E0
3.005183625E0,9.209555272E0,-3.050737989E-1,-1.291393830E0,9.304658852E0
3.015168625E0,1.110597571E1,-3.448060678E-1,-3.698135859E-1,1.111747947E1
3.025154625E0,1.283883666E1,-2.558943298E-1,1.214505283E0,1.289869109E1
3.035139625E0,1.448728603E1,-1.594022615E-1,2.885535436E0,1.477271744E1
3.045124625E0,1.612576708E1,-1.609373018E-2,4.201997448E0,1.666425532E1
3.055110625E0,1.668643904E1,-2.948606135E-1,5.085359121E0,1.744663487E1
3.065095625E0,1.567855799E1,-9.352367082E-1,5.279990126E0,1.657015824E1
3.075080625E0,1.392721516E1,-1.496137740E0,5.250815443E0,1.495917154E1
3.085065625E0,1.205494139E1,-1.738082514E0,5.868673764E0,1.351975867E1
3.095051625E0,1.040804152E1,-2.016532770E0,7.487419869E0,1.297902882E1
3.105036625E0,8.657271135E0,-2.154769281E0,9.384425027E0,1.294831291E1
3.115021625E0,6.994540520E0,-2.076291899E0,1.145752902E1,1.358342948E1
3.125007625E0,5.400918147E0,-1.976887771E0,1.315814843E1,1.436018357E1
3.134992625E0,3.653723917E0,-2.159387996E0,1.480668785E1,1.540294323E1
3.144977625E0,2.005654464E0,-2.531832683E0,1.635213852E1,1.666809110E1
3.154962250E0,5.340155344E-1,-2.753223470E0,1.761428809E1,1.783615869E1
3.164948250E0,-1.486098656E0,-3.103601204E0,1.806715728E1,1.839192762E1
3.174933250E0,-3.957819769E0,-3.394531173E0,1.751808736E1,1.827759732E1
3.184918250E0,-6.318140461E0,-3.986417331E0,1.653535284E1,1.814464978E1
3.194904250E0,-8.525255624E0,-4.612800893E0,1.522046373E1,1.804495585E1
3.204889250E0,-1.036674615E1,-4.960801733E0,1.384534362E1,1.799367998E1
3.214874250E0,-1.197438313E1,-5.313989931E0,1.234837455E1,1.800296348E1
3.224859250E0,-1.345403859E1,-5.720589520E0,1.121659099E1,1.842683403E1
3.234845250E0,-1.484315810E1,-6.252787301E0,1.036169883E1,1.915154026E1
3.244830250E0,-1.608386008E1,-6.933171068E0,8.917046555E0,1.965383259E1
3.254815250E0,-1.711199589E1,-7.707652908E0,7.364859890E0,2.016108821E1
3.264801250E0,-1.809087358E1,-8.418894187E0,5.836639794E0,2.078999400E1
3.274786250E0,-1.860157057E1,-9.153214425E0,4.582072898E0,2.123193712E1
3.284771250E0,-1.847825630E1,-9.723656505E0,3.552237303E0,2.118050617E1
3.294757250E0,-1.842782290E1,-1.043989248E1,2.568050922E0,2.133473452E1
3.304742250E0,-1.864434061E1,-1.124414074E1,1.812370219E0,2.184781050E1
3.314727250E0,-1.828912577E1,-1.187354906E1,2.318198812E-1,2.180658225E1
3.324712250E0,-1.711770745E1,-1.218368304E1,-1.197499825E0,2.104500051E1
3.334698250E0,-1.560550639E1,-1.232711992E1,-2.208174094E0,2.000914161E1
3.344683250E0,-1.426282312E1,-1.237392922E1,-3.128681374E0,1.913977259E1
3.354668250E0,-1.317727233E1,-1.251005240E1,-4.055054580E0,1.861680383E1
3.364654250E0,-1.197812885E1,-1.265447278E1,-5.127699394E0,1.816327485E1
3.374639250E0,-1.065194058E1,-1.283301049E1,-6.209697415E0,1.779635745E1
3.384624250E0,-9.521837518E0,-1.290797180E1,-7.008069223E0,1.750411837E1
3.394609250E0,-8.551344731E0,-1.291963465E1,-7.438105037E0,1.718626960E1
3.404595250E0,-7.649763719E0,-1.286516784E1,-7.826912134E0,1.689058856E1
3.414580250E0,-6.865463820E0,-1.293978650E1,-7.963347555E0,1.667295932E1
3.424565250E0,-6.287147879E0,-1.315459215E1,-8.144512423E0,1.670043729E1
3.434551250E0,-5.470052701E0,-1.334759821E1,-8.399655093E0,1.669233538E1
3.444536250E0,-4.518787898E0,-1.331847674E1,-8.569713174E0,1.646940347E1
3.454521250E0,-3.907321168E0,-1.337880130E1,-8.696521740E0,1.642829794E1
3.464506250E0,-3.441132604E0,-1.351051684E1,-9.075930607E0,1.663574391E1
3.474492250E0,-2.602386064E0,-1.344851414E1,-9.727108117E0,1.680034458E1
3.484477250E0,-1.834823527E0,-1.331873168E1,-9.863140665E0,1.667443357E1
3.494462250E0,-1.425911657E0,-1.321603118E1,-9.581688448E0,1.638613615E1
3.504448250E0,-8.254454403E-1,-1.294171959E1,-9.299899431E0,1.595799472E1
3.514433250E0,3.259011425E-2,-1.306848021E1,-9.071731721E0,1.590856855E1
3.524418250E0,6.120366870E-1,-1.311571051E1,-9.568111213E0,1.624639047E1
3.534403250E0,7.998765895E-1,-1.325787620E1,-1.020114949E1,1.674737397E1
3.544389250E0,1.055224424E0,-1.354741979E1,-1.057669627E1,1.721954081E1
3.554374250E0,1.448581166E0,-1.368846750E1,-1.060135749E1,1.737415639E1
3.564359250E0,2.322698537E0,-1.378243225E1,-1.053559970E1,1.750283487E1
3.574345250E0,3.476218237E0,-1.347793031E1,-1.022416296E1,1.727055897E1
3.584330250E0,4.632132080E0,-1.306525254E1,-9.171037323E0,1.662123332E1
3.594315250E0,6.001752300E0,-1.248550111E1,-7.455159611E0,1.573175685E1
3.604301250E0,7.528111228E0,-1.178949768E1,-5.957157340E0,1.520369816E1
3.614286250E0,8.595288895E0,-1.131725081E1,-5.303542711E0,1.516860977E1
3.624271250E0,9.185943046E0,-1.091252409E1,-4.818138442E0,1.505586894E1
3.634256250E0,9.659297957E0,-1.076753536E1,-3.766909640E0,1.494762399E1
3.644242250E0,1.071534662E1,-1.038666059E1,-2.705498496E0,1.516644631E1
3.654227250E0,1.196158123E1,-9.987804472E0,-2.025528712E0,1.571427473E1
3.664212250E0,1.270167384E1,-9.401170868E0,-1.269544539E0,1.585327333E1
3.674198250E0,1.294904264E1,-8.928186085E0,-6.107785124E-1,1.574049753E1
3.684183250E0,1.271248885E1,-8.414977722E0,4.444176257E-1,1.525177793E1
3.694168250E0,1.349300326E1,-7.349051943E0,2.584097435E0,1.558034856E1
3.704153250E0,1.515530586E1,-6.288722534E0,4.811947410E0,1.709930305E1
3.714139250E0,1.668421710E1,-5.661802198E0,6.688035323E0,1.884539522E1
3.724124250E0,1.714531216E1,-4.896319516E0,8.559575272E0,1.977882713E1
3.734109250E0,1.659187202E1,-3.951359765E0,9.837149792E0,1.968941282E1
3.744095250E0,1.571965105E1,-2.883499435E0,1.009445067E1,1.890290804E1
3.754080250E0,1.449040026E1,-2.425179470E0,1.044244069E1,1.802492060E1
3.764065250E0,1.316736364E1,-1.912795271E0,1.142609556E1,1.753835542E1
3.774050250E0,1.185079872E1,-1.465572444E0,1.270190422E1,1.743352241E1
3.784036250E0,1.105435532E1,-1.526941018E0,1.342280861E1,1.745571859E1
3.794021250E0,9.764157829E0,-1.068388553E0,1.334178842E1,1.656754510E1
3.804006250E0,6.739089117E0,-6.318501965E-1,1.322178367E1,1.485362314E1
3.813992250E0,2.920927755E0,-4.676028590E-1,1.314092721E1,1.346976018E1
3.823977250E0,-1.300762531E0,-4.046217683E-1,1.281796678E1,1.289015028E1
3.833962250E0,-5.301213180E0,-5.250104934E-1,1.241040181E1,1.350542744E1
3.843948250E0,-8.944629625E0,-8.796432091E-1,1.150817644E1,1.460199631E1
3.853933250E0,-1.145023755E1,-1.172176265E0,1.021863384E1,1.539163456E1
3.863918250E0,-1.278739870E1,-7.098970038E-1,9.186632432E0,1.576120981E1
3.873903250E0,-1.462064465E1,-8.011474818E-1,8.188159549E0,1.677650274E1
3.883889250E0,-1.501458209E1,-7.345021603E-1,7.343173737E0,1.673019335E1
3.893874250E0,-1.422209609E1,-1.360867815E-1,6.635758876E0,1.569457973E1
3.903859250E0,-1.257241763E1,5.793220270E-1,6.637438197E0,1.422873448E1
3.913845250E0,-1.091693640E1,1.389456460E0,6.455557045E0,1.275869532E1
3.923830250E0,-8.941094983E0,1.797790187E0,6.083744296E0,1.096299109E1
3.933815250E0,-6.557070556E0,2.008400609E0,5.410885895E0,8.735361095E0
3.943800250E0,-5.016528622E0,2.106133457E0,4.872894693E0,7.303866116E0
3.953786250E0,-3.783995789E0,1.971687842E0,4.588780823E0,6.266026374E0
3.963771250E0,-2.590723208E0,1.633029683E0,3.542183601E0,4.682488371E0
3.973756250E0,-1.944189264E0,1.244491851E0,2.122022388E0,3.135539966E0
3.983742250E0,-1.952468337E0,6.486908354E-1,7.586002171E-1,2.192807948E0
3.993727250E0,-2.083269966E0,-4.545541395E-2,-1.078282115E0,2.346225110E0
4.003712250E0,-1.949499852E0,-3.190214548E-1,-2.583415650E0,3.252131729E0
4.013697250E0,-1.484125367E0,-5.309321879E-1,-3.443293735E0,3.786923400E0
4.023683250E0,-9.744312526E-1,-6.185876150E-1,-3.580320895E0,3.761763498E0
4.033668250E0,-3.220595218E-1,-5.979723061E-1,-3.363478072E0,3.431366777E0
4.043653250E0,2.285274602E-1,-6.562308200E-1,-3.141616584E0,3.217548516E0
4.053639250E0,8.813997126E-1,-7.012260215E-1,-3.401466848E0,3.583093650E0
4.063624250E0,1.929971759E0,-4.978354855E-1,-3.415223592E0,3.954286705E0
4.073609250E0,2.616030250E0,-5.849306763E-1,-3.304976095E0,4.255423028E0
4.083594250E0,3.185498183E0,-6.381507906E-1,-3.636896800E0,4.876643665E0
4.093580250E0,3.697634752E0,-7.507507686E-1,-3.950955430E0,5.463165592E0
4.103565250E0,4.493797190E0,-7.680203008E-1,-4.162010095E0,6.173037858E0
4.113550250E0,5.307243998E0,-6.826543144E-1,-3.916646308E0,6.631212111E0
4.123536250E0,6.104352223E0,-6.243562587E-1,-3.177123216E0,6.909923931E0
4.133521250E0,7.324224665E0,-3.719874345E-1,-2.220699999E0,7.662515911E0
4.143506250E0,8.805322051E0,-1.968405946E-1,-1.413090760E0,8.920160769E0
4.153493750E0,9.911193084E0,-8.946342275E-2,-6.185670036E-1,9.930879980E0
4.163478750E0,1.087948381E1,1.334906908E-1,6.129320419E-1,1.089755355E1
4.173463750E0,1.157960251E1,1.434998815E-1,1.838155271E0,1.172546807E1
4.183448750E0,1.217979347E1,8.329782620E-2,2.378625108E0,1.241016378E1
4.193434750E0,1.240692857E1,-4.871841609E-2,2.584259403E0,1.267330449E1
4.203419750E0,1.215483171E1,-2.051453219E-1,3.199413387E0,1.257053159E1
4.213404750E0,1.214259232E1,-1.036623627E-1,4.354234385E0,1.290010276E1
4.223390750E0,1.187613119E1,-1.575467938E-1,5.978952252E0,1.329718704E1
4.233375750E0,1.108411063E1,-3.207231407E-1,7.431864889E0,1.334889462E1
4.243360750E0,9.930319326E0,-6.683624768E-1,8.522150168E0,1.310286205E1
4.253345750E0,8.563282991E0,-9.494961669E-1,9.969298035E0,1.317642827E1
4.263331750E0,6.839399271E0,-1.237052439E0,1.158136253E1,1.350687377E1
4.273316750E0,4.979606963E0,-1.685940845E0,1.330097135E1,1.430226279E1
4.283301750E0,2.674589822E0,-2.310691718E0,1.509144140E1,1.549981712E1
4.293287750E0,5.684455116E-1,-2.662848905E0,1.661708756E1,1.683869037E1
4.303272750E0,-1.327585902E0,-2.907640250E0,1.774518152E1,1.803076047E1
4.313257750E0,-2.934200350E0,-2.982402164E0,1.891937843E1,1.937645826E1
4.323242750E0,-4.640172002E0,-3.166940583E0,1.961125490E1,2.040004970E1
4.333228750E0,-6.406104804E0,-3.548096013E0,1.943997592E1,2.077353672E1
4.343213750E0,-8.035434369E0,-3.872855633E0,1.876399102E1,2.077629840E1
4.353198750E0,-9.267248579E0,-4.226586159E0,1.792615869E1,2.061778582E1
4.363184750E0,-1.104185163E1,-4.844083707E0,1.688251022E1,2.074624751E1
4.373169750E0,-1.266011183E1,-5.532003366E0,1.563861332E1,2.086738411E1
4.383154750E0,-1.406982407E1,-6.444382432E0,1.370866846E1,2.067408052E1
4.393139750E0,-1.581975071E1,-7.252745377E0,1.166011750E1,2.094815429E1
4.403125750E0,-1.706156015E1,-8.078866902E0,1.010990603E1,2.141436726E1
4.413110750E0,-1.756458441E1,-8.929342080E0,8.626810650E0,2.150975680E1
4.423095750E0,-1.756325476E1,-9.758084911E0,6.872990940E0,2.123502162E1
4.433081750E0,-1.717477043E1,-1.046208617E1,5.123599327E0,2.075281321E1
4.443066750E0,-1.701020288E1,-1.103737033E1,3.398148553E0,2.056010602E1
4.453051750E0,-1.658065590E1,-1.165823002E1,1.792917702E0,2.034814564E1
4.463037750E0,-1.593488121E1,-1.230326445E1,2.712166661E-1,2.013366121E1
4.473022750E0,-1.528015327E1,-1.272189234E1,-1.097661542E0,1.991317377E1
4.483007750E0,-1.460526881E1,-1.318913048E1,-2.252454473E0,1.980758923E1
4.492992750E0,-1.374121172E1,-1.345140383E1,-3.485662075E0,1.954254346E1
4.502978750E0,-1.285440428E1,-1.378550789E1,-4.523757446E0,1.938402225E1
4.512963750E0,-1.217932336E1,-1.405081010E1,-5.493547398E0,1.938917855E1
4.522948750E0,-1.130490032E1,-1.425954868E1,-6.086705911E0,1.918810800E1
4.532934750E0,-1.030543224E1,-1.437787527E1,-6.500436180E0,1.884624370E1
4.542919750E0,-9.142240371E0,-1.437336824E1,-7.105934072E0,1.845720923E1
4.552904750E0,-7.685564466E0,-1.442038921E1,-7.641882842E0,1.803923223E1
4.562889750E0,-6.562324864E0,-1.442033775E1,-8.482568026E0,1.797120499E1
4.572875750E0,-5.826779634E0,-1.449822617E1,-9.105243284E0,1.808467247E1
4.582860750E0,-5.057689512E0,-1.459003565E1,-9.682007958E0,1.822609781E1
4.592845750E0,-4.370266866E0,-1.464516086E1,-1.015775964E1,1.835102313E1
4.602831750E0,-3.634226669E0,-1.442258425E1,-1.044653491E1,1.817549536E1
4.612816750E0,-2.674586314E0,-1.415561676E1,-1.050602098E1,1.783006939E1
4.622801750E0,-1.920083241E0,-1.395274527E1,-1.071258322E1,1.769534571E1
4.632786750E0,-1.246642165E0,-1.394941119E1,-1.110785033E1,1.787524904E1
4.642772750E0,-7.000425451E-1,-1.426963045E1,-1.125796472E1,1.818939753E1
4.652757750E0,-3.492645332E-1,-1.433659393E1,-1.116402102E1,1.817402753E1
4.662742750E0,1.505874195E-1,-1.462408047E1,-1.146367562E1,1.858231054E1
4.672728750E0,6.107695954E-1,-1.462368871E1,-1.157276361E1,1.865888980E1
4.682713750E0,1.266170988E0,-1.459315221E1,-1.128073846E1,1.848832985E1
4.692698750E0,2.636912118E0,-1.442577683E1,-1.111206968E1,1.839930529E1
4.702683750E0,4.325875974E0,-1.397064711E1,-1.108020469E1,1.834838193E1
4.712669750E0,5.602440096E0,-1.364624826E1,-1.061080191E1,1.817131101E1
4.722654750E0,6.817149446E0,-1.320798191E1,-9.766942858E0,1.778531657E1
4.732639750E0,8.292928789E0,-1.261458424E1,-8.742588444E0,1.744514993E1
4.742625750E0,9.455922441E0,-1.228256180E1,-7.838032953E0,1.736981733E1
4.752610750E0,1.030772903E1,-1.166692366E1,-6.861205877E0,1.701301066E1
4.762595750E0,1.080858047E1,-1.131220350E1,-6.024926569E0,1.676577168E1
4.772580750E0,1.123765150E1,-1.101059710E1,-5.255896089E0,1.658742003E1
4.782566750E0,1.196102692E1,-1.045015668E1,-3.836909582E0,1.633994537E1
4.792551750E0,1.273438668E1,-1.025182497E1,-2.415682422E0,1.652573874E1
4.802536750E0,1.328281691E1,-9.923550589E0,-1.336720276E0,1.663420880E1
4.812522750E0,1.423043071E1,-8.931092151E0,4.656792712E-1,1.680733240E1
4.822507750E0,1.528004919E1,-8.022366427E0,3.027993490E0,1.752161554E1
4.832492750E0,1.546723962E1,-7.284936638E0,5.127148587E0,1.784918642E1
4.842477750E0,1.511564186E1,-6.081987208E0,7.105649897E0,1.777536097E1
4.852463750E0,1.506164750E1,-4.342422133E0,9.521038204E0,1.834012061E1
4.862448750E0,1.613040275E1,-2.574303057E0,1.194833378E1,2.023807326E1
4.872433750E0,1.732437612E1,-5.420803066E-1,1.415685754E1,2.237955483E1
4.882419750E0,1.790472981E1,4.934217513E-1,1.648669231E1,2.434407193E1
4.892404750E0,1.760862798E1,2.453082748E-1,1.790925439E1,2.511703303E1
4.902389750E0,1.573790372E1,-3.278688037E-1,1.784720841E1,2.379730992E1
4.912375750E0,1.175696143E1,-1.306911024E0,1.634083468E1,2.017317617E1
4.922360750E0,6.952159317E0,-1.192515805E0,1.427146530E1,1.591946403E1
4.932345750E0,2.511716799E0,-5.148743450E-1,1.276003139E1,1.301507657E1
4.942330750E0,-9.887890175E-1,-3.021749686E-1,1.303851907E1,1.307944926E1
4.952316750E0,-4.480197444E0,-1.023376833E0,1.452109697E1,1.523094635E1
4.962301750E0,-7.949056376E0,-1.365611368E0,1.638643946E1,1.826383831E1
4.972286750E0,-9.963531511E0,-1.126476547E0,1.711182983E1,1.983319515E1
4.982272750E0,-1.222997311E1,-8.137545173E-1,1.523152666E1,1.955080159E1
4.992257750E0,-1.539840853E1,-1.208207100E0,1.234134853E1,1.977067610E1
5.002242750E0,-1.860583319E1,-1.884314214E0,9.294425268E0,2.088334288E1
5.012227750E0,-2.022009740E1,-2.138607723E0,6.580383405E0,2.137118218E1
5.022213750E0,-1.949838961E1,-2.483137656E0,5.169873022E0,2.032438823E1
5.032198750E0,-1.713276988E1,-1.993307191E0,4.338452750E0,1.778559106E1
5.042183750E0,-1.335209823E1,-8.290979766E-1,4.586464741E0,1.414219182E1
5.052169750E0,-9.057655134E0,2.935553688E-1,4.694033044E0,1.020594128E1
5.062154750E0,-4.839953819E0,1.000876966E0,4.385749124E0,6.607700284E0
5.072139750E0,-9.317004584E-1,1.859869783E0,3.538287601E0,4.104468358E0
5.082124750E0,1.596911871E0,2.200335170E0,2.236043093E0,3.520154982E0
5.092110750E0,1.894684836E0,2.170859649E0,7.812616861E-1,2.985436662E0
5.102095750E0,5.476826701E-1,1.510886757E0,-1.168940855E0,1.987248807E0
5.112080750E0,-5.180975861E-1,6.052053484E-1,-2.695077004E0,2.810362731E0
5.122066750E0,-1.367547820E0,-1.641710313E-1,-3.982124013E0,4.213603069E0
5.132051750E0,-1.474444716E0,-6.340326697E-1,-4.846530767E0,5.105374141E0
5.142036750E0,-1.103051651E0,-7.151601557E-1,-4.758605601E0,4.936851654E0
5.152021167E0,2.951446055E-3,-7.103538906E-1,-3.695688799E0,3.763339881E0
5.162007167E0,1.066686355E0,-6.034053196E-1,-2.781500605E0,3.039516965E0
5.171992167E0,1.903455075E0,-5.994469739E-1,-2.122620558E0,2.913416539E0
5.181977167E0,2.726369548E0,-6.452989387E-1,-1.635889556E0,3.244323700E0
5.191963167E0,3.011169004E0,-7.667217073E-1,-1.663233476E0,3.524393074E0
5.201948167E0,3.052302996E0,-1.055597403E0,-1.783588470E0,3.689448101E0
5.211933167E0,3.387732030E0,-1.140847542E0,-2.203403351E0,4.199196084E0
5.221919167E0,4.051911117E0,-1.083041018E0,-2.432544038E0,4.848528853E0
5.231904167E0,5.250994953E0,-7.210263748E-1,-1.983988338E0,5.659420178E0
5.241889167E0,6.967600644E0,-2.143296897E-2,-1.151295127E0,7.062110065E0
5.251874167E0,8.730111655E0,5.798862834E-1,-3.222441477E-1,8.755281772E0
5.261860167E0,1.050571692E1,1.109219075E0,4.423190600E-1,1.057336754E1
5.271845167E0,1.215519541E1,1.524613680E0,1.501797699E0,1.234214805E1
5.281830167E0,1.311449428E1,1.671810610E0,2.983903145E0,1.355317634E1
5.291816167E0,1.362688345E1,1.625770365E0,4.147577997E0,1.433657857E1
5.301801167E0,1.380364127E1,1.477361746E0,4.842635352E0,1.470286460E1
5.311786167E0,1.331653780E1,1.308269917E0,5.594134710E0,1.450296840E1
5.321771167E0,1.193109619E1,8.598291148E-1,6.469745314E0,1.359955760E1
5.331757167E0,1.019019649E1,3.947120534E-1,7.553918499E0,1.269084657E1
5.341742167E0,8.271184164E0,-2.083937426E-1,8.684734338E0,1.199502088E1
5.351727167E0,6.235142158E0,-7.493886597E-1,9.952286146E0,1.176803215E1
5.361713167E0,4.217536424E0,-1.178056372E0,1.126043108E1,1.208191783E1
5.371698167E0,2.800560189E0,-1.589372617E0,1.234202213E1,1.275518534E1
5.381683167E0,1.097913191E0,-1.931214293E0,1.300024203E1,1.318868056E1
5.391668167E0,-6.533961629E-1,-2.060688312E0,1.383228094E1,1.400019138E1
5.401654167E0,-2.080330279E0,-2.076336046E0,1.455127796E1,1.484515530E1
5.411639167E0,-3.460580151E0,-2.242393462E0,1.437164214E1,1.495152304E1
5.421624167E0,-5.009672177E0,-2.557680592E0,1.400586138E1,1.509313415E1
5.431610167E0,-7.168770590E0,-2.840070995E0,1.334390511E1,1.541158910E1
5.441595167E0,-8.443638434E0,-2.963745161E0,1.269049046E1,1.552827625E1
5.451580167E0,-8.995795686E0,-3.103280776E0,1.185656758E1,1.520305516E1
5.461565167E0,-9.729002615E0,-3.332267682E0,1.117676795E1,1.518807564E1
5.471551167E0,-1.054494823E1,-3.696328192E0,1.117361513E1,1.580216600E1
5.481536167E0,-1.159047951E1,-4.547601222E0,1.080000261E1,1.648210995E1
5.491521167E0,-1.236548467E1,-5.497396036E0,1.013392756E1,1.690630244E1
5.501507167E0,-1.323990186E1,-6.543620206E0,8.658890229E0,1.711988162E1
5.511492167E0,-1.464077077E1,-7.757080591E0,6.614642826E0,1.784034662E1
5.521477167E0,-1.588933608E1,-8.779380294E0,5.039031047E0,1.883986076E1
5.531463167E0,-1.641721803E1,-9.477275888E0,3.906491448E0,1.935470180E1
5.541448167E0,-1.623482116E1,-1.018244425E1,2.742783267E0,1.935909215E1
5.551433167E0,-1.583063705E1,-1.078636339E1,1.483055618E0,1.921338488E1
5.561418167E0,-1.564755020E1,-1.133237405E1,4.529358494E-1,1.932546713E1
5.571404167E0,-1.525271112E1,-1.191993736E1,-4.810200262E-1,1.936392221E1
5.581389167E0,-1.455611361E1,-1.238031204E1,-1.702097579E0,1.918462160E1
5.591374167E0,-1.343269274E1,-1.271769872E1,-2.982881636E0,1.873698690E1
5.601359167E0,-1.225324970E1,-1.290091655E1,-3.616565446E0,1.815641269E1
5.611345167E0,-1.143332857E1,-1.300256337E1,-3.788636139E0,1.772403510E1
5.621330167E0,-1.039657630E1,-1.311998248E1,-4.770780088E0,1.740640921E1
5.631315167E0,-9.192165653E0,-1.305363062E1,-6.032840191E0,1.706717148E1
5.641301167E0,-8.231162311E0,-1.313298786E1,-6.776012530E0,1.691572490E1
5.651286167E0,-7.205644301E0,-1.315061604E1,-7.475602646E0,1.675543634E1
5.661271167E0,-6.183373834E0,-1.316264611E1,-8.142436076E0,1.666699222E1
5.671257167E0,-5.209836402E0,-1.319582321E1,-8.484126309E0,1.653035222E1
5.681242167E0,-4.240738468E0,-1.312442870E1,-8.860704539E0,1.639349189E1
5.691227167E0,-3.352567168E0,-1.300474322E1,-9.391322402E0,1.638780001E1
5.701212167E0,-2.548208103E0,-1.282477293E1,-9.645315510E0,1.624808532E1
5.711198167E0,-1.734674903E0,-1.247951824E1,-9.634816834E0,1.586118432E1
5.721183167E0,-1.117748774E0,-1.228232674E1,-9.658268262E0,1.566483509E1
5.731168167E0,-6.042216640E-1,-1.219317307E1,-9.948637483E0,1.574845837E1
5.741154167E0,-2.169000527E-1,-1.233970664E1,-1.008270478E1,1.593663519E1
5.751139167E0,2.418158425E-1,-1.251471380E1,-1.036193506E1,1.624949952E1
5.761124167E0,8.500427031E-1,-1.252374190E1,-1.090926251E1,1.663065520E1
5.771109167E0,1.345895434E0,-1.256170202E1,-1.128156642E1,1.693757755E1
5.781095167E0,1.844752392E0,-1.255356036E1,-1.149492665E1,1.712099085E1
5.791080167E0,2.515249395E0,-1.249144422E1,-1.140667813E1,1.710189943E1
5.801065167E0,3.352240309E0,-1.221800269E1,-1.099669242E1,1.677630320E1
5.811051167E0,4.181421096E0,-1.201951311E1,-1.025019944E1,1.634073335E1
5.821036167E0,5.218986125E0,-1.172194596E1,-9.336946805E0,1.586885027E1
5.831021167E0,6.224868600E0,-1.134795103E1,-8.547920601E0,1.551102603E1
5.841006167E0,6.958117629E0,-1.114224716E1,-7.899244530E0,1.532850732E1
5.850992167E0,7.457177485E0,-1.101775643E1,-7.162306493E0,1.510956939E1
5.860977167E0,7.770875927E0,-1.076768505E1,-6.505826143E0,1.478699860E1
5.870962167E0,7.544727260E0,-1.095044562E1,-5.890416636E0,1.454414579E1
5.880948167E0,7.831543128E0,-1.085487639E1,-5.343568656E0,1.441232581E1
5.890933167E0,8.329656320E0,-1.064489586E1,-4.302394141E0,1.418476569E1
5.900918167E0,8.595925072E0,-1.066244101E1,-3.414075783E0,1.411500937E1
5.910903167E0,9.543323697E0,-1.022076924E1,-2.429531552E0,1.419301852E1
5.920889167E0,1.143378465E1,-9.076131166E0,-5.522168934E-1,1.460864579E1
5.930874167E0,1.350858609E1,-7.471860428E0,1.817881805E0,1.554397925E1
5.940859167E0,1.655132392E1,-5.455803621E0,4.135033965E0,1.791118708E1
5.950845167E0,1.949098119E1,-3.619013968E0,5.712458382E0,2.063074867E1
5.960830167E0,2.098712346E1,-2.470888616E0,7.757454228E0,2.251094706E1
5.970815167E0,2.024090881E1,-2.219689747E0,1.035929679E1,2.284592835E1
5.980800167E0,1.859917906E1,-2.533144214E0,1.253407510E1,2.257098403E1
5.990786167E0,1.752102383E1,-3.292951296E0,1.430497453E1,2.285742987E1
6.000771167E0,1.624136536E1,-4.169446876E0,1.552948323E1,2.285456377E1
6.010756167E0,1.300471398E1,-4.910888146E0,1.562222124E1,2.091155672E1
6.020742167E0,8.649975564E0,-4.832638952E0,1.470715538E1,1.773349643E1
6.030727167E0,4.859739627E0,-3.607727380E0,1.331626415E1,1.462722315E1
6.040712167E0,1.628258794E0,-2.253267675E0,1.165044036E1,1.197752907E1
6.050698167E0,-1.055618088E0,-1.536565535E0,1.093813138E1,1.109585875E1
6.060683167E0,-3.846704253E0,-1.488332438E0,1.125132229E1,1.198351035E1
6.070668167E0,-7.477261502E0,-1.960539102E0,1.184145136E1,1.414118536E1
6.080653167E0,-1.045375505E1,-2.046630290E0,1.228610170E1,1.626093433E1
6.090639167E0,-1.272416106E1,-1.486489396E0,1.119556441E1,1.701336498E1
6.100624167E0,-1.503063036E1,-1.011561730E0,1.012970704E1,1.815362418E1
6.110609167E0,-1.706864112E1,-8.435250311E-1,9.722760712E0,1.966169169E1
6.120595167E0,-1.703992311E1,-4.492164356E-1,8.707006967E0,1.914086585E1
6.130580167E0,-1.583472192E1,-1.949135716E-1,7.747956011E0,1.762972580E1
6.140565167E0,-1.376982098E1,2.511757730E-1,7.352680140E0,1.561194941E1
6.150550042E0,-1.125833310E1,8.236338267E-1,6.740357378E0,1.314765585E1
6.160536042E0,-8.300068240E0,1.552466161E0,5.620612072E0,1.014359719E1
6.170521042E0,-6.250765334E0,1.955248688E0,4.716774035E0,8.071122722E0
6.180506042E0,-4.867386616E0,2.082584965E0,3.537506413E0,6.367304314E0
6.190492042E0,-4.132837166E0,1.936537305E0,2.399983233E0,5.156591829E0
6.200477042E0,-3.450173277E0,1.459723620E0,1.314161718E0,3.970076789E0
6.210462042E0,-2.757945389E0,9.124730591E-1,-4.622223973E-3,2.904976974E0
6.220447042E0,-2.181448664E0,4.849590761E-1,-1.097503667E0,2.489662202E0
6.230433042E0,-1.849836546E0,1.564575306E-1,-1.697226264E0,2.515343157E0
6.240418042E0,-1.249850093E0,2.192077294E-2,-1.826918092E0,2.213647553E0
6.250403042E0,-7.095739451E-1,-1.784828226E-1,-1.827115728E0,1.968172549E0
6.260389042E0,-9.408144403E-2,-1.623820026E-1,-1.743890553E0,1.753959376E0
6.270374042E0,3.036682927E-1,-2.301652654E-1,-1.799482956E0,1.839382883E0
6.280359042E0,5.176481545E-1,-2.565079951E-1,-1.999812073E0,2.081586964E0
6.290344042E0,8.050514484E-1,-4.880235288E-1,-2.249655996E0,2.438693687E0
6.300330042E0,8.566798776E-1,-6.385235506E-1,-2.342961770E0,2.575088852E0
6.310315042E0,9.854007022E-1,-8.023793440E-1,-2.129652420E0,2.479969069E0
6.320300042E0,1.496406127E0,-8.065994988E-1,-2.110077111E0,2.709660396E0
6.330286042E0,2.434935549E0,-6.833638009E-1,-2.092428460E0,3.282400657E0
6.340271042E0,3.283360693E0,-4.762104721E-1,-2.136041088E0,3.945871942E0
6.350256042E0,4.357957308E0,-2.194847412E-1,-2.125214968E0,4.853504312E0
6.360241042E0,5.820526621E0,1.892750285E-1,-1.679422662E0,6.060925314E0
6.370227042E0,7.282843335E0,4.528753307E-1,-1.111969094E0,7.381150207E0
6.380212042E0,8.761656214E0,8.004300284E-1,-7.713699514E-1,8.831892178E0
6.390197042E0,9.982256634E0,1.047989518E0,-4.769252211E-1,1.004844203E1
6.400183042E0,1.102082505E1,1.087778359E0,2.174281293E-1,1.107651215E1
6.410168042E0,1.170068432E1,1.109277913E0,1.621593699E0,1.186448807E1
6.420153042E0,1.197455854E1,1.021225131E0,2.702302408E0,1.231809203E1
6.430139042E0,1.209197180E1,8.339741890E-1,3.372883903E0,1.258124163E1
6.440124042E0,1.199285799E1,7.357924215E-1,4.204364401E0,1.272975700E1
6.450109042E0,1.168413085E1,5.851981133E-1,5.486362925E0,1.292136017E1
6.460094042E0,1.121844573E1,4.949131568E-1,7.197987372E0,1.333827147E1
6.470080042E0,1.055911954E1,2.953266366E-1,9.197489542E0,1.400628563E1
6.480065042E0,9.523524440E0,-4.817491740E-2,1.116250074E1,1.467314763E1
6.490050042E0,8.365355911E0,-4.787213396E-1,1.289529386E1,1.537845758E1
6.500036042E0,6.837625226E0,-8.087596795E-1,1.403525884E1,1.563316032E1
6.510021042E0,5.105222113E0,-1.204208921E0,1.439019185E1,1.531636489E1
6.520006042E0,3.367955578E0,-1.718775592E0,1.420230678E1,1.469703481E1
6.529991042E0,1.495556965E0,-2.137021227E0,1.379975405E1,1.404410061E1
6.539977042E0,-3.304376317E-1,-2.439465825E0,1.379535460E1,1.401327910E1
6.549962042E0,-1.669323205E0,-2.675489124E0,1.385551309E1,1.420986014E1
6.559947042E0,-2.844935879E0,-3.013262599E0,1.377190025E1,1.438188611E1
6.569933042E0,-4.159420947E0,-3.272908795E0,1.378727609E1,1.476826654E1
6.579918042E0,-5.508051417E0,-3.629938613E0,1.372627559E1,1.522910787E1
6.589903042E0,-7.270128565E0,-4.210035031E0,1.344107180E1,1.585060174E1
6.599888042E0,-9.304612872E0,-4.886105307E0,1.302945589E1,1.673967044E1
6.609874042E0,-1.106654793E1,-5.683276682E0,1.253046620E1,1.765731294E1
6.619859042E0,-1.242090809E1,-6.503502460E0,1.182139424E1,1.833902570E1
6.629844042E0,-1.363695353E1,-7.417937990E0,1.112262390E1,1.909725289E1
6.639830042E0,-1.488225843E1,-8.176646381E0,1.016390857E1,1.979000252E1
6.649815042E0,-1.555410234E1,-8.735595174E0,8.908961025E0,1.994016824E1
6.659800042E0,-1.558606790E1,-9.252555111E0,7.585735538E0,1.964888476E1
6.669786042E0,-1.587325273E1,-1.001158159E1,6.081785479E0,1.972764641E1
6.679771042E0,-1.602920148E1,-1.070945730E1,4.627988743E0,1.982538917E1
6.689756042E0,-1.573502923E1,-1.127375571E1,3.170850908E0,1.961486702E1
6.699741042E0,-1.546711565E1,-1.184004218E1,1.409854326E0,1.952961737E1
6.709727042E0,-1.489362308E1,-1.212006650E1,-4.061867756E-1,1.920627523E1
6.719712042E0,-1.418618016E1,-1.245573060E1,-2.042340626E0,1.898852515E1
6.729697042E0,-1.366336657E1,-1.285440078E1,-3.490105959E0,1.908151055E1
6.739683042E0,-1.288554188E1,-1.300554779E1,-4.627482374E0,1.888372463E1
6.749668042E0,-1.164200400E1,-1.329433242E1,-5.646933898E0,1.855164128E1
6.759653042E0,-1.006955907E1,-1.328896467E1,-6.239361509E0,1.780230980E1
6.769638042E0,-8.806717781E0,-1.366944651E1,-6.672574700E0,1.757655538E1
6.779624042E0,-8.079758602E0,-1.399882601E1,-8.010728129E0,1.803943995E1
6.789609042E0,-7.158250279E0,-1.398440444E1,-9.573109413E0,1.839697090E1
6.799594042E0,-6.020970343E0,-1.395559754E1,-1.063433929E1,1.854993151E1
6.809580042E0,-5.097188623E0,-1.386228885E1,-1.117458811E1,1.852068582E1
6.819565042E0,-4.339767205E0,-1.360441728E1,-1.147463915E1,1.831887258E1
6.829550042E0,-3.501574396E0,-1.344700088E1,-1.161400168E1,1.810988379E1
6.839535042E0,-2.643541399E0,-1.327912030E1,-1.154207742E1,1.779165249E1
6.849521042E0,-1.548128697E0,-1.296700061E1,-1.131026690E1,1.727605118E1
6.859506042E0,-5.776155902E-1,-1.266798102E1,-1.111500030E1,1.686281751E1
6.869491042E0,-1.612878424E-1,-1.250689023E1,-1.090029288E1,1.659110309E1
6.879477042E0,3.072247703E-1,-1.247023988E1,-1.092727544E1,1.658332350E1
6.889462042E0,6.875665603E-1,-1.248893226E1,-1.107979772E1,1.670952107E1
6.899447042E0,9.000174665E-1,-1.253424584E1,-1.111788181E1,1.677869620E1
6.909432042E0,1.355941097E0,-1.239752624E1,-1.088018197E1,1.655039555E1
6.919418042E0,1.946700936E0,-1.214463884E1,-1.020181140E1,1.597995159E1
6.929403042E0,1.990424660E0,-1.207065402E1,-9.651032917E0,1.558219867E1
6.939388042E0,2.049470136E0,-1.210637934E1,-9.488377411E0,1.551754022E1
6.949374042E0,2.194862469E0,-1.202803601E1,-9.393388224E0,1.541839206E1
6.959359042E0,2.572737173E0,-1.207672226E1,-9.160953215E0,1.537495564E1
6.969344042E0,3.176946338E0,-1.208849856E1,-8.585555620E0,1.516365888E1
6.979329042E0,3.487510088E0,-1.198111678E1,-8.061203048E0,1.485573561E1
6.989315042E0,4.017215493E0,-1.165605486E1,-7.192512624E0,1.427353751E1
6.999300042E0,4.764560113E0,-1.134601677E1,-6.403889878E0,1.387238030E1
7.009285042E0,5.648519663E0,-1.081509193E1,-5.513326775E0,1.338912843E1
7.019271042E0,6.610467330E0,-1.035826768E1,-4.046627573E0,1.293704690E1
7.029256042E0,7.563257672E0,-9.910848098E0,-3.140148348E0,1.285645006E1
7.039241042E0,8.779634063E0,-9.165213497E0,-2.256403683E0,1.289086771E1
7.049227042E0,1.059910865E1,-8.530814572E0,-8.031454754E-1,1.362941466E1
7.059212042E0,1.260103975E1,-7.885119411E0,9.965737081E-1,1.489813647E1
7.069197042E0,1.388805051E1,-7.067212640E0,2.840933459E0,1.583964470E1
7.079182042E0,1.434371116E1,-6.499377834E0,4.172876560E0,1.629100552E1
7.089168042E0,1.468751458E1,-6.083732017E0,4.984850746E0,1.666084082E1
7.099153042E0,1.511544656E1,-5.858684966E0,5.299785874E0,1.705545791E1
7.109138042E0,1.534447265E1,-5.764310905E0,5.424466054E0,1.726571611E1
7.119124042E0,1.515129233E1,-5.500075815E0,5.975521690E0,1.719067633E1
7.129109042E0,1.487194979E1,-5.309436704E0,6.612449536E0,1.711985682E1
7.139094042E0,1.479494313E1,-4.867031105E0,7.499487938E0,1.728642975E1
7.149079042E0,1.448556227E1,-3.759123780E0,8.575063961E0,1.724802157E1
7.159065042E0,1.389556067E1,-3.200380809E0,1.016961312E1,1.751428202E1
7.169050042E0,1.235001177E1,-2.756794657E0,1.166235933E1,1.720852500E1
7.179035042E0,1.039297559E1,-2.359777339E0,1.260198232E1,1.650431608E1
7.189021042E0,7.787037047E0,-1.818115547E0,1.305677408E1,1.531087324E1
7.199006042E0,4.029043826E0,-1.048420604E0,1.336658295E1,1.399992571E1
7.208991042E0,-1.408961894E-1,-9.041001387E-1,1.443931548E1,1.446827841E1
7.218976042E0,-4.379339406E0,-9.927559879E-1,1.620030036E1,1.681112459E1
7.228962042E0,-8.204510702E0,-1.162761371E0,1.792630955E1,1.974888817E1
7.238947042E0,-1.186534542E1,-1.432426040E0,1.876791567E1,2.225023426E1
7.248932042E0,-1.474747193E1,-1.631441433E0,1.813286361E1,2.342968784E1
7.258918042E0,-1.642841194E1,-1.100755304E0,1.671385664E1,2.346182825E1
7.268903042E0,-1.722693344E1,-3.982854331E-1,1.401641677E1,2.221228953E1
7.278888042E0,-1.664737847E1,3.829277211E-1,1.087546794E1,1.988863109E1
7.288873042E0,-1.554681087E1,7.371312878E-1,8.132764782E0,1.756099523E1
7.298859042E0,-1.407676706E1,1.001323986E0,6.191580402E0,1.541083023E1
7.308844042E0,-1.182697950E1,1.261901351E0,4.971868758E0,1.289144360E1
7.318829042E0,-9.077494737E0,1.403910777E0,3.944646869E0,9.996605178E0
7.328815042E0,-6.212538577E0,1.591314331E0,2.743028850E0,6.975107464E0
7.338800042E0,-3.508935163E0,1.717786828E0,1.242024034E0,4.099517199E0
7.348785042E0,-1.615549286E0,1.717549139E0,4.955515265E-3,2.357965033E0
7.358770042E0,-1.270776383E-1,1.669114020E0,-3.087248003E-1,1.702175473E0
7.368756042E0,6.745410834E-1,1.528225067E0,-7.016465825E-1,1.811845870E0
7.378741042E0,7.114954133E-1,1.126657446E0,-1.641141526E0,2.113983971E0
7.388726042E0,3.651314279E-1,5.404957842E-1,-2.389946487E0,2.477357637E0
7.398712042E0,-6.892360865E-1,-3.926851161E-2,-2.892110045E0,2.973363232E0
7.408697042E0,-1.015936178E0,-4.021151400E-1,-3.334439045E0,3.508889661E0
7.418682042E0,-5.349453878E-1,-5.688764148E-1,-3.243459878E0,3.336138325E0
7.428667042E0,-1.980549151E-1,-4.824968136E-1,-2.490315698E0,2.544346910E0
7.438653042E0,5.792828324E-2,-2.505844733E-1,-1.751057485E0,1.769844790E0
7.448638042E0,4.237441369E-1,2.656587414E-2,-1.480257726E0,1.539944081E0
7.458623042E0,8.872932675E-1,1.713267077E-1,-1.416147099E0,1.679915114E0
7.468609042E0,1.280808469E0,2.667238849E-1,-1.524320004E0,2.008771624E0
7.478594042E0,1.189831860E0,2.592148905E-1,-1.609084750E0,2.017931106E0
7.488579042E0,1.150254177E0,2.571359130E-1,-1.367486570E0,1.805331845E0
7.498564042E0,1.480917584E0,3.238898465E-1,-6.234564453E-1,1.639121552E0
7.508550042E0,1.920135866E0,3.431206079E-1,-1.762415117E-1,1.958498038E0
7.518535042E0,2.444289340E0,4.477305119E-1,7.504433513E-2,2.486090232E0
7.528520042E0,3.351545367E0,6.307773055E-1,5.042977917E-1,3.447470467E0
7.538506042E0,4.490037138E0,7.548119523E-1,4.685461611E-1,4.577085327E0
7.548491042E0,5.573984621E0,1.048627230E0,4.908988971E-1,5.692969818E0
7.558476042E0,6.365464901E0,1.319993585E0,8.413921130E-1,6.555110003E0
7.568461042E0,6.981493043E0,1.341343669E0,1.120952171E0,7.197012000E0
7.578447042E0,7.879622444E0,1.244761992E0,1.298454927E0,8.082318199E0
7.588432042E0,8.807962654E0,1.017162339E0,1.542853339E0,8.999734538E0
7.598417042E0,9.475969620E0,9.023021199E-1,2.177772081E0,9.764775501E0
7.608403042E0,9.978700358E0,5.833106321E-1,2.873731077E0,1.040062702E1
7.618388042E0,1.018889373E1,2.846092750E-1,2.962242719E0,1.061458618E1
7.628373042E0,1.004078025E1,-1.041437347E-1,2.891741086E0,1.044941531E1
7.638359042E0,9.547301558E0,-6.092708078E-1,3.098446591E0,1.005597082E1
7.648344042E0,8.668839852E0,-7.947596911E-1,3.815514035E0,9.504660683E0
7.658329042E0,7.801291389E0,-8.043000081E-1,4.997612295E0,9.299633030E0
7.668314042E0,7.494800225E0,-7.273847102E-1,6.346377835E0,9.847722099E0
7.678300042E0,7.019074852E0,-6.027169561E-1,8.124535995E0,1.075354661E1
7.688285042E0,6.460888537E0,-5.560800026E-1,1.019006083E1,1.207847860E1
7.698270042E0,5.947153924E0,-3.757667823E-1,1.238563067E1,1.374458757E1
7.708256042E0,4.624810781E0,-4.226558970E-1,1.409658210E1,1.484187117E1
7.718241042E0,2.862678085E0,-6.911386974E-1,1.492807488E1,1.521578187E1
7.728226042E0,3.540732833E-1,-1.308699249E0,1.487062014E1,1.493229403E1
7.738211042E0,-2.596438276E0,-2.066327951E0,1.479321703E1,1.516082033E1
7.748197042E0,-5.049523290E0,-2.686056212E0,1.491837084E1,1.597718285E1
7.758182042E0,-6.938989048E0,-3.209367687E0,1.534722201E1,1.714604425E1
7.768167042E0,-8.509927148E0,-3.769072817E0,1.558908857E1,1.815611336E1
7.778153042E0,-9.528592222E0,-4.288354976E0,1.561404800E1,1.878782992E1
7.788138042E0,-1.029188658E1,-4.786162943E0,1.581524952E1,1.946669984E1
7.798123042E0,-1.147063263E1,-5.465661442E0,1.553104209E1,2.006644305E1
7.808108042E0,-1.276538277E1,-6.417157795E0,1.473240131E1,2.052263530E1
7.818094042E0,-1.405869565E1,-7.648001368E0,1.322343376E1,2.076049250E1
7.828079042E0,-1.507961366E1,-8.757670167E0,1.126054568E1,2.075792436E1
7.838064042E0,-1.555493265E1,-9.804953268E0,9.216160871E0,2.056770915E1
7.848050042E0,-1.609606556E1,-1.093210992E1,6.799537048E0,2.061135750E1
7.858035042E0,-1.654912069E1,-1.188959616E1,4.751376103E0,2.092394483E1
7.868020042E0,-1.684786430E1,-1.273510705E1,3.428296797E0,2.139595060E1
7.878005042E0,-1.715610845E1,-1.377429878E1,1.599691783E0,2.205951899E1
7.887991042E0,-1.730867167E1,-1.468516049E1,-5.570086867E-1,2.270582111E1
7.897976042E0,-1.738148237E1,-1.532952248E1,-2.545028679E0,2.331496000E1
7.907961042E0,-1.704910207E1,-1.586193369E1,-4.464591810E0,2.371087096E1
7.917947042E0,-1.602690937E1,-1.616747176E1,-5.823219849E0,2.349806069E1
7.927932042E0,-1.453416550E1,-1.616835586E1,-6.542541980E0,2.270380042E1
7.937917042E0,-1.296517160E1,-1.612798434E1,-7.155375788E0,2.189536380E1
7.947903042E0,-1.120370841E1,-1.610561289E1,-7.780319180E0,2.110562047E1
7.957888042E0,-9.404276324E0,-1.596208714E1,-8.197440249E0,2.025898975E1
7.967873042E0,-7.851590307E0,-1.589542420E1,-8.516064970E0,1.966813015E1
7.977858042E0,-6.501393954E0,-1.581848186E1,-8.774432965E0,1.922194490E1
7.987844042E0,-5.308417534E0,-1.566510705E1,-9.079126110E0,1.886810554E1
7.997829042E0,-4.140746987E0,-1.560457551E1,-9.579529071E0,1.877274460E1
8.007814042E0,-3.055072238E0,-1.563051259E1,-1.006867380E1,1.884209602E1
8.017800042E0,-2.202777260E0,-1.551299525E1,-1.055004349E1,1.888937974E1
8.027785042E0,-1.237313371E0,-1.520306007E1,-1.108402175E1,1.885522522E1
8.037770042E0,-1.696917714E-1,-1.466518055E1,-1.150840448E1,1.864241641E1
8.047755042E0,5.867115555E-1,-1.416844672E1,-1.132504281E1,1.814788438E1
8.057741042E0,1.014822722E0,-1.391549032E1,-1.094994276E1,1.773617722E1
8.067726042E0,1.579075086E0,-1.365021267E1,-1.110664346E1,1.766859681E1
8.077711042E0,2.367223184E0,-1.330115963E1,-1.139738807E1,1.767554944E1
8.087697042E0,3.224254113E0,-1.297702274E1,-1.137705029E1,1.755665705E1
8.097682042E0,4.150586097E0,-1.270768361E1,-1.150984172E1,1.764055113E1
8.107667042E0,4.998875878E0,-1.240574509E1,-1.174323684E1,1.779873262E1
8.117652042E0,6.165787164E0,-1.200711233E1,-1.152168117E1,1.774645922E1
8.127638042E0,7.476430612E0,-1.144796298E1,-1.086145801E1,1.746207723E1
8.137623042E0,8.329851032E0,-1.117573884E1,-1.028497868E1,1.732236541E1
8.147608042E0,9.367138903E0,-1.086629951E1,-9.616274729E0,1.727114634E1
8.157593542E0,1.094407683E1,-1.009488102E1,-8.074896643E0,1.693763255E1
8.167578542E0,1.214225084E1,-9.143864143E0,-6.182238890E0,1.640928349E1
8.177563542E0,1.293664537E1,-8.396566594E0,-4.393034170E0,1.603614272E1
8.187548542E0,1.362196244E1,-7.743659477E0,-2.735836775E0,1.590619142E1
8.197534542E0,1.434943909E1,-6.923162974E0,-1.183567665E0,1.597615161E1
8.207519542E0,1.488454470E1,-6.151031131E0,1.658907706E-1,1.610628370E1
8.217504542E0,1.536629796E1,-5.092777483E0,1.418703502E0,1.625029893E1
8.227490542E0,1.580153078E1,-4.067719941E0,3.163377582E0,1.662051980E1
8.237475542E0,1.590118020E1,-3.192575653E0,5.174425079E0,1.702394625E1
8.247460542E0,1.600829067E1,-2.189056769E0,6.870051545E0,1.755719077E1
8.257445542E0,1.618830071E1,-1.202736592E0,8.825818296E0,1.847708645E1
8.267431542E0,1.617473985E1,-5.720012400E-1,1.017403478E1,1.911701803E1
8.277416542E0,1.586026372E1,-2.136618646E-1,9.993361666E0,1.874729032E1
8.287401542E0,1.426325347E1,3.988461079E-1,8.918503681E0,1.682674020E1
8.297387542E0,1.230490284E1,2.010009617E-1,9.505073551E0,1.554983789E1
8.307372542E0,9.999326996E0,-2.352375422E-1,9.719956387E0,1.394702224E1
8.317357542E0,7.593467896E0,-7.984112772E-1,9.714588059E0,1.235602834E1
8.327342542E0,4.890311210E0,-1.561009528E0,9.765696232E0,1.103271124E1
8.337328542E0,1.991505518E0,-1.767960032E0,9.363566254E0,9.734893420E0
8.347313542E0,-8.878944343E-1,-1.879185622E0,9.509475920E0,9.733952301E0
8.357298542E0,-4.331684306E0,-1.795737083E0,9.861719792E0,1.091978378E1
8.367284542E0,-7.493358886E0,-1.868214929E0,1.113021709E1,1.354704348E1
8.377269542E0,-1.036584918E1,-2.355563689E0,1.275426955E1,1.660334006E1
8.387254542E0,-1.311804121E1,-2.794688416E0,1.380603863E1,1.924837632E1
8.397240542E0,-1.470182622E1,-2.828969179E0,1.419312431E1,2.062987006E1
8.407225542E0,-1.615574575E1,-3.188549260E0,1.373903890E1,2.144612219E1
8.417210542E0,-1.638244698E1,-3.266466333E0,1.243153716E1,2.082300380E1
8.427195542E0,-1.517734519E1,-3.101095380E0,1.056096960E1,1.874840469E1
8.437181542E0,-1.352528340E1,-2.627351629E0,8.989135122E0,1.645116464E1
8.447166542E0,-1.147797089E1,-1.812611417E0,7.846190988E0,1.402113009E1
8.457151542E0,-9.274963980E0,-1.249971131E0,6.206553367E0,1.122981253E1
8.467137542E0,-6.888681359E0,-7.302741849E-1,4.234338983E0,8.118919748E0
8.477122542E0,-4.979035106E0,-2.217968765E-1,2.314049043E0,5.494980201E0
8.487107542E0,-3.604082810E0,9.038205687E-2,4.835805219E-1,3.637503531E0
8.497092542E0,-2.402063672E0,5.962758826E-1,-8.339293116E-1,2.611683922E0
8.507078542E0,-1.667111641E0,8.677124041E-1,-1.441017061E0,2.368272833E0
8.517063542E0,-1.306940407E0,9.933476530E-1,-1.744222675E0,2.395233919E0
8.527048542E0,-1.238165602E0,8.140720211E-1,-2.263596343E0,2.705482529E0
8.537034542E0,-1.131420003E0,5.129020426E-1,-2.783113852E0,3.047770077E0
8.547019542E0,-1.233768204E0,1.745078123E-1,-2.850060963E0,3.110544076E0
8.557004542E0,-1.157043086E0,7.201105546E-2,-2.488898333E0,2.745641857E0
8.566989542E0,-8.956769322E-1,-5.438312553E-2,-1.803329254E0,2.014247028E0
8.576975542E0,-6.666930968E-1,-1.999355990E-1,-1.388156478E0,1.552878725E0
8.586960542E0,-5.690062961E-1,-2.899953646E-1,-1.134490814E0,1.301896649E0
8.596945542E0,-5.863652176E-1,-2.540539553E-1,-1.319483854E0,1.466084998E0
8.606931542E0,-3.576829523E-1,-2.153777666E-1,-1.765726980E0,1.814419038E0
8.616916542E0,8.857119245E-2,-1.380728614E-1,-2.318157297E0,2.323954006E0
8.626901542E0,4.242460473E-1,-1.312307420E-1,-2.740970045E0,2.776710825E0
8.636886542E0,7.201547742E-1,-3.303168867E-2,-2.832772501E0,2.923065862E0
8.646872542E0,1.096073438E0,1.267121233E-1,-2.492783808E0,2.726060171E0
8.656857542E0,1.836840378E0,2.748926644E-1,-2.129072376E0,2.825331438E0
8.666842542E0,3.117940331E0,5.403603846E-1,-1.644893099E0,3.566400785E0
8.676828542E0,4.482908505E0,7.687886249E-1,-1.289351397E0,4.727571432E0
8.686813542E0,5.299897556E0,8.450713272E-1,-1.088808272E0,5.476181435E0
8.696798542E0,6.144441903E0,8.519912877E-1,-9.070914280E-1,6.269200134E0
8.706783542E0,7.290418988E0,9.757269225E-1,-3.207876062E-1,7.362415143E0
8.716769542E0,8.471107484E0,1.038335326E0,6.860549819E-1,8.562036772E0
8.726754542E0,9.228558723E0,1.116304439E0,1.590124569E0,9.430849794E0
8.736739542E0,1.006345809E1,1.145397626E0,2.552913650E0,1.044521386E1
8.746725542E0,1.080025521E1,1.045028853E0,3.624167411E0,1.143993825E1
8.756710542E0,1.087025807E1,8.041039802E-1,4.524849706E0,1.180183709E1
8.766695542E0,1.061194914E1,7.444028851E-1,5.391866657E0,1.192643392E1
8.776680542E0,1.056280563E1,8.093169191E-1,6.378793044E0,1.236595557E1
8.786666542E0,1.060627032E1,8.631675095E-1,7.376830895E0,1.294819147E1
8.796651542E0,1.018264539E1,7.713689281E-1,8.378684054E0,1.320922495E1
8.806636542E0,8.582426190E0,4.249215469E-1,9.012875987E0,1.245273188E1
8.816622542E0,6.490595316E0,-5.765113436E-2,9.751735420E0,1.171441398E1
8.826607542E0,4.476865700E0,-5.274561279E-1,1.057684128E1,1.149739570E1
8.836592542E0,2.477391305E0,-1.004962562E0,1.096562031E1,1.128681737E1
8.846578542E0,8.072986065E-1,-1.423015531E0,1.116826025E1,1.128745947E1
8.856563542E0,-1.255761921E-1,-1.183950657E0,1.181166447E1,1.187151743E1
8.866548542E0,-1.019925148E0,-1.065439656E0,1.274594662E1,1.283100013E1
8.876533542E0,-2.119801615E0,-1.180612336E0,1.369239800E1,1.390572426E1
8.886519542E0,-3.588459050E0,-1.539017273E0,1.442811221E1,1.494710790E1
8.896504542E0,-5.305688054E0,-2.148726330E0,1.486678670E1,1.593074692E1
8.906489542E0,-6.854442987E0,-2.877104335E0,1.488938970E1,1.664196634E1
8.916475542E0,-8.503939015E0,-3.607955714E0,1.477533859E1,1.742541115E1
8.926460542E0,-1.013787677E1,-4.413213496E0,1.498749545E1,1.862466157E1
8.936445542E0,-1.106253440E1,-5.211781186E0,1.494854247E1,1.931324034E1
8.946430542E0,-1.209278223E1,-6.328581834E0,1.403653704E1,1.957832225E1
8.956416542E0,-1.338847727E1,-7.719213438E0,1.253969778E1,1.990179892E1
8.966401542E0,-1.456012948E1,-8.900919349E0,1.053584061E1,2.005561450E1
8.976386542E0,-1.530408944E1,-9.981545613E0,8.505421284E0,2.015412110E1
8.986372542E0,-1.567644130E1,-1.079967867E1,6.520723094E0,2.012221908E1
8.996357542E0,-1.559452181E1,-1.144220581E1,4.656328443E0,1.989458667E1
9.006342542E0,-1.496801136E1,-1.200755672E1,2.766472092E0,1.938752564E1
9.016327542E0,-1.404168844E1,-1.231133010E1,8.406249583E-1,1.869343503E1
9.026313542E0,-1.318927199E1,-1.245989732E1,-6.859579182E-1,1.815699521E1
9.036298542E0,-1.245042717E1,-1.278464349E1,-2.064720259E0,1.796450155E1
9.046283542E0,-1.184836277E1,-1.293221318E1,-3.582305440E0,1.790136169E1
9.056269542E0,-1.125457217E1,-1.314055883E1,-4.830891219E0,1.796321773E1
9.066254542E0,-1.052046243E1,-1.328071776E1,-5.840953285E0,1.792133726E1
9.076239542E0,-9.819853728E0,-1.337783300E1,-6.696975131E0,1.789540217E1
9.086224542E0,-9.091955486E0,-1.357280606E1,-7.322744150E0,1.790271770E1
9.096210542E0,-8.008003326E0,-1.371516588E1,-8.002663064E0,1.778416455E1
9.106195542E0,-6.837506527E0,-1.373120597E1,-8.610800974E0,1.759100356E1
9.116180542E0,-5.835074494E0,-1.355175726E1,-8.783378620E0,1.717107915E1
9.126166542E0,-4.741496063E0,-1.347809520E1,-9.009169437E0,1.689100261E1
9.136151542E0,-3.376036722E0,-1.337971580E1,-9.526506520E0,1.676808711E1
9.146136542E0,-2.342548665E0,-1.305022988E1,-9.946187500E0,1.657476033E1
9.156121375E0,-1.760785498E0,-1.301252235E1,-1.004037328E1,1.652982756E1
9.166107375E0,-1.280887260E0,-1.293338146E1,-1.064486545E1,1.679958894E1
9.176092375E0,-4.596130773E-1,-1.282564417E1,-1.148419584E1,1.722193794E1
9.186077375E0,1.251100959E-1,-1.262925842E1,-1.195767061E1,1.739251871E1
9.196063375E0,2.749088539E-1,-1.247410372E1,-1.212373973E1,1.739723838E1
9.206048375E0,4.082881187E-1,-1.251845485E1,-1.207224213E1,1.739590299E1
9.216033375E0,7.961825379E-1,-1.262938589E1,-1.190789795E1,1.737622882E1
9.226018375E0,1.794782525E0,-1.255571915E1,-1.170388508E1,1.725828073E1
9.236004375E0,2.588091668E0,-1.256203882E1,-1.134868661E1,1.712587883E1
9.245989375E0,2.798389703E0,-1.285315298E1,-1.096482860E1,1.712489395E1
9.255974375E0,2.971422555E0,-1.286062923E1,-1.057995200E1,1.691627975E1
9.265960375E0,3.317582692E0,-1.282613300E1,-1.036217596E1,1.681935591E1
9.275945375E0,3.744568014E0,-1.302068740E1,-1.030652099E1,1.702305687E1
9.285930375E0,4.304519019E0,-1.285130994E1,-9.845810688E0,1.675186674E1
9.295916375E0,4.779584826E0,-1.280458835E1,-9.055725553E0,1.639536761E1
9.305901375E0,5.457958320E0,-1.291860204E1,-8.683833867E0,1.649510710E1
9.315886375E0,7.021257033E0,-1.252951427E1,-7.708934618E0,1.630075002E1
9.325871375E0,9.157621472E0,-1.171457379E1,-5.563057344E0,1.587579532E1
9.335857375E0,1.150336301E1,-1.078229022E1,-3.634728652E0,1.618012346E1
9.345842375E0,1.384780295E1,-9.622365189E0,-1.684479918E0,1.694665250E1
9.355827375E0,1.651623127E1,-7.834241034E0,1.014197216E0,1.830819008E1
9.365813375E0,1.911514906E1,-6.282183008E0,3.785897303E0,2.047407545E1
9.375798375E0,2.039350477E1,-4.438288403E0,5.650991866E0,2.162237614E1
9.385783375E0,1.987836507E1,-3.377297382E0,7.102940882E0,2.137772917E1
9.395768375E0,1.942915273E1,-2.068641548E0,9.279072234E0,2.163035911E1
9.405754375E0,2.001547526E1,-1.304134912E0,1.139502814E1,2.306873824E1
9.415739375E0,1.938940453E1,-1.407694949E0,1.257280706E1,2.315180533E1
9.425724375E0,1.665393905E1,-1.848407486E0,1.315734619E1,2.130460173E1
9.435710375E0,1.360780867E1,-2.640687081E0,1.391251877E1,1.963934478E1
9.445695375E0,1.143130426E1,-2.108290056E0,1.425338922E1,1.839235462E1
9.455680375E0,9.768050905E0,-6.959755142E-1,1.518715097E1,1.807066006E1
9.465665375E0,7.573176888E0,1.729573865E-1,1.635332551E1,1.802260185E1
9.475651375E0,4.385751170E0,7.060382069E-1,1.698501892E1,1.755631428E1
9.485636375E0,8.321041033E-1,4.827985299E-1,1.722352568E1,1.725037184E1
9.495621375E0,-1.995392455E0,-2.103316926E-1,1.736048384E1,1.747604732E1
9.505607375E0,-4.703523075E0,-8.930411536E-1,1.697747719E1,1.763959703E1
9.515592375E0,-7.504406615E0,-1.023930637E0,1.682178454E1,1.844822452E1
9.525577375E0,-1.036115972E1,-1.202982759E0,1.624893400E1,1.930877143E1
9.535562375E0,-1.403028052E1,-1.511327929E0,1.409679728E1,1.994624218E1
9.545548375E0,-1.790707689E1,-2.199788017E0,1.113025101E1,2.119870179E1
9.555533375E0,-1.992798454E1,-2.675995200E0,8.219556173E0,2.172203080E1
9.565518375E0,-1.980816808E1,-2.925356144E0,6.065371760E0,2.092151920E1
9.575504375E0,-1.802936789E1,-2.549083139E0,5.008514428E0,1.888494502E1
9.585489375E0,-1.577206082E1,-1.961913052E0,4.519124697E0,1.652360412E1
9.595474375E0,-1.326023613E1,-1.381425602E0,3.616252620E0,1.381374251E1
9.605460375E0,-1.053429577E1,-8.273494399E-1,2.429163178E0,1.084235806E1
9.615445375E0,-7.532518274E0,-2.369842334E-1,1.158777809E0,7.624812069E0
9.625430375E0,-5.005379151E0,3.676587407E-1,4.689788550E-1,5.040727583E0
9.635415375E0,-2.883527794E0,9.649230221E-1,8.479339778E-2,3.041874241E0
9.645401375E0,-1.619318255E0,1.260177153E0,-5.126160407E-1,2.114949946E0
9.655386375E0,-1.241092865E0,1.221227169E0,-1.094318104E0,2.056511466E0
9.665371375E0,-1.351441226E0,9.410555649E-1,-1.768538906E0,2.416548950E0
9.675357375E0,-1.183011887E0,6.142061502E-1,-2.372627034E0,2.721419733E0
9.685342375E0,-9.812709600E-1,3.594305754E-1,-2.743246951E0,2.935555632E0
9.695327375E0,-4.340827451E-1,3.329517517E-1,-2.621472253E0,2.677947250E0
9.705312375E0,-1.134347411E-1,2.889498094E-1,-2.516131155E0,2.535207175E0
9.715298375E0,8.665759977E-2,9.472842017E-2,-2.786609902E0,2.789565873E0
9.725283375E0,2.181715297E-1,-1.604703834E-1,-3.078246215E0,3.090137427E0
9.735268375E0,2.348553170E-1,-3.652473490E-1,-3.349295651E0,3.377327938E0
9.745254375E0,2.885186503E-1,-5.691787159E-1,-3.678999676E0,3.733931713E0
9.755239375E0,6.580004798E-1,-7.123214786E-1,-4.068530073E0,4.182499668E0
9.765224375E0,1.162538154E0,-8.124490533E-1,-4.364349484E0,4.589021120E0
9.775209375E0,1.612592787E0,-8.690153830E-1,-4.219364848E0,4.599856841E0
9.785195375E0,2.162122885E0,-7.608733953E-1,-3.282265509E0,4.003369902E0
9.795180375E0,2.939249420E0,-4.898545112E-1,-2.235908607E0,3.725376746E0
9.805165375E0,3.948124208E0,-3.180923687E-1,-1.434192191E0,4.212573413E0
9.815151375E0,4.865343599E0,-1.114497393E-1,-8.811584419E-1,4.945748637E0
9.825136375E0,5.724465054E0,2.485124028E-1,-3.113741738E-1,5.738310940E0
9.835121375E0,6.664069925E0,6.698969324E-1,5.814588189E-1,6.722847925E0
9.845106375E0,7.617277758E0,9.305541117E-1,1.308869988E0,7.784728129E0
9.855092375E0,8.534695954E0,1.373859743E0,1.970711065E0,8.866353688E0
9.865077375E0,9.282692830E0,1.651785358E0,2.718365294E0,9.812557817E0
9.875062375E0,9.666861330E0,1.838278355E0,3.661566203E0,1.049926390E1
9.885048375E0,9.702955023E0,2.060612883E0,4.725611517E0,1.098748678E1
9.895033375E0,9.736001732E0,2.181022402E0,6.209425519E0,1.175174684E1
9.905018375E0,9.623878448E0,2.201732216E0,7.715886957E0,1.253002684E1
9.915003375E0,9.179443865E0,2.097214406E0,9.119807528E0,1.310844717E1
9.924989375E0,8.321443321E0,1.890578775E0,1.041558677E1,1.346496026E1
9.934974375E0,7.215757061E0,1.540819823E0,1.156325019E1,1.371677917E1
9.944959375E0,6.232609144E0,1.246068991E0,1.239000205E1,1.392516626E1
9.954945375E0,4.887974370E0,8.608270884E-1,1.266402830E1,1.360187228E1
9.964930375E0,3.380174212E0,4.409005255E-1,1.274867376E1,1.319653946E1
9.974915375E0,1.712571112E0,2.223422390E-1,1.302621185E1,1.314018764E1
9.984900375E0,-1.561568376E-1,-1.408867243E-1,1.347420681E1,1.347584814E1
9.994886375E0,-2.122412397E0,-6.376088999E-1,1.418146028E1,1.435357082E1
1.000487138E1,-3.752347149E0,-1.252690817E0,1.453574308E1,1.506443395E1
1.001485637E1,-4.973111876E0,-1.933518388E0,1.446694942E1,1.541956421E1
1.002484238E1,-5.930118645E0,-2.541691089E0,1.437582407E1,1.575724654E1
1.003482738E1,-7.113750045E0,-3.269891047E0,1.399924935E1,1.603984443E1
1.004481238E1,-8.475397586E0,-4.100188945E0,1.327654285E1,1.627607151E1
1.005479838E1,-9.992641289E0,-5.078457068E0,1.238279126E1,1.670260834E1
1.006478338E1,-1.124445181E1,-6.186530746E0,1.099840097E1,1.690194318E1
1.007476838E1,-1.282337311E1,-7.224056014E0,9.434686523E0,1.748253966E1
1.008475338E1,-1.435471796E1,-8.257526822E0,8.163664393E0,1.846320918E1
1.009473937E1,-1.565431894E1,-9.123698266E0,6.614656275E0,1.928868189E1
1.010472438E1,-1.612239791E1,-9.889761869E0,4.920305087E0,1.954350292E1
1.011470938E1,-1.600550622E1,-1.043296586E1,3.166725698E0,1.936623757E1
1.012469538E1,-1.600047879E1,-1.087115854E1,1.662689685E0,1.941550789E1
1.013468037E1,-1.585970473E1,-1.133249801E1,4.170918328E-1,1.949691542E1
1.014466538E1,-1.545595683E1,-1.172891584E1,-9.365719199E-1,1.942501571E1
1.015465050E1,-1.457770036E1,-1.197865510E1,-2.092590428E0,1.898358398E1
1.016463650E1,-1.316058204E1,-1.205966009E1,-3.084398071E0,1.811490636E1
1.017462150E1,-1.211722944E1,-1.206122714E1,-3.865850961E0,1.752841274E1
1.018460650E1,-1.113788046E1,-1.223983385E1,-4.475134925E0,1.714330034E1
1.019459250E1,-1.000238509E1,-1.240951303E1,-5.160478300E0,1.675333571E1
1.020457750E1,-8.746266342E0,-1.245499736E1,-5.971029274E0,1.634861843E1
1.021456250E1,-7.675943457E0,-1.275378891E1,-6.787636794E0,1.636005051E1
1.022454750E1,-6.765379953E0,-1.276473840E1,-7.514815829E0,1.628439036E1
1.023453350E1,-5.939736730E0,-1.289614990E1,-7.868050804E0,1.623260232E1
1.024451850E1,-5.061112472E0,-1.306297447E1,-8.289967175E0,1.627819760E1
1.025450350E1,-4.290848814E0,-1.305394871E1,-8.947431611E0,1.639736237E1
1.026448950E1,-3.671619028E0,-1.310351204E1,-9.398922029E0,1.653851715E1
1.027447450E1,-2.819158428E0,-1.297002128E1,-9.714434862E0,1.644808046E1
1.028445950E1,-2.062906453E0,-1.282325149E1,-9.930562570E0,1.634953928E1
1.029444450E1,-1.522627820E0,-1.271955814E1,-1.037183205E1,1.648273202E1
1.030443050E1,-9.610240987E-1,-1.263748194E1,-1.075818215E1,1.662431954E1
1.031441550E1,-6.038996651E-1,-1.256220956E1,-1.068494694E1,1.650278447E1
1.032440050E1,-5.775744405E-1,-1.252352322E1,-1.054970903E1,1.638501104E1
1.033438650E1,-4.009171917E-1,-1.248434453E1,-1.060608672E1,1.638623411E1
1.034437150E1,-1.133004013E-1,-1.241534037E1,-1.059631485E1,1.632284907E1
1.035435650E1,6.480010101E-1,-1.223159162E1,-1.051079347E1,1.614027628E1
1.036434250E1,1.777304759E0,-1.179709204E1,-1.025998885E1,1.573523321E1
1.037432750E1,2.880758845E0,-1.129783806E1,-9.943089645E0,1.532334650E1
1.038431250E1,3.668980764E0,-1.086645621E1,-9.736751345E0,1.504478704E1
1.039429750E1,4.441808719E0,-1.059088629E1,-9.608862798E0,1.497420387E1
1.040428350E1,5.232299066E0,-1.028084587E1,-9.484532867E0,1.493415913E1
1.041426850E1,6.118760932E0,-1.005289451E1,-9.007214128E0,1.481991328E1
1.042425350E1,7.071416788E0,-9.605923403E0,-8.018615438E0,1.437278308E1
1.043423950E1,8.116649855E0,-9.138230351E0,-7.063208467E0,1.411652127E1
1.044422450E1,9.324980478E0,-8.699679821E0,-6.004747244E0,1.409598097E1
1.045420950E1,1.060861154E1,-8.248599293E0,-5.031825523E0,1.434926121E1
1.046419450E1,1.163067327E1,-7.539648954E0,-3.796567302E0,1.437124874E1
1.047418050E1,1.274272948E1,-6.819661995E0,-1.948447791E0,1.458360014E1
1.048416550E1,1.451019542E1,-5.785228150E0,1.978060430E-1,1.562222018E1
1.049415050E1,1.605712427E1,-4.892975201E0,1.716634927E0,1.687362681E1
1.050413650E1,1.645966648E1,-4.159005210E0,2.458075320E0,1.715401059E1
1.051412150E1,1.615645677E1,-3.402196580E0,4.199763227E0,1.703655036E1
1.052410650E1,1.552954053E1,-2.755667022E0,6.389074203E0,1.701706787E1
1.053409150E1,1.549165291E1,-2.072057053E0,8.224636234E0,1.766152234E1
1.054407750E1,1.523773055E1,-1.869029593E0,9.662761847E0,1.813975387E1
1.055406250E1,1.464021177E1,-1.197285963E0,1.030216482E1,1.794168037E1
1.056404750E1,1.271918508E1,-5.171782576E-1,1.070704240E1,1.663387807E1
1.057403350E1,9.485931521E0,-2.329687129E-1,1.142478579E1,1.485136026E1
1.058401850E1,6.358393278E0,7.943442464E-2,1.166739144E1,1.328771982E1
1.059400350E1,3.667924757E0,9.494145982E-2,1.195238941E1,1.250289161E1
1.060398950E1,3.795406484E-1,-5.972514906E-1,1.288195169E1,1.290137356E1
1.061397450E1,-3.229096193E0,-9.361510666E-1,1.398388404E1,1.438236607E1
1.062395950E1,-6.968676531E0,-1.729577592E0,1.442792510E1,1.611579703E1
1.063394450E1,-9.909069375E0,-2.278672219E0,1.450436224E1,1.771323028E1
1.064393050E1,-1.205990567E1,-2.284369746E0,1.542253882E1,1.971076796E1
1.065391550E1,-1.404436997E1,-2.302233282E0,1.535149632E1,2.093353877E1
1.066390050E1,-1.488697597E1,-1.808306989E0,1.431681397E1,2.073314231E1
1.067388650E1,-1.478956837E1,-1.467423380E0,1.294122374E1,1.970684998E1
1.068387150E1,-1.383296974E1,-1.045544651E0,1.084496185E1,1.760844720E1
1.069385650E1,-1.230316972E1,-7.045242897E-1,8.680690404E0,1.507377609E1
1.070384150E1,-1.080058967E1,-5.303218848E-1,6.692673334E0,1.271714806E1
1.071382750E1,-9.132441022E0,-7.463488385E-2,5.185578643E0,1.050225096E1
1.072381250E1,-7.292819270E0,4.245461191E-1,3.920861565E0,8.290874967E0
1.073379750E1,-5.346330296E0,8.724275257E-1,2.605403520E0,6.011031935E0
1.074378350E1,-3.454316322E0,1.176524547E0,9.356796348E-1,3.767228111E0
1.075376850E1,-2.220198601E0,1.348018412E0,-2.408801419E-1,2.608535740E0
1.076375350E1,-1.512904193E0,1.177333144E0,-9.077071398E-1,2.121066873E0
1.077373850E1,-1.504521039E0,8.411478455E-1,-1.862617682E0,2.537805723E0
1.078372450E1,-1.491580274E0,5.822155217E-1,-3.044983159E0,3.440306537E0
1.079370950E1,-1.379563410E0,5.812690402E-1,-3.997176501E0,4.268312181E0
1.080369450E1,-1.098617269E0,5.128065503E-1,-3.891388090E0,4.075884166E0
1.081368050E1,-9.012113949E-1,5.482963353E-1,-3.021272115E0,3.200140004E0
1.082366550E1,-7.156221588E-1,4.968224920E-1,-1.711756010E0,1.920691620E0
1.083365050E1,-6.929769158E-2,5.194327978E-1,-2.648689288E-1,5.871696100E-1
1.084363550E1,3.890873243E-1,4.339233719E-1,3.350559819E-1,6.722655350E-1
1.085362150E1,5.279372806E-1,2.730514127E-1,2.191290843E-1,6.334764414E-1
1.086360650E1,4.042218918E-1,1.640085336E-1,1.550722522E-1,4.629703450E-1
1.087359150E1,2.716557920E-1,-4.671283026E-2,-1.537776786E-1,3.156367093E-1
1.088357750E1,3.720721095E-1,-2.215459761E-1,-1.323893239E0,1.392915497E0
1.089356250E1,2.813610005E-1,-3.286434866E-1,-2.111413785E0,2.155281588E0
1.090354750E1,3.289319737E-1,-2.161520476E-1,-2.107372189E0,2.143813307E0
1.091353250E1,5.216118724E-1,-5.648593046E-3,-1.725850139E0,1.802961329E0
1.092351850E1,8.582781409E-1,1.652620487E-2,-1.425489780E0,1.664011898E0
1.093350350E1,1.603613511E0,1.955521972E-1,-1.323314365E0,2.088295444E0
1.094348850E1,2.460758315E0,2.398218324E-1,-1.132458907E0,2.719431774E0
1.095347450E1,3.633791928E0,4.751012553E-1,-8.215028089E-1,3.755666631E0
1.096345950E1,5.146509887E0,8.869280358E-1,1.371674931E-1,5.224176517E0
1.097344450E1,6.548435388E0,1.291433591E0,1.361269226E0,6.811964523E0
1.098343050E1,7.827626663E0,1.760779212E0,2.253376579E0,8.333653978E0
1.099341550E1,9.180346676E0,2.092905739E0,2.792108624E0,9.821145050E0
1.100340050E1,9.905997248E0,2.212963110E0,3.344227284E0,1.068690055E1
1.101338550E1,9.958339183E0,2.674518486E0,4.141125010E0,1.111172735E1
1.102337150E1,9.442175052E0,2.683367077E0,5.335550954E0,1.117243181E1
1.103335650E1,8.652678148E0,2.664063957E0,6.731252094E0,1.128165904E1
1.104334150E1,7.576510386E0,2.551925470E0,8.134256406E0,1.140534789E1
1.105332750E1,6.124108211E0,2.316570655E0,9.752082744E0,1.174624701E1
1.106331250E1,4.390039518E0,1.839774072E0,1.183205605E1,1.275361776E1
1.107329750E1,2.853549704E0,1.332707624E0,1.356025911E1,1.392118826E1
1.108328250E1,1.440577936E0,9.432913209E-1,1.475550015E1,1.485563355E1
1.109326850E1,2.963745307E-1,6.462398288E-1,1.560139112E1,1.561758203E1
1.110325350E1,-8.403654150E-1,3.146865849E-1,1.612905204E1,1.615399522E1
1.111323850E1,-2.461345960E0,-1.366227793E-1,1.659601887E1,1.677810275E1
1.112322450E1,-3.917840017E0,-7.719923144E-1,1.652739712E1,1.700294968E1
1.113320950E1,-5.249022687E0,-1.465354781E0,1.588668144E1,1.679542054E1
1.114319450E1,-6.238140026E0,-2.073426179E0,1.539386992E1,1.673871914E1
1.115317950E1,-7.276739427E0,-2.809911641E0,1.478770428E1,1.671893352E1
1.116316613E1,-8.457467099E0,-3.670014260E0,1.386722039E1,1.665225377E1
1.117315113E1,-9.266283789E0,-4.587202075E0,1.269904610E1,1.637596440E1
1.118313613E1,-1.010870852E1,-5.666520901E0,1.106840267E1,1.602513603E1
1.119312212E1,-1.144146088E1,-6.818462731E0,9.656437499E0,1.645129922E1
1.120310713E1,-1.310541941E1,-7.838280290E0,8.236397908E0,1.735018462E1
1.121309213E1,-1.434024142E1,-8.886528182E0,6.632936425E0,1.812756886E1
1.122307713E1,-1.506208370E1,-9.820823196E0,4.780418054E0,1.860557257E1
1.123306312E1,-1.553599469E1,-1.034672762E1,2.776765530E0,1.887146868E1
1.124304813E1,-1.546155495E1,-1.089458600E1,1.221931831E0,1.895375433E1
1.125303313E1,-1.501082467E1,-1.130777832E1,-1.300578636E-1,1.879381874E1
1.126301913E1,-1.452841418E1,-1.157842021E1,-9.714224946E-1,1.860317969E1
1.127300412E1,-1.377821992E1,-1.184628934E1,-1.412687302E0,1.822552059E1
1.128298913E1,-1.281896431E1,-1.218092900E1,-2.406451423E0,1.784634096E1
1.129297413E1,-1.224500864E1,-1.244470860E1,-3.242230793E0,1.775733846E1
1.130296013E1,-1.179492389E1,-1.281218739E1,-3.948765063E0,1.785679481E1
1.131294513E1,-1.084089102E1,-1.321490852E1,-5.167756914E0,1.785677565E1
1.132293012E1,-9.657619221E0,-1.347491081E1,-6.555698799E0,1.782750732E1
1.133291613E1,-8.546371674E0,-1.358870581E1,-7.413207593E0,1.768188455E1
1.134290113E1,-7.386273564E0,-1.366030731E1,-7.954128835E0,1.744789954E1
1.135288613E1,-6.172087539E0,-1.369252897E1,-8.432322902E0,1.722451984E1
1.136287212E1,-5.114605724E0,-1.357949294E1,-8.938490049E0,1.704284086E1
1.137285713E1,-4.271997683E0,-1.344576361E1,-9.097153076E0,1.678680188E1
1.138284213E1,-3.249616996E0,-1.330013286E1,-9.176707953E0,1.648227877E1
1.139282713E1,-2.284211140E0,-1.318169867E1,-9.523599284E0,1.642174606E1
1.140281312E1,-1.656341216E0,-1.300338432E1,-1.000850245E1,1.649247075E1
1.141279813E1,-1.217560453E0,-1.302540494E1,-1.049270453E1,1.677022586E1
1.142278313E1,-6.817425142E-1,-1.296752218E1,-1.099908393E1,1.701767468E1
1.143276913E1,-3.401766810E-1,-1.273187354E1,-1.131912660E1,1.703933540E1
1.144275412E1,-1.277558879E-1,-1.262449761E1,-1.135935076E1,1.698320086E1
1.145273913E1,5.981672376E-2,-1.251688429E1,-1.124005821E1,1.682304606E1
1.146272413E1,4.130389814E-1,-1.228712847E1,-1.096463798E1,1.647323324E1
1.147271013E1,7.811745626E-1,-1.213567974E1,-1.066449572E1,1.617456106E1
1.148269513E1,1.141977881E0,-1.180823449E1,-1.025111863E1,1.567877382E1
1.149268012E1,1.544264418E0,-1.166649097E1,-9.940280643E0,1.540457540E1
1.150266613E1,2.130385807E0,-1.158292256E1,-9.589631306E0,1.518761559E1
1.151265113E1,2.509595430E0,-1.147707627E1,-9.098920105E0,1.485973405E1
1.152263613E1,3.395056545E0,-1.120710096E1,-8.460343929E0,1.444655462E1
1.153262112E1,4.777402645E0,-1.088456738E1,-7.572056562E0,1.409373704E1
1.154260713E1,6.239034065E0,-1.029747535E1,-6.622117322E0,1.374103280E1
1.155259213E1,7.236163259E0,-9.746862350E0,-5.935241391E0,1.351260429E1
1.156257713E1,7.630324650E0,-9.316338294E0,-5.278552296E0,1.314835076E1
1.157256312E1,8.331391189E0,-8.753577701E0,-4.529187756E0,1.290545402E1
1.158254813E1,9.957273821E0,-7.867409949E0,-3.230242832E0,1.309495743E1
1.159253313E1,1.231930804E1,-6.935554978E0,-1.280644893E0,1.419532757E1
1.160251813E1,1.451153093E1,-5.934102938E0,5.899916607E-1,1.568904706E1
1.161250412E1,1.645803511E1,-5.112848636E0,2.281136820E0,1.738423786E1
1.162248913E1,1.785308954E1,-4.599313413E0,3.519020441E0,1.876885705E1
1.163247413E1,1.840834699E1,-3.832393193E0,4.554477548E0,1.934677602E1
1.164246013E1,1.869131948E1,-3.085710770E0,5.799983014E0,1.981229007E1
1.165244513E1,1.826460255E1,-2.634439623E0,6.936984622E0,1.971440423E1
1.166243012E1,1.727712243E1,-2.119204030E0,8.356015568E0,1.930836558E1
1.167241513E1,1.500135686E1,-2.023269640E0,9.293708984E0,1.776252669E1
1.168240113E1,1.179409008E1,-1.872959068E0,9.613521275E0,1.533063364E1
1.169238613E1,8.073787426E0,-2.019023830E0,9.845163985E0,1.289146053E1
1.170237112E1,4.707626359E0,-1.644488179E0,9.781999438E0,1.097969036E1
1.171235713E1,2.151962325E0,-1.239036984E0,1.088671097E1,1.116631677E1
1.172234213E1,-2.296012649E-1,-8.200495566E-1,1.287678743E1,1.290491582E1
1.173232713E1,-2.429423671E0,-4.590811634E-1,1.455999499E1,1.476842270E1
1.174231312E1,-4.254393178E0,-2.857568642E-1,1.556938346E1,1.614271413E1
1.175229813E1,-6.879388964E0,-4.537459812E-1,1.535451699E1,1.683131219E1
1.176228313E1,-1.003831857E1,-8.969836387E-1,1.525454364E1,1.828314855E1
1.177226813E1,-1.177659053E1,-8.312966759E-1,1.498691307E1,1.907843552E1
1.178225412E1,-1.209144672E1,-5.746841618E-1,1.369721025E1,1.827968584E1
1.179223913E1,-1.204664536E1,-2.478589399E-1,1.210974734E1,1.708300556E1
1.180222413E1,-1.217056774E1,-2.176697655E-1,1.074328578E1,1.623540232E1
1.181221013E1,-1.253546323E1,-2.596230993E-1,9.147383582E0,1.552030505E1
1.182219512E1,-1.265058087E1,-1.537882767E-1,7.780254276E0,1.485238041E1
1.183218012E1,-1.210392585E1,-3.297573812E-1,6.757645256E0,1.386648947E1
1.184216513E1,-1.070510697E1,-3.203574704E-1,5.391142187E0,1.199026098E1
1.185215113E1,-8.711517509E0,-1.703090729E-1,3.806984702E0,9.508557988E0
1.186213613E1,-7.175897176E0,-9.935435347E-2,2.163056978E0,7.495477774E0
1.187212112E1,-5.776950247E0,1.592032369E-1,7.721002686E-1,5.830492145E0
1.188210713E1,-4.811591022E0,3.947232362E-1,-6.798557639E-2,4.828233283E0
1.189209213E1,-4.150028857E0,3.559984791E-1,-7.991874951E-1,4.241246879E0
1.190207713E1,-3.886143430E0,1.694633462E-1,-1.419062521E0,4.140599839E0
1.191206212E1,-3.755933539E0,-6.436819643E-2,-1.463303139E0,4.031431023E0
1.192204813E1,-3.573365340E0,-3.788512251E-1,-1.659507045E0,3.958084352E0
1.193203313E1,-3.072284686E0,-5.157508427E-1,-2.083762887E0,3.747932749E0
1.194201813E1,-2.671504246E0,-6.368314395E-1,-2.221661866E0,3.532459578E0
1.195200412E1,-2.082540818E0,-5.256455375E-1,-2.192609391E0,3.069334689E0
1.196198913E1,-1.225265037E0,-2.977123371E-1,-2.019349374E0,2.380688753E0
1.197197413E1,-7.000064385E-1,-2.224457712E-1,-1.742917576E0,1.891362687E0
1.198196013E1,-4.110691275E-2,-6.030123867E-2,-1.703557044E0,1.705119533E0
1.199194512E1,5.270718927E-1,3.922641166E-2,-1.867080862E0,1.940446968E0
1.200193012E1,7.024552524E-1,3.094397686E-2,-1.789090700E0,1.922302381E0
1.201191513E1,6.368239843E-1,7.228945602E-2,-1.451616894E0,1.586808797E0
1.202190113E1,1.088680072E0,1.364620996E-1,-1.139634025E0,1.581964575E0
1.203188613E1,1.560040352E0,9.821275771E-2,-1.059531848E0,1.888380095E0
1.204187112E1,1.835247158E0,6.208829395E-2,-8.493513429E-1,2.023211504E0
1.205185713E1,2.294752939E0,1.257167445E-1,-5.550083542E-1,2.364260989E0
1.206184213E1,2.868581726E0,1.597633271E-1,-3.215933526E-1,2.890970032E0
1.207182713E1,3.449074293E0,2.555418158E-1,3.005889845E-1,3.471565761E0
1.208181212E1,3.977105640E0,3.169122544E-1,1.003595629E0,4.114001317E0
1.209179813E1,5.106230173E0,5.621602298E-1,1.658219488E0,5.398083231E0
1.210178313E1,6.508679000E0,8.890805420E-1,2.302956875E0,6.961104575E0
1.211176813E1,7.609325545E0,1.254872705E0,3.270950562E0,8.377091281E0
1.212175412E1,8.624143735E0,1.637759496E0,4.449557449E0,9.841578777E0
1.213173913E1,9.528254253E0,1.942191124E0,5.553624616E0,1.119832496E1
1.214172413E1,9.977339126E0,2.025210916E0,6.543720778E0,1.210244012E1
1.215170913E1,9.578399389E0,1.987912550E0,7.176743853E0,1.213273191E1
1.216169450E1,8.814643098E0,2.022622353E0,7.971610256E0,1.205551758E1
1.217167950E1,8.038623440E0,2.034479629E0,8.896002426E0,1.216130887E1
1.218166450E1,7.028105292E0,1.967515562E0,9.745538540E0,1.217542208E1
1.219165050E1,5.761541664E0,1.809576566E0,1.046323456E1,1.208094397E1
1.220163550E1,4.074405940E0,1.446704794E0,1.108323238E1,1.189671293E1
1.221162050E1,1.967889199E0,9.214856650E-1,1.168973950E1,1.188998458E1
1.222160550E1,-3.631813084E-1,4.430802944E-1,1.206963895E1,1.208322826E1
1.223159150E1,-2.393349128E0,7.290578909E-2,1.240585969E1,1.263482450E1
1.224157650E1,-3.857709005E0,-2.958824144E-1,1.234116376E1,1.293343683E1
1.225156150E1,-5.370662314E0,-8.845200793E-1,1.211896021E1,1.328516413E1
1.226154750E1,-6.680314659E0,-1.379469854E0,1.206648028E1,1.386107815E1
1.227153250E1,-8.073619026E0,-1.963780799E0,1.215623972E1,1.472460265E1
1.228151750E1,-9.354084409E0,-2.631988471E0,1.213160774E1,1.554355702E1
1.229150350E1,-1.060693924E1,-3.534035213E0,1.153824048E1,1.606634863E1
1.230148850E1,-1.192897131E1,-4.466250373E0,1.019617117E1,1.631593257E1
1.231147350E1,-1.283429571E1,-5.199010867E0,8.994717459E0,1.651223191E1
1.232145850E1,-1.324348503E1,-5.852631344E0,7.683975778E0,1.639166475E1
1.233144450E1,-1.319235698E1,-6.433102568E0,6.351801712E0,1.599276325E1
1.234142950E1,-1.312482281E1,-7.049538846E0,4.972710757E0,1.570620336E1
1.235141450E1,-1.316637429E1,-7.715978758E0,3.674397917E0,1.569684491E1
1.236140050E1,-1.314322282E1,-8.359126872E0,2.418855121E0,1.576293654E1
1.237138550E1,-1.295208787E1,-8.944847726E0,1.152845809E0,1.578277335E1
1.238137050E1,-1.260375286E1,-9.522996436E0,6.465266347E-2,1.579703223E1
1.239135550E1,-1.211102437E1,-1.010363080E1,-1.026446548E0,1.580550091E1
1.240134150E1,-1.154929172E1,-1.051050579E1,-2.282700366E0,1.578187543E1
1.241132650E1,-1.131751978E1,-1.102361300E1,-3.161600028E0,1.611216970E1
1.242131150E1,-1.112393134E1,-1.164769334E1,-4.152852185E0,1.663300303E1
1.243129750E1,-1.079037224E1,-1.218750244E1,-5.314816142E0,1.712351073E1
1.244128250E1,-9.863244746E0,-1.246143163E1,-6.272135153E0,1.708539009E1
1.245126750E1,-8.946101954E0,-1.265869330E1,-6.803452928E0,1.692814898E1
1.246125250E1,-8.054210948E0,-1.296643928E1,-7.010944299E0,1.679738674E1
1.247123850E1,-6.831528334E0,-1.300118460E1,-7.615479739E0,1.654376354E1
1.248122350E1,-5.610333252E0,-1.298326990E1,-8.376224715E0,1.643783067E1
1.249120850E1,-4.548360191E0,-1.287024556E1,-8.951048114E0,1.632335945E1
1.250119450E1,-3.734057351E0,-1.277928394E1,-9.506973896E0,1.635957930E1
1.251117950E1,-2.907296433E0,-1.268729086E1,-1.001889061E1,1.642552559E1
1.252116450E1,-2.269311996E0,-1.253578600E1,-1.021366136E1,1.632833690E1
1.253114950E1,-1.784417897E0,-1.247116374E1,-1.010077970E1,1.614744013E1
1.254113550E1,-1.049276271E0,-1.239744204E1,-1.012176652E1,1.603894346E1
1.255112050E1,-8.424449041E-3,-1.219410863E1,-1.005319505E1,1.580389468E1
1.256110550E1,7.721286276E-1,-1.202101116E1,-9.995048003E0,1.565253579E1
1.257109150E1,1.334705764E0,-1.162685153E1,-9.762452196E0,1.524042613E1
1.258107650E1,1.918637370E0,-1.119323371E1,-9.171130879E0,1.459723576E1
1.259106150E1,2.718322025E0,-1.082864812E1,-8.811728845E0,1.422306085E1
1.260104750E1,3.502198878E0,-1.043237763E1,-9.034199613E0,1.423786019E1
1.261103250E1,4.036693738E0,-1.006674890E1,-9.072344509E0,1.414007654E1
1.262101750E1,4.697521493E0,-9.597867694E0,-8.547662739E0,1.368387046E1
1.263100250E1,5.778068234E0,-8.858836938E0,-7.948350032E0,1.323031869E1
1.264098850E1,6.828318797E0,-8.153669162E0,-7.376084206E0,1.294275383E1
1.265097350E1,7.640587099E0,-7.644626940E0,-6.940222811E0,1.284467146E1
1.266095850E1,8.320139977E0,-7.040573895E0,-6.545945644E0,1.271392207E1
1.267094450E1,8.728994252E0,-6.728879879E0,-6.155257498E0,1.262380133E1
1.268092950E1,9.381571001E0,-6.333882335E0,-5.628475993E0,1.264166452E1
1.269091450E1,9.982496370E0,-5.908951140E0,-4.658489574E0,1.250069848E1
1.270089950E1,1.061614627E1,-5.311286763E0,-3.093876992E0,1.226720846E1
1.271088550E1,1.098785026E1,-4.989105765E0,-1.562860172E0,1.216826041E1
1.272087050E1,1.108323121E1,-4.766626811E0,-2.016219360E-1,1.206645750E1
1.273085550E1,1.144612228E1,-4.153539818E0,1.279676594E0,1.224349543E1
1.274084150E1,1.169163634E1,-3.144070368E0,3.224756389E0,1.252910980E1
1.275082650E1,1.227269521E1,-2.352438791E0,4.691277836E0,1.334770031E1
1.276081150E1,1.228708988E1,-1.640399221E0,5.489654907E0,1.355727843E1
1.277079650E1,1.132436453E1,-1.326590267E0,6.355082000E0,1.305328085E1
1.278078250E1,1.036577083E1,-1.265377667E0,6.956846445E0,1.254783240E1
1.279076750E1,9.329778119E0,-1.347764204E0,7.685366830E0,1.216248706E1
1.280075250E1,7.891698114E0,-1.600510978E0,8.963362935E0,1.204916634E1
1.281073850E1,6.352770596E0,-8.849810591E-1,9.613291479E0,1.155665431E1
1.282072350E1,5.272676429E0,-1.314624013E-1,9.746003979E0,1.108165117E1
1.283070850E1,4.671998981E0,1.570130527E-1,9.537271244E0,1.062128855E1
1.284069350E1,3.977377244E0,9.848999613E-1,1.032892168E1,1.111198365E1
1.285067950E1,2.637865507E0,7.458548950E-1,1.194427581E1,1.225480961E1
1.286066450E1,1.003250424E0,3.785496915E-1,1.336661687E1,1.340955845E1
1.287064950E1,-6.244186047E-1,1.520482184E-1,1.381367042E1,1.382861192E1
1.288063550E1,-2.390119272E0,2.915265311E-1,1.294910579E1,1.317106672E1
1.289062050E1,-4.160560570E0,5.126235325E-1,1.192018996E1,1.263582114E1
1.290060550E1,-5.998035225E0,5.709470601E-1,1.064293119E1,1.223006098E1
1.291059150E1,-8.704262869E0,3.555889182E-2,9.332997011E0,1.276206448E1
1.292057650E1,-1.199098103E1,-1.049890740E0,8.392356014E0,1.467370220E1
1.293056150E1,-1.444224844E1,-1.620126486E0,8.557753864E0,1.686530465E1
1.294054650E1,-1.509203548E1,-1.866745816E0,9.259287010E0,1.780417566E1
1.295053250E1,-1.370425849E1,-1.492278139E0,9.506348244E0,1.674527550E1
1.296051750E1,-1.174483781E1,-9.178634611E-1,9.497853994E0,1.513251199E1
1.297050250E1,-1.045537590E1,-4.419861341E-1,8.699709057E0,1.360864338E1
1.298048850E1,-9.344836453E0,-2.659312217E-1,6.991887054E0,1.167403839E1
1.299047350E1,-7.708266281E0,-1.583853942E-1,4.618870595E0,8.987570337E0
1.300045850E1,-5.949774646E0,8.231067002E-2,2.461076111E0,6.439214937E0
1.301044350E1,-4.666216962E0,4.136662415E-1,1.482394883E0,4.913470778E0
1.302042950E1,-3.759751478E0,7.381658064E-1,9.678972083E-1,3.951891312E0
1.303041450E1,-2.987868726E0,8.451970424E-1,8.864612818E-2,3.106376619E0
1.304039950E1,-2.318986140E0,1.000864395E0,-7.011273497E-1,2.621260348E0
1.305038550E1,-1.623926884E0,1.003493303E0,-1.275112842E0,2.295658967E0
1.306037050E1,-1.331308970E0,1.087035324E0,-1.605927839E0,2.352240122E0
1.307035550E1,-1.391639226E0,9.945287175E-1,-1.579263366E0,2.328050662E0
1.308034050E1,-1.124921700E0,8.909741628E-1,-1.564099197E0,2.122661086E0
1.309032650E1,-1.051030582E0,5.958028794E-1,-1.516885269E0,1.939223369E0
1.310031150E1,-1.145998427E0,4.177131360E-1,-1.434013851E0,1.882602556E0
1.311029650E1,-1.254734273E0,1.835314547E-1,-1.503317390E0,1.966724451E0
1.312028250E1,-1.018512023E0,8.363380356E-2,-1.659752628E0,1.949138307E0
1.313026750E1,-8.547652799E-1,-1.822777889E-2,-1.699436511E0,1.902377563E0
1.314025250E1,-8.407167596E-1,-7.449227117E-3,-1.444823014E0,1.671638030E0
1.315023850E1,-6.491295227E-1,-1.811150266E-2,-1.373241985E0,1.519042696E0
1.316022388E1,-1.373220789E-1,-1.385516935E-1,-1.928602341E0,1.938442910E0
1.317020888E1,3.394886830E-1,-1.517846095E-1,-2.407014509E0,2.435571798E0
1.318019388E1,6.865577694E-1,-1.332931920E-1,-2.435766438E0,2.534183653E0
1.319017988E1,8.758870308E-1,-9.586456158E-2,-2.376611912E0,2.534689781E0
1.320016488E1,1.174181860E0,-1.264096487E-1,-2.645718902E0,2.897328243E0
1.321014988E1,1.647520838E0,-5.886536350E-2,-2.906896484E0,3.341831416E0
1.322013587E1,2.255325164E0,-1.152864447E-2,-2.815281724E0,3.607275383E0
1.323012087E1,3.158770268E0,1.174510748E-1,-2.734524660E0,4.179623126E0
1.324010588E1,3.592093679E0,2.945026908E-1,-2.165905157E0,4.204879782E0
1.325009088E1,3.827941707E0,4.172140396E-1,-1.275233880E0,4.056282376E0
1.326007688E1,4.293192378E0,5.529678952E-1,-5.545703977E-1,4.364037421E0
1.327006187E1,4.687102339E0,7.665304302E-1,3.419533575E-1,4.761662455E0
1.328004688E1,5.137456058E0,8.734310541E-1,1.075987083E0,5.321098078E0
1.329003288E1,5.647255495E0,1.038079584E0,1.466260076E0,5.926130480E0
1.330001788E1,5.739944973E0,1.177015640E0,2.167532437E0,6.247441955E0
1.331000287E1,5.770837567E0,1.280263801E0,3.099515462E0,6.674476588E0
1.331998788E1,5.930117476E0,1.432178118E0,3.893919350E0,7.237405291E0
1.332997388E1,6.001678040E0,1.378479336E0,4.671946356E0,7.729646003E0
1.333995888E1,6.097084719E0,1.279922908E0,5.272034989E0,8.161311025E0
1.334994388E1,6.007808846E0,1.338812994E0,5.921054292E0,8.540788681E0
1.335992988E1,5.751794940E0,1.235200479E0,6.684056877E0,8.904239530E0
1.336991488E1,5.336902830E0,1.050653875E0,7.254672620E0,9.067341408E0
1.337989988E1,5.082475859E0,1.005395622E0,7.693804362E0,9.275613553E0
1.338988587E1,4.217411586E0,8.882951148E-1,8.339662660E0,9.387523741E0
1.339987088E1,3.187903728E0,7.473848189E-1,9.298056389E0,9.857746541E0
1.340985588E1,2.281628864E0,7.048520992E-1,9.966338174E0,1.024844102E1
1.341984088E1,1.413919456E0,6.415312853E-1,1.038652611E1,1.050193578E1
1.342982688E1,3.644461343E-1,3.487554965E-1,1.090139683E1,1.091306118E1
1.343981187E1,-7.606938127E-1,1.739784200E-1,1.149320172E1,1.151966186E1
1.344979688E1,-2.285183240E0,-1.468020234E-1,1.216978421E1,1.238334611E1
1.345978288E1,-4.085407769E0,-6.334433435E-1,1.259847984E1,1.325946837E1
1.346976788E1,-5.559332083E0,-1.110466871E0,1.270824728E1,1.391541803E1
1.347975287E1,-6.859877974E0,-1.625985396E0,1.279644318E1,1.460995251E1
1.348973788E1,-7.723364961E0,-2.139322837E0,1.282811053E1,1.512572273E1
1.349972388E1,-8.667538846E0,-2.836512380E0,1.258782972E1,1.554430729E1
1.350970888E1,-9.825331399E0,-3.767595226E0,1.201940318E1,1.597491670E1
1.351969387E1,-1.065042264E1,-4.564036576E0,1.088169873E1,1.589570067E1
1.352967988E1,-1.123916125E1,-5.433150923E0,9.576045300E0,1.573335686E1
1.353966488E1,-1.170898502E1,-6.310589951E0,7.909233913E0,1.547513673E1
1.354964988E1,-1.250132251E1,-7.175394316E0,6.184101813E0,1.568478445E1
1.355963488E1,-1.305873290E1,-8.057701735E0,4.695412402E0,1.604692992E1
1.356962088E1,-1.328945818E1,-8.819884542E0,3.260118011E0,1.627969384E1
1.357960588E1,-1.354790394E1,-9.560519773E0,1.964819410E0,1.669759728E1
1.358959088E1,-1.332373924E1,-1.016977567E1,5.971042138E-1,1.677208687E1
1.359957688E1,-1.274237046E1,-1.064180619E1,-7.971146572E-1,1.662081333E1
1.360956187E1,-1.185342178E1,-1.100586553E1,-2.199772815E0,1.632396043E1
1.361954688E1,-1.112463183E1,-1.125674382E1,-3.357258974E0,1.617847035E1
1.362953288E1,-1.042928446E1,-1.152312426E1,-4.457586846E0,1.616856356E1
1.363951788E1,-9.740343289E0,-1.181033247E1,-5.626273931E0,1.630991106E1
1.364950287E1,-9.177723615E0,-1.208244318E1,-6.410178559E0,1.647138225E1
1.365948788E1,-8.669208226E0,-1.230870704E1,-7.078188449E0,1.663611108E1
1.366947388E1,-7.925580389E0,-1.248879777E1,-7.770792897E0,1.670838462E1
1.367945888E1,-7.105060498E0,-1.247830436E1,-8.367513533E0,1.661942379E1
1.368944387E1,-6.326700200E0,-1.250477821E1,-8.693879383E0,1.649182077E1
1.369942988E1,-5.413445807E0,-1.244028576E1,-8.960498384E0,1.625904784E1
1.370941488E1,-4.602169778E0,-1.242968242E1,-9.200813100E0,1.613480503E1
1.371939988E1,-3.659642761E0,-1.230940403E1,-9.660496051E0,1.606983499E1
1.372938488E1,-2.946145334E0,-1.208789863E1,-1.016397640E1,1.606559933E1
1.373937088E1,-2.401005911E0,-1.200564117E1,-1.012458488E1,1.588733673E1
1.374935588E1,-1.903317519E0,-1.199592778E1,-1.005396455E1,1.576727954E1
1.375934088E1,-1.591700101E0,-1.195715138E1,-1.033722472E1,1.588600621E1
1.376932688E1,-1.050282503E0,-1.193196158E1,-1.051666057E1,1.593972867E1
1.377931187E1,-2.167597926E-1,-1.180920981E1,-1.068743435E1,1.592876876E1
1.378929688E1,7.411098795E-1,-1.166605360E1,-1.072073074E1,1.586127731E1
1.379928188E1,1.674704836E0,-1.132470484E1,-1.047753100E1,1.551877031E1
1.380926788E1,2.530592489E0,-1.103409355E1,-9.972400568E0,1.508654672E1
1.381925287E1,3.426965970E0,-1.090215931E1,-9.686902662E0,1.498123014E1
1.382923788E1,5.071175530E0,-1.009938572E1,-9.469888515E0,1.474425996E1
1.383922388E1,6.576418408E0,-9.182899570E0,-8.509928318E0,1.414191654E1
1.384920888E1,7.443956931E0,-8.456871268E0,-7.196062469E0,1.336841357E1
1.385919387E1,8.369555966E0,-7.657424156E0,-5.956264470E0,1.281259920E1
1.386917888E1,9.167837727E0,-7.234821323E0,-5.548724649E0,1.292981954E1
1.387916488E1,9.731760162E0,-6.861201199E0,-5.446093735E0,1.309363107E1
1.388914988E1,1.019553967E1,-6.490532166E0,-4.672721112E0,1.295802298E1
1.389913488E1,1.058921867E1,-5.905929884E0,-3.235850896E0,1.254919483E1
1.390912088E1,1.086446231E1,-5.301553488E0,-1.407937608E0,1.217067373E1
1.391910588E1,1.098537572E1,-4.699775594E0,-1.493829113E-1,1.194942197E1
1.392909088E1,1.134890764E1,-3.952996401E0,1.575561494E-1,1.201868167E1
1.393907687E1,1.184319266E1,-3.148833510E0,7.098151428E-1,1.227518645E1
1.394906187E1,1.210787155E1,-2.407382299E0,1.291824769E0,1.241228642E1
1.395904688E1,1.222799441E1,-1.579873669E0,2.193629145E0,1.252325265E1
1.396903188E1,1.250692063E1,-7.736825252E-1,3.654046099E0,1.305272773E1
1.397901788E1,1.281737621E1,-2.833176251E-1,5.102391475E0,1.379854342E1
1.398900287E1,1.216996898E1,-2.216485765E-1,6.445182331E0,1.377307694E1
1.399898788E1,1.031835693E1,5.809676528E-2,7.793088330E0,1.293074208E1
1.400897388E1,8.146399319E0,1.916492904E-1,8.740533147E0,1.194978958E1
1.401895888E1,6.429755037E0,-7.153074324E-2,8.499057174E0,1.065743118E1
1.402894387E1,5.005332373E0,-4.658487674E-1,8.280914515E0,9.687306770E0
1.403892888E1,3.093296363E0,-4.459460878E-1,9.115972340E0,9.636820119E0
1.404891488E1,5.178373119E-1,-2.805717726E-1,1.046570209E1,1.048226102E1
1.405889988E1,-2.786586221E0,-1.488523313E-1,1.209878498E1,1.241643337E1
1.406888488E1,-5.571929909E0,7.117081057E-2,1.368344591E1,1.477457817E1
1.407887088E1,-7.523745697E0,-1.168717345E-1,1.482603863E1,1.662623919E1
1.408885588E1,-8.276326790E0,1.380670872E-1,1.543597338E1,1.751530536E1
1.409884088E1,-8.852217890E0,3.565382867E-1,1.563995467E1,1.797490092E1
1.410882588E1,-9.642789513E0,7.865265191E-2,1.475847171E1,1.762957921E1
1.411881187E1,-9.468434313E0,2.442274535E-1,1.281785451E1,1.593763752E1
1.412879688E1,-8.871754607E0,3.106187135E-3,1.051670852E1,1.375896789E1
1.413878188E1,-8.486234815E0,-3.166382027E-1,8.217511402E0,1.181710348E1
1.414876788E1,-8.243758383E0,-2.429955183E-1,7.035232463E0,1.084034570E1
1.415875329E1,-7.824304860E0,-2.044258951E-1,5.853989067E0,9.773982018E0
1.416873829E1,-7.176891203E0,-1.680189012E-1,4.031256412E0,8.233287676E0
1.417872429E1,-6.495173686E0,-1.577831310E-1,2.696627685E0,7.034484885E0
1.418870929E1,-5.852241919E0,-4.786709804E-2,1.596738355E0,6.066349818E0
1.419869429E1,-5.273619584E0,-6.291092411E-3,2.461017054E-1,5.279362570E0
1.420867929E1,-4.554408258E0,5.182449359E-2,-1.256053258E0,4.724721172E0
1.421866529E1,-4.111826951E0,2.465591770E-1,-1.799104056E0,4.494962481E0
1.422865029E1,-3.669947017E0,3.165695710E-1,-1.410424429E0,3.944366168E0
1.423863529E1,-3.289292693E0,4.294398731E-1,-9.444177139E-1,3.449027377E0
1.424862129E1,-2.762765542E0,4.555295281E-1,-6.193417597E-1,2.867745596E0
1.425860629E1,-2.518306027E0,5.303434099E-1,-2.052840471E-1,2.581718598E0
1.426859129E1,-2.365238785E0,4.410134863E-1,-3.232527924E-1,2.427620187E0
1.427857629E1,-1.953303904E0,4.375729481E-1,-6.901322454E-1,2.117344739E0
1.428856229E1,-1.641524226E0,4.636871248E-1,-9.411602300E-1,1.948176099E0
1.429854729E1,-1.391592886E0,4.156489592E-1,-1.228864290E0,1.902472671E0
1.430853229E1,-1.275098517E0,2.823316383E-1,-1.624244826E0,2.084168572E0
1.431851829E1,-1.183594854E0,2.070022514E-1,-1.865704427E0,2.219143916E0
1.432850329E1,-7.584222425E-1,2.124942487E-1,-1.871035334E0,2.030056976E0
1.433848829E1,-4.460397895E-1,2.463941393E-1,-1.695839889E0,1.770744051E0
1.434847329E1,-1.036182162E-1,2.421750078E-1,-1.546338279E0,1.568613255E0
1.435845929E1,4.155424668E-1,2.238763291E-1,-1.504247682E0,1.576565013E0
1.436844429E1,8.936483138E-1,1.161057127E-1,-1.432435688E0,1.692323800E0
1.437842929E1,1.558849274E0,-1.268786594E-1,-1.973856867E0,2.518376498E0
1.438841529E1,2.247597484E0,-8.857033364E-2,-2.621223747E0,3.454034320E0
1.439840029E1,2.374230341E0,-3.908417813E-2,-2.317587193E0,3.318087956E0
1.440838529E1,2.850317948E0,9.099681851E-2,-2.024446392E0,3.497281233E0
1.441837129E1,3.912685989E0,2.886397608E-1,-1.957871749E0,4.384710520E0
1.442835629E1,5.133064799E0,5.365810733E-1,-1.540486386E0,5.386034885E0
1.443834129E1,6.472208161E0,7.457036714E-1,-1.026854684E0,6.595451690E0
1.444832629E1,7.419369389E0,8.549656932E-1,-4.759259319E-1,7.483616369E0
1.445831229E1,8.208379220E0,6.992699817E-1,1.299455971E-1,8.239135500E0
1.446829729E1,9.062026513E0,7.675452145E-1,8.633051383E-1,9.135356913E0
1.447828229E1,9.874374336E0,6.687925395E-1,1.622792378E0,1.002915785E1
1.448826829E1,1.049002650E1,6.505472533E-1,2.576613584E0,1.082140496E1
1.449825329E1,1.098123004E1,6.317508669E-1,3.644567762E0,1.158746722E1
1.450823829E1,1.115820070E1,5.787784553E-1,4.777486260E0,1.215174071E1
1.451822329E1,1.098445887E1,6.210893463E-1,6.158812020E0,1.260853101E1
1.452820929E1,1.024551582E1,5.585136138E-1,7.654895820E0,1.280156092E1
1.453819429E1,8.890110186E0,3.351505606E-1,9.401866102E0,1.294378118E1
1.454817929E1,7.465431415E0,1.566022492E-1,1.101679982E1,1.330890938E1
1.455816529E1,6.014920814E0,6.469871029E-3,1.233422078E1,1.372269348E1
1.456815029E1,4.374554922E0,-2.753361026E-1,1.313510338E1,1.384714705E1
1.457813529E1,2.839195959E0,-6.401287575E-1,1.349096960E1,1.380134266E1
1.458812129E1,1.462194507E0,-8.489709815E-1,1.407678577E1,1.417796396E1
1.459810629E1,-3.711572760E-1,-1.437562526E0,1.490001292E1,1.497380141E1
1.460809129E1,-2.485129218E0,-1.963026216E0,1.557517688E1,1.589388165E1
1.461807629E1,-3.864340332E0,-2.446426643E0,1.596189067E1,1.660421884E1
1.462806229E1,-5.071339837E0,-3.100517382E0,1.583946986E1,1.691805252E1
1.463804729E1,-6.622275197E0,-3.898590398E0,1.556050855E1,1.735462366E1
1.464803229E1,-8.029168493E0,-4.755597501E0,1.523879709E1,1.786908478E1
1.465801829E1,-9.496547141E0,-5.780523480E0,1.472684880E1,1.845207129E1
1.466800329E1,-1.150219941E1,-6.956724823E0,1.391452904E1,1.934711167E1
1.467798829E1,-1.386546038E1,-8.310986745E0,1.269459170E1,2.055422464E1
1.468797329E1,-1.609718121E1,-9.505484610E0,1.067487804E1,2.152734312E1
1.469795929E1,-1.755454007E1,-1.057737572E1,8.392154869E0,2.214658027E1
1.470794429E1,-1.787045811E1,-1.151032821E1,6.281250377E0,2.216517618E1
1.471792929E1,-1.814848971E1,-1.195827288E1,4.832180530E0,2.226472406E1
1.472791529E1,-1.809961985E1,-1.237170845E1,3.673238415E0,2.222944194E1
1.473790029E1,-1.753267616E1,-1.278616962E1,2.292589762E0,2.182055991E1
1.474788529E1,-1.681774646E1,-1.323924463E1,6.106101125E-1,2.141231045E1
1.475787029E1,-1.613609209E1,-1.373672808E1,-1.023270341E0,2.121599039E1
1.476785629E1,-1.543807604E1,-1.412681688E1,-2.477005096E0,2.107217837E1
1.477784129E1,-1.474729183E1,-1.442941263E1,-3.775732504E0,2.097490694E1
1.478782629E1,-1.335094399E1,-1.462968912E1,-5.064724882E0,2.044326166E1
1.479781229E1,-1.149382503E1,-1.457412771E1,-6.337011180E0,1.961302942E1
1.480779729E1,-9.664557527E0,-1.441929812E1,-7.288451985E0,1.882661315E1
1.481778229E1,-8.230427316E0,-1.432726177E1,-8.023683220E0,1.836817509E1
1.482776829E1,-6.926744394E0,-1.418233737E1,-8.695455793E0,1.802025062E1
1.483775329E1,-5.697612886E0,-1.400693142E1,-9.002336966E0,1.759826671E1
1.484773829E1,-4.496526963E0,-1.380277822E1,-9.194046117E0,1.718330368E1
1.485772329E1,-3.346497758E0,-1.365909576E1,-9.677531329E0,1.707116156E1
1.486770929E1,-2.278463766E0,-1.354063585E1,-1.034646216E1,1.719271635E1
1.487769429E1,-1.682125245E0,-1.350240910E1,-1.081337987E1,1.738026987E1
1.488767929E1,-1.267484126E0,-1.335579133E1,-1.111111307E1,1.741954396E1
1.489766529E1,-7.553294308E-1,-1.340784091E1,-1.144126792E1,1.764208978E1
1.490765029E1,-3.482222304E-1,-1.349120466E1,-1.195301740E1,1.802799176E1
1.491763529E1,-2.794655159E-1,-1.341061950E1,-1.202603860E1,1.801522747E1
1.492762029E1,-2.322523559E-1,-1.332860178E1,-1.172592207E1,1.775395209E1
1.493760629E1,-1.082717228E-1,-1.330914692E1,-1.150086274E1,1.759019495E1
1.494759129E1,3.161194816E-1,-1.315014476E1,-1.134879771E1,1.737300919E1
1.495757629E1,9.416405788E-1,-1.305405863E1,-1.111101952E1,1.716828146E1
1.496756229E1,1.895940087E0,-1.271442662E1,-1.093302793E1,1.687549504E1
1.497754729E1,2.825622525E0,-1.220019441E1,-1.047645745E1,1.632743235E1
1.498753229E1,3.323273202E0,-1.182532941E1,-9.678537050E0,1.563830681E1
1.499751829E1,3.749662108E0,-1.143678076E1,-8.767504599E0,1.489056940E1
1.500750329E1,4.360797300E0,-1.104357656E1,-8.065301362E0,1.435361357E1
1.501748829E1,5.092179313E0,-1.077466428E1,-7.545116100E0,1.410505078E1
1.502747329E1,5.895814201E0,-1.020575476E1,-6.987803943E0,1.370209689E1
1.503745929E1,6.850321285E0,-9.550149736E0,-6.209671687E0,1.329256500E1
1.504744429E1,7.843997698E0,-8.914432265E0,-5.729289007E0,1.318408719E1
1.505742929E1,9.159610695E0,-7.993309273E0,-5.070667407E0,1.317205865E1
1.506741529E1,1.026658100E1,-7.015142600E0,-3.833919316E0,1.301206550E1
1.507740029E1,1.108009827E1,-6.092230361E0,-2.536404036E0,1.289640236E1
1.508738529E1,1.213448340E1,-5.365513256E0,-1.524912912E0,1.335514056E1
1.509737029E1,1.368050710E1,-4.459803233E0,-3.130172414E-1,1.439250149E1
1.510735629E1,1.588205864E1,-3.036149771E0,1.674001708E0,1.625608420E1
1.511734129E1,1.798502144E1,-1.787358608E0,3.901566923E0,1.848993974E1
1.512732629E1,1.934902482E1,-4.693329039E-1,5.709479810E0,2.017927637E1
1.513731229E1,1.958194281E1,2.818123325E-1,7.619183950E0,2.101389699E1
1.514729729E1,1.863438748E1,2.448725476E-1,9.061750524E0,2.072234740E1
1.515728150E1,1.658683523E1,1.816393688E-2,9.531916949E0,1.913062659E1
1.516726650E1,1.366684917E1,-6.777969593E-1,9.868661606E0,1.687105974E1
1.517725250E1,1.030467444E1,-1.097092169E0,1.027397071E1,1.459261460E1
1.518723750E1,7.274969475E0,-1.151711888E0,1.093087850E1,1.318088487E1
1.519722250E1,4.170767469E0,-7.124319910E-1,1.184488718E1,1.257792562E1
1.520720850E1,9.927209777E-1,-2.173605392E-1,1.282627684E1,1.286647264E1
1.521719350E1,-1.342602136E0,6.907811036E-2,1.400976732E1,1.407412280E1
1.522717850E1,-3.230242247E0,-1.016364121E-1,1.508198646E1,1.542436742E1
1.523716350E1,-5.882249245E0,-4.261184719E-1,1.647543291E1,1.749920920E1
1.524714950E1,-8.157197372E0,-2.697245663E-1,1.759983845E1,1.940017870E1
1.525713450E1,-1.039648859E1,-5.329870091E-1,1.769405814E1,2.052926554E1
1.526711950E1,-1.231253112E1,-8.746066368E-1,1.652875133E1,2.062917788E1
1.527710550E1,-1.377315857E1,-9.167562908E-1,1.507372434E1,2.043911702E1
1.528709050E1,-1.426696996E1,-1.109991638E0,1.291669116E1,1.927743303E1
1.529707550E1,-1.346010215E1,-9.809568183E-1,1.027849997E1,1.696420313E1
1.530706150E1,-1.242153023E1,-8.588398390E-1,8.037377983E0,1.481996842E1
1.531704650E1,-1.134219036E1,-7.511390238E-1,5.640894309E0,1.268972736E1
1.532703150E1,-1.018924807E1,-4.004940726E-1,2.907654868E0,1.060356678E1
1.533701650E1,-8.856653588E0,-1.994180838E-1,5.502551526E-1,8.875970994E0
1.534700250E1,-7.332489704E0,5.979417544E-3,-1.000900648E0,7.400489384E0
1.535698750E1,-6.186218505E0,3.053228172E-1,-1.208294370E0,6.310506850E0
1.536697250E1,-5.170133808E0,3.696025745E-1,-9.614956766E-1,5.271751473E0
1.537695850E1,-4.191526254E0,4.409644063E-1,-1.110311408E0,4.358455388E0
1.538694350E1,-3.430143055E0,4.885390339E-1,-1.161837657E0,3.654369782E0
1.539692850E1,-2.606793988E0,4.185553908E-1,-1.398042950E0,2.987488510E0
1.540691450E1,-1.785529453E0,3.131989070E-1,-2.064389892E0,2.747346830E0
1.541689950E1,-1.507678536E0,2.082180703E-1,-2.439240269E0,2.875124766E0
1.542688450E1,-1.448946617E0,6.757959690E-2,-2.559933817E0,2.942324667E0
1.543686950E1,-1.327553304E0,-3.286975734E-2,-2.844242983E0,3.138980144E0
1.544685550E1,-1.151519514E0,-4.416745506E-2,-2.892585424E0,3.113679237E0
1.545684050E1,-8.264554006E-1,3.029913861E-2,-2.795908729E0,2.915656391E0
1.546682550E1,-5.402278356E-1,1.140353964E-1,-2.498290715E0,2.558575128E0
1.547681150E1,-4.997739471E-2,1.441448294E-1,-2.472637811E0,2.477339947E0
1.548679650E1,4.689761507E-1,1.610095880E-1,-2.688401238E0,2.733745404E0
1.549678150E1,5.920123123E-1,5.743168104E-2,-2.471896384E0,2.542449352E0
1.550676650E1,5.864925407E-1,-6.423367392E-2,-2.473476886E0,2.542869908E0
1.551675250E1,6.681175516E-1,-1.302908934E-1,-2.347676380E0,2.444369278E0
1.552673750E1,1.014456979E0,-1.713086179E-1,-2.162233105E0,2.394519076E0
1.553672250E1,1.456468914E0,-8.402786935E-2,-1.872386625E0,2.373645731E0
1.554670850E1,1.549584946E0,-1.842501506E-2,-1.352939867E0,2.057182362E0
1.555669350E1,1.234480979E0,-7.377579996E-2,-6.264531434E-1,1.386300724E0
1.556667850E1,1.216578705E0,-5.423258713E-2,-2.185864627E-2,1.217983054E0
1.557666450E1,1.370571269E0,-2.128081529E-1,1.825687838E-1,1.398958282E0
1.558664950E1,1.521696066E0,-2.526523229E-1,6.488713682E-2,1.543891983E0
1.559663450E1,1.507862285E0,-2.653650285E-1,-1.688313353E-1,1.540315321E0
1.560661950E1,1.753384385E0,-1.698181626E-1,-2.339839357E-1,1.777060351E0
1.561660550E1,2.440601501E0,3.509902658E-2,-1.202047205E-1,2.443811941E0
1.562659050E1,3.060687026E0,2.280496879E-1,-5.655017674E-2,3.069692111E0
1.563657550E1,3.954483933E0,5.038846859E-1,-2.247026503E-2,3.986520772E0
1.564656150E1,4.785170378E0,7.256075951E-1,2.864632809E-1,4.848342309E0
1.565654650E1,5.694599816E0,9.107067615E-1,5.799952608E-1,5.796054552E0
1.566653150E1,6.768324611E0,1.197927768E0,9.702945668E-1,6.941665544E0
1.567651650E1,8.325800666E0,1.340429457E0,1.684952958E0,8.599696177E0
1.568650250E1,9.974096260E0,1.647508266E0,2.634169482E0,1.044680471E1
1.569648750E1,1.149924774E1,1.852570119E0,3.647024762E0,1.220514253E1
1.570647250E1,1.217322354E1,2.167663268E0,5.155841458E0,1.339659795E1
1.571645850E1,1.248111921E1,2.281302589E0,6.737611526E0,1.436586535E1
1.572644350E1,1.244962727E1,2.321085582E0,8.128948889E0,1.504860351E1
1.573642850E1,1.166750137E1,2.115291658E0,8.930648348E0,1.484457904E1
1.574641450E1,1.009734972E1,1.530418650E0,9.258791751E0,1.378491484E1
1.575639950E1,7.946672466E0,8.895847182E-1,9.894459522E0,1.272168595E1
1.576638450E1,5.833202800E0,3.414365001E-1,1.106929612E1,1.251687463E1
1.577636950E1,3.950675933E0,-1.879810031E-1,1.214367990E1,1.277153627E1
1.578635550E1,2.611983976E0,-7.650930385E-1,1.272915926E1,1.301688608E1
1.579634050E1,1.155561914E0,-1.186573864E0,1.389728560E1,1.399563603E1
1.580632550E1,-7.069813628E-1,-1.649385807E0,1.566744828E1,1.576988370E1
1.581631150E1,-2.683502440E0,-2.251018836E0,1.671134935E1,1.707446832E1
1.582629650E1,-4.551877876E0,-3.134608696E0,1.675977014E1,1.764752842E1
1.583628150E1,-6.301988697E0,-3.874289662E0,1.641138017E1,1.800162718E1
1.584626650E1,-8.322075405E0,-4.782973287E0,1.580419127E1,1.849070669E1
1.585625250E1,-1.071601203E1,-5.820294487E0,1.490743304E1,1.925981053E1
1.586623750E1,-1.305212671E1,-6.770330790E0,1.375156597E1,2.013208776E1
1.587622250E1,-1.480351164E1,-7.561456144E0,1.225850401E1,2.065406731E1
1.588620850E1,-1.620337366E1,-8.420041995E0,1.045784343E1,2.104312036E1
1.589619350E1,-1.732242198E1,-9.052492043E0,8.331959538E0,2.124701073E1
1.590617850E1,-1.832361733E1,-9.610624564E0,6.616388220E0,2.172315929E1
1.591616450E1,-1.904074909E1,-1.004076621E1,4.924493448E0,2.208206847E1
1.592614950E1,-1.941703262E1,-1.076161798E1,2.873564431E0,2.238506086E1
1.593613450E1,-1.936691380E1,-1.130896180E1,1.203600810E0,2.245926583E1
1.594611950E1,-1.909395758E1,-1.161429171E1,-2.093309051E-1,2.234982791E1
1.595610550E1,-1.827143443E1,-1.213618143E1,-1.360721927E0,2.197689196E1
1.596609050E1,-1.690886830E1,-1.231151487E1,-2.554963099E0,2.107156999E1
1.597607550E1,-1.544539325E1,-1.249114952E1,-2.984583176E0,2.008722792E1
1.598606150E1,-1.432426683E1,-1.275793809E1,-3.089333705E0,1.942919420E1
1.599604650E1,-1.283349113E1,-1.307620672E1,-3.627931849E0,1.867746145E1
1.600603150E1,-1.102837497E1,-1.330555673E1,-4.161704870E0,1.777590172E1
1.601601650E1,-9.401785995E0,-1.358290888E1,-4.654861377E0,1.716265504E1
1.602600250E1,-7.945991265E0,-1.390798133E1,-5.211612201E0,1.684433506E1
1.603598750E1,-6.799379173E0,-1.427553263E1,-5.874073083E0,1.686793181E1
1.604597250E1,-5.888626218E0,-1.440568697E1,-6.640543068E0,1.692029988E1
1.605595850E1,-5.039928594E0,-1.452889950E1,-7.316561304E0,1.703002848E1
1.606594350E1,-4.151938558E0,-1.455704682E1,-7.978671353E0,1.711155757E1
1.607592850E1,-3.272704727E0,-1.443352556E1,-8.564091076E0,1.709914946E1
1.608591450E1,-2.451445016E0,-1.440514903E1,-9.116097470E0,1.722269242E1
1.609589950E1,-1.467265651E0,-1.423925182E1,-9.712243910E0,1.729846359E1
1.610588450E1,-5.580549363E-1,-1.419045330E1,-1.041324321E1,1.761011142E1
1.611586950E1,6.437203366E-2,-1.388197291E1,-1.113228935E1,1.779441434E1
1.612585550E1,-1.961682379E-2,-1.353127563E1,-1.116129622E1,1.754053415E1
1.613584050E1,-1.212504950E-1,-1.336393533E1,-1.109024553E1,1.736672149E1
1.614582550E1,2.750115091E-1,-1.323288052E1,-1.127170802E1,1.738494061E1
1.615581150E1,1.057164530E0,-1.310006102E1,-1.170991005E1,1.760259041E1
1.616579675E1,1.663903420E0,-1.268039349E1,-1.158658643E1,1.725717064E1
1.617578175E1,1.936098033E0,-1.240010136E1,-1.072426362E1,1.650820461E1
1.618576675E1,2.206977754E0,-1.235918020E1,-1.016527331E1,1.615403565E1
1.619575275E1,2.819488211E0,-1.232619021E1,-9.819991722E0,1.600989433E1
1.620573775E1,3.632050335E0,-1.216776809E1,-9.385024366E0,1.579003015E1
1.621572275E1,4.559044808E0,-1.202031768E1,-8.650736872E0,1.549542433E1
1.622570875E1,5.584532413E0,-1.149399577E1,-7.714680676E0,1.492699698E1
1.623569375E1,6.448042789E0,-1.079667320E1,-6.886986251E0,1.433792132E1
1.624567875E1,7.076041936E0,-1.017190055E1,-6.088906803E0,1.380625642E1
1.625566475E1,8.069489722E0,-9.418959267E0,-5.173021163E0,1.343851205E1
1.626564975E1,1.009778709E1,-8.209086149E0,-3.764376626E0,1.354713737E1
1.627563475E1,1.201577206E1,-7.267195601E0,-2.295579443E0,1.422886485E1
1.628561975E1,1.364272941E1,-5.996166455E0,-7.457147080E-1,1.492093054E1
1.629560575E1,1.491770426E1,-4.950320014E0,6.462933308E-1,1.573090155E1
1.630559075E1,1.643211791E1,-3.722925130E0,2.318903401E0,1.700740966E1
1.631557575E1,1.833967495E1,-2.533728935E0,4.249677984E0,1.899534739E1
1.632556175E1,1.932294039E1,-1.885885800E0,5.607360528E0,2.020829243E1
1.633554675E1,1.873982798E1,-1.688983444E0,6.650647057E0,1.995657596E1
1.634553175E1,1.718198121E1,-1.825470906E0,7.730585103E0,1.892920412E1
1.635551675E1,1.580300662E1,-2.015433201E0,8.911998069E0,1.825433370E1
1.636550275E1,1.498903093E1,-2.176253120E0,9.877628896E0,1.808244117E1
1.637548775E1,1.414960933E1,-1.888886445E0,1.045482393E1,1.769414252E1
1.638547275E1,1.204629803E1,-1.298876658E0,1.121546131E1,1.651020743E1
1.639545875E1,8.767651949E0,-6.763156403E-1,1.249422048E1,1.527856894E1
1.640544375E1,5.488131707E0,-7.438571206E-1,1.323249460E1,1.434474909E1
1.641542875E1,2.570580135E0,-1.024612861E0,1.410342334E1,1.437234371E1
1.642541375E1,-9.028193792E-1,-1.362282841E0,1.524491678E1,1.533226614E1
1.643539975E1,-4.687214021E0,-1.852392656E0,1.657209206E1,1.732153484E1
1.644538475E1,-8.763650699E0,-2.271429565E0,1.780222111E1,1.997198143E1
1.645536975E1,-1.288785153E1,-2.663593841E0,1.835856730E1,2.258823682E1
1.646535575E1,-1.620070616E1,-2.618643370E0,1.883696661E1,2.498302392E1
1.647534075E1,-1.818637967E1,-2.350910329E0,1.926878348E1,2.659994740E1
1.648532575E1,-1.840712375E1,-1.930198193E0,1.818623115E1,2.594777203E1
1.649531175E1,-1.708329074E1,-1.668235769E0,1.535016666E1,2.302714593E1
1.650529675E1,-1.522131274E1,-1.396933149E0,1.216509708E1,1.953533647E1
