"Time (s)","Linear Acceleration x (m/s^2)","Linear Acceleration y (m/s^2)","Linear Acceleration z (m/s^2)","Absolute acceleration (m/s^2)"
2.598291670E-3,7.611569121E-2,-8.902882844E-2,4.161334741E-1,4.323040585E-1
1.258429169E-2,-6.060982182E-1,-3.954303838E-1,-1.573456496E-1,7.405929328E-1
2.256929170E-2,-9.367741605E-1,-6.542638166E-1,-6.044939250E-1,1.292679340E0
3.255429165E-2,-6.603359308E-1,-5.912738089E-1,-1.109393980E0,1.420001148E0
4.254029167E-2,-3.957712765E-1,-3.700653085E-1,-1.383791531E0,1.486089579E0
5.252529169E-2,-2.470952753E-1,-2.972389685E-1,-1.093711748E0,1.160005373E0
6.251129170E-2,-2.514089855E-1,-3.022952020E-1,-5.144292623E-1,6.474768977E-1
7.249629166E-2,-3.665670656E-1,-2.487886472E-1,-2.674726939E-1,5.175025087E-1
8.248229168E-2,-3.911834415E-1,-2.215271737E-1,-3.714923215E-1,5.831854923E-1
9.246754169E-2,-2.048398415E-1,-3.183376229E-1,-5.288853335E-1,6.503982617E-1
1.024535417E-1,-1.891599845E-2,-4.330884992E-1,-7.020044321E-1,8.250658675E-1
1.124385417E-1,5.547012292E-2,-5.319611152E-1,-9.250394565E-1,1.068530560E0
1.224235417E-1,1.245578264E-1,-6.864040607E-1,-1.087825356E0,1.292296093E0
1.324095417E-1,1.144560852E-1,-8.974980475E-1,-1.372085990E0,1.643539749E0
1.423945416E-1,-1.372332377E-2,-1.082762105E0,-1.843359293E0,2.137881098E0
1.523805417E-1,-1.155982475E-1,-1.185508355E0,-2.347944183E0,2.632799822E0
1.623655417E-1,1.725153735E-1,-1.395438893E0,-2.894397476E0,3.217848350E0
1.723515417E-1,5.212140424E-1,-1.522783063E0,-3.395255935E0,3.757431996E0
1.823365416E-1,4.555602260E-1,-1.550774123E0,-3.729076400E0,4.064289151E0
1.923225417E-1,4.409417118E-1,-1.656672169E0,-3.972652693E0,4.326772665E0
2.023075417E-1,3.045837657E-1,-1.648725364E0,-4.081265894E0,4.412232756E0
2.122935417E-1,3.093815158E-1,-1.623610111E0,-4.031500241E0,4.357157435E0
2.222785417E-1,8.605056377E-1,-1.794666458E0,-3.981090810E0,4.450885495E0
2.322635417E-1,1.451089183E0,-1.924580919E0,-3.946798645E0,4.624596314E0
2.422495417E-1,2.211597054E0,-1.811700421E0,-3.906774454E0,4.841105925E0
2.522345417E-1,3.112380213E0,-1.712015334E0,-3.785861050E0,5.191401640E0
2.622205417E-1,3.748716028E0,-1.590119014E0,-3.420897730E0,5.318260206E0
2.722055417E-1,4.501362610E0,-1.371897710E0,-2.759752471E0,5.455327889E0
2.821915417E-1,5.147679330E0,-1.063959726E0,-1.698106855E0,5.523964127E0
2.921765417E-1,5.430796250E0,-4.614838574E-1,-3.539787412E-2,5.450483306E0
3.021625417E-1,5.737170469E0,6.793722723E-2,2.307332346E0,6.184134783E0
3.121475417E-1,6.285935166E0,6.141659506E-1,4.892539583E0,7.989187963E0
3.221325417E-1,7.344333825E0,1.392330074E0,7.039209740E0,1.026782821E1
3.321185417E-1,8.455302460E0,1.958479275E0,8.250580330E0,1.197496791E1
3.421035417E-1,9.015082142E0,2.162111337E0,8.316877815E0,1.245459305E1
3.520895417E-1,8.893487538E0,2.341304377E0,7.665118507E0,1.197204529E1
3.620745417E-1,8.295890989E0,2.402262039E0,7.084008767E0,1.117031112E1
3.720605417E-1,7.373170538E0,2.314473989E0,6.077609982E0,9.831468696E0
3.820455417E-1,6.343296937E0,2.349488286E0,6.718515689E0,9.533937502E0
3.920315417E-1,5.068454821E0,2.929877211E0,8.327475309E0,1.017940370E1
4.020165417E-1,4.049459964E0,3.274710030E0,9.497645248E0,1.083176426E1
4.120025416E-1,3.505581200E0,3.589115692E0,1.081730218E1,1.192413005E1
4.219875417E-1,3.514922419E0,4.012695596E0,1.169472133E1,1.285390651E1
4.319725417E-1,3.729082248E0,3.855230078E0,1.212607861E1,1.325936031E1
4.419585417E-1,3.912308258E0,3.444686835E0,1.215905574E1,1.322931063E1
4.519435417E-1,3.895967045E0,3.067084465E0,1.204512625E1,1.302576803E1
4.619295417E-1,3.578997086E0,2.582944072E0,1.216872002E1,1.294444155E1
4.719145417E-1,2.689034784E0,1.981553849E0,1.252191406E1,1.295977606E1
4.819005417E-1,1.323757145E0,1.344473976E0,1.320142250E1,1.333557270E1
4.918855416E-1,6.416562695E-2,8.388760561E-1,1.398536572E1,1.401064897E1
5.018715417E-1,-9.986852838E-1,3.640545535E-1,1.428772524E1,1.432721189E1
5.118565417E-1,-1.729991137E0,-1.721284706E-1,1.413770674E1,1.424420055E1
5.218425417E-1,-2.209550821E0,-6.917082893E-1,1.361283727E1,1.380832770E1
5.318275417E-1,-2.311526408E0,-1.276968749E0,1.302119260E1,1.328628091E1
5.418125417E-1,-2.402067180E0,-1.726633373E0,1.248389897E1,1.282961118E1
5.517985417E-1,-2.686318460E0,-2.166387552E0,1.226399455E1,1.274029451E1
5.617835417E-1,-3.183245544E0,-2.987668167E0,1.215504455E1,1.291527473E1
5.717695417E-1,-3.887919522E0,-4.018028256E0,1.178896324E1,1.304760988E1
5.817545417E-1,-4.428815621E0,-5.023311392E0,1.134509525E1,1.317418883E1
5.917405417E-1,-5.010671466E0,-5.954958202E0,1.105683922E1,1.352117041E1
6.017255417E-1,-5.713847680E0,-6.656666765E0,1.076049999E1,1.388335794E1
6.117115417E-1,-6.214548265E0,-7.053602076E0,1.039514256E1,1.401545223E1
6.216965417E-1,-6.356398793E0,-7.238847715E0,1.024500829E1,1.406289148E1
6.316825417E-1,-6.311185198E0,-7.685382618E0,1.039801706E1,1.438801318E1
6.416675417E-1,-6.170208828E0,-8.412482715E0,1.039256511E1,1.472571737E1
6.516525417E-1,-5.934211696E0,-9.381003236E0,1.006739911E1,1.498568033E1
6.616385417E-1,-5.689165998E0,-1.031396216E1,8.932117168E0,1.478266357E1
6.716235417E-1,-5.659575579E0,-1.089808614E1,7.255578353E0,1.426332691E1
6.816095417E-1,-5.587075367E0,-1.152885687E1,5.817542202E0,1.407031446E1
6.915945417E-1,-5.757411191E0,-1.213298417E1,4.659299998E0,1.421499789E1
7.015805417E-1,-5.917462347E0,-1.245804025E1,3.475063997E0,1.422305161E1
7.115655417E-1,-5.890420144E0,-1.249304168E1,2.636862125E0,1.406151421E1
7.215515416E-1,-5.472013857E0,-1.240689816E1,2.237839943E0,1.374343426E1
7.315365417E-1,-5.177172686E0,-1.234712909E1,1.869382326E0,1.351848010E1
7.415225417E-1,-4.784756103E0,-1.225878468E1,1.306586650E0,1.322417716E1
7.515075417E-1,-4.421617991E0,-1.214411961E1,7.209365469E-1,1.294411435E1
7.614925417E-1,-4.140534441E0,-1.211144303E1,2.046484548E-1,1.280128739E1
7.714785417E-1,-4.024976795E0,-1.198184534E1,-1.541592094E-1,1.264076031E1
7.814635417E-1,-3.940860212E0,-1.171020241E1,-5.082709748E-1,1.236598396E1
7.914495417E-1,-3.809072742E0,-1.169126913E1,-7.064974326E-1,1.231640969E1
8.014345417E-1,-3.836701421E0,-1.205677624E1,-8.570243517E-1,1.268150708E1
8.114205417E-1,-3.794138954E0,-1.256137926E1,-1.327984243E0,1.318890751E1
8.214055417E-1,-3.646680361E0,-1.261771601E1,-2.110814445E0,1.330265284E1
8.313915417E-1,-3.503776165E0,-1.243361409E1,-2.854926139E0,1.322958087E1
8.413765416E-1,-3.259314311E0,-1.230428420E1,-3.307565827E0,1.315136994E1
8.513615417E-1,-2.879784699E0,-1.205151141E1,-3.437544753E0,1.285880247E1
8.613475417E-1,-2.521272904E0,-1.179205174E1,-3.292044978E0,1.249987446E1
8.713325417E-1,-2.449072070E0,-1.170181751E1,-3.171536202E0,1.236887743E1
8.813185417E-1,-2.475250054E0,-1.172134253E1,-3.101303540E0,1.237476534E1
8.913035417E-1,-2.533999661E0,-1.168504418E1,-2.966819335E0,1.231923004E1
9.012895417E-1,-2.601852506E0,-1.165071050E1,-2.998477914E0,1.230851581E1
9.112745417E-1,-2.664422099E0,-1.163856584E1,-3.210775112E0,1.236383584E1
9.212605417E-1,-2.614749709E0,-1.172132733E1,-3.393281915E0,1.247961508E1
9.312455417E-1,-2.038538036E0,-1.197672552E1,-3.632101498E0,1.268028993E1
9.412315417E-1,-1.069566840E0,-1.208290628E1,-4.033357902E0,1.278313629E1
9.512165417E-1,-1.508593333E-1,-1.215697413E1,-4.363392879E0,1.291719691E1
9.612015416E-1,7.577509090E-1,-1.234046911E1,-4.479351937E0,1.315013149E1
9.711875417E-1,1.463573573E0,-1.254895509E1,-4.458675597E0,1.339769046E1
9.811725417E-1,1.665393145E0,-1.293840188E1,-4.350127301E0,1.375134121E1
9.911585417E-1,1.159195885E0,-1.339303810E1,-4.544467115E0,1.419046814E1
1.001143542E0,3.297369891E-1,-1.393962646E1,-4.893755220E0,1.477737299E1
1.011129542E0,-1.123770090E0,-1.426482521E1,-4.919782931E0,1.513117185E1
1.021114542E0,-2.033516593E0,-1.447437538E1,-4.947092936E0,1.543102268E1
1.031100542E0,-1.363535899E0,-1.496726993E1,-4.355634794E0,1.564768206E1
1.041085542E0,-2.319730417E-1,-1.526598313E1,-3.196696771E0,1.559881158E1
1.051070542E0,1.012869021E0,-1.545615563E1,-1.677417213E0,1.557987096E1
1.061056542E0,2.105342328E0,-1.555389418E1,-3.325785166E-1,1.569925791E1
1.071041542E0,2.408402054E0,-1.568741067E1,3.861469057E-1,1.587590513E1
1.081027542E0,2.683158917E0,-1.609563520E1,6.981075552E-1,1.633267181E1
1.091012042E0,3.152143911E0,-1.622937038E1,-9.133116961E-2,1.653290100E1
1.100998042E0,5.434211023E0,-1.618215061E1,-1.181387530E0,1.711105854E1
1.110983042E0,8.903624271E0,-1.561371471E1,-1.203050002E0,1.801415947E1
1.120969042E0,1.131659826E1,-1.458688984E1,-5.622004294E-1,1.847048513E1
1.130954042E0,1.205757497E1,-1.341892372E1,3.767732343E-1,1.804423969E1
1.140940042E0,1.082779442E1,-1.229540345E1,1.742573760E0,1.647588060E1
1.150925042E0,8.912322589E0,-1.138728993E1,2.323587021E0,1.464578173E1
1.160910042E0,1.000135715E1,-1.108167468E1,1.848608923E0,1.504154292E1
1.170896042E0,1.271799108E1,-1.079804028E1,1.896939669E0,1.679116885E1
1.180881042E0,1.500820629E1,-9.555542039E0,2.747628855E0,1.800289155E1
1.190867042E0,1.714988468E1,-7.414035559E0,3.838983005E0,1.907417779E1
1.200852042E0,1.823452447E1,-5.538950443E0,5.016704623E0,1.970647558E1
1.210838042E0,1.748438868E1,-4.348656142E0,5.976720954E0,1.898251435E1
1.220823042E0,1.539373895E1,-4.025946556E0,6.748519506E0,1.728345914E1
1.230809042E0,1.306574722E1,-4.944661664E0,7.441796969E0,1.582857452E1
1.240794042E0,1.132493990E1,-6.390671663E0,7.529348499E0,1.502617839E1
1.250780042E0,1.069776170E1,-7.299088655E0,7.741430519E0,1.508802661E1
1.260765042E0,9.947922953E0,-6.815291786E0,8.786496940E0,1.492018437E1
1.270750042E0,9.517143373E0,-4.125782793E0,9.021507062E0,1.374720667E1
1.280736042E0,8.978404897E0,-2.648577898E0,9.428439358E0,1.328616529E1
1.290721042E0,7.951917418E0,-2.710057863E0,1.119733377E1,1.399848877E1
1.300707042E0,7.060395956E0,-2.026359162E0,1.323380672E1,1.513568508E1
1.310692042E0,5.385131249E0,-1.937610416E0,1.474988683E1,1.582128737E1
1.320678042E0,3.275486832E0,-2.735996696E0,1.500675501E1,1.560183284E1
1.330663042E0,9.249393960E-1,-3.508485512E0,1.402438770E1,1.448614627E1
1.340649042E0,-1.797407487E0,-3.707067188E0,1.274777914E1,1.339697331E1
1.350634042E0,-4.376932400E0,-3.355404237E0,1.084564714E1,1.216734715E1
1.360620042E0,-7.016179311E0,-3.614600197E0,8.889596801E0,1.188768430E1
1.370605042E0,-9.755242580E0,-3.811348479E0,8.511187808E0,1.349560865E1
1.380590042E0,-1.211117640E1,-3.107449256E0,9.622291514E0,1.577736761E1
1.390576042E0,-1.342883007E1,-2.120491441E0,1.146840368E1,1.778634993E1
1.400561042E0,-1.317456273E1,-1.296172320E0,1.305904163E1,1.859536862E1
1.410547042E0,-1.228327750E1,-4.073375807E-1,1.392282624E1,1.857121214E1
1.420532042E0,-1.104209137E1,7.593217635E-1,1.363231201E1,1.755973468E1
1.430518042E0,-9.760241949E0,1.594528546E0,1.205117461E1,1.558960082E1
1.440503042E0,-8.895146978E0,1.714140505E0,9.635005699E0,1.322479687E1
1.450489042E0,-8.500810170E0,1.280615949E0,7.375386633E0,1.132696247E1
1.460474042E0,-7.882985762E0,1.146463938E0,5.931309723E0,9.931579891E0
1.470460042E0,-5.994542683E0,1.486871511E0,5.242814698E0,8.101384747E0
1.480445042E0,-3.235833939E0,1.975922250E0,5.149762693E0,6.394915622E0
1.490430042E0,-1.558215875E0,2.486349239E0,5.602588030E0,6.324473250E0
1.500416042E0,-1.174993381E0,2.668840840E0,6.002794273E0,6.673594231E0
1.510401042E0,-1.178962105E0,2.396570651E0,5.722233172E0,6.314859857E0
1.520387042E0,-1.075287098E0,2.029406877E0,4.774072071E0,5.297782437E0
1.530372042E0,-1.246378748E0,1.709986643E0,3.433196763E0,4.032908915E0
1.540358042E0,-1.815765551E0,1.283166212E0,1.887004080E0,2.916214063E0
1.550343042E0,-2.538197085E0,7.473078550E-1,4.573317862E-1,2.685156575E0
1.560329042E0,-3.058120099E0,2.697434601E-1,-5.219499511E-1,3.114047499E0
1.570314042E0,-3.177193675E0,5.587306917E-2,-1.105022601E0,3.364335952E0
1.580300042E0,-3.052273175E0,-3.685627934E-2,-1.286145369E0,3.312385822E0
1.590285042E0,-2.663225174E0,-1.210353175E-1,-1.156507920E0,2.906015905E0
1.600270042E0,-1.727194706E0,-1.256791396E-1,-8.208701402E-1,1.916461475E0
1.610256042E0,-3.538819697E-1,-3.906744048E-3,-3.629331672E-1,5.069203044E-1
1.620241042E0,9.421579112E-1,1.420094993E-1,3.520900905E-2,9.534505241E-1
1.630227042E0,1.975253913E0,3.514866213E-1,5.237485546E-1,2.073519572E0
1.640212042E0,2.903590761E0,5.633052608E-1,8.344234014E-1,3.073176619E0
1.650198042E0,3.838609660E0,6.332708506E-1,7.980648297E-1,3.971506460E0
1.660183042E0,4.841786336E0,7.167904325E-1,5.328228486E-1,4.923472721E0
1.670169042E0,5.980663147E0,7.128147644E-1,1.876505989E-1,6.025914811E0
1.680154042E0,7.021699083E0,6.789968079E-1,5.722845376E-2,7.054684243E0
1.690140042E0,7.871184327E0,9.636259635E-1,2.741695100E-1,7.934688817E0
1.700125042E0,8.976293467E0,1.505532900E0,8.204468018E-1,9.138577935E0
1.710110042E0,1.001377897E1,1.940674210E0,1.753260131E0,1.034968148E1
1.720096042E0,1.079704976E1,2.529203775E0,3.106328638E0,1.151618135E1
1.730081042E0,1.131910438E1,3.131342441E0,4.769164503E0,1.267566012E1
1.740067042E0,1.112489496E1,3.383567936E0,6.497053565E0,1.332004222E1
1.750052042E0,1.029530019E1,3.414865742E0,7.595834264E0,1.324202447E1
1.760038042E0,9.159403118E0,3.292099357E0,8.072867659E0,1.264530648E1
1.770023042E0,8.007464213E0,3.047725503E0,8.316283738E0,1.194021311E1
1.780009042E0,7.110043495E0,2.433346860E0,8.400245077E0,1.127111409E1
1.789994042E0,6.403660083E0,1.905066714E0,8.562460288E0,1.086056480E1
1.799980042E0,5.678555056E0,1.476468438E0,8.986851785E0,1.073263488E1
1.809965042E0,4.802094852E0,1.067833287E0,9.566147718E0,1.075693102E1
1.819950042E0,3.815179867E0,7.266532235E-1,1.006723773E1,1.079040767E1
1.829936042E0,2.746626642E0,4.652774213E-1,1.073417465E1,1.108976765E1
1.839921042E0,1.510149862E0,4.145970451E-1,1.189029081E1,1.199297540E1
1.849907042E0,2.390465647E-1,4.547902939E-1,1.329330331E1,1.330322857E1
1.859892042E0,-9.796248957E-1,5.736924009E-1,1.460660198E1,1.465065218E1
1.869878042E0,-2.213202407E0,3.173344599E-1,1.569854377E1,1.585696196E1
1.879863042E0,-3.389660150E0,-3.267003107E-1,1.605013919E1,1.640742201E1
1.889849042E0,-4.001788784E0,-1.188170447E0,1.567809489E1,1.622432500E1
1.899834042E0,-4.345134948E0,-2.065752878E0,1.505409056E1,1.580421385E1
1.909820042E0,-4.638356149E0,-3.007632315E0,1.459802528E1,1.560969385E1
1.919805042E0,-5.211160212E0,-3.918110158E0,1.420624429E1,1.563090384E1
1.929790042E0,-6.147940292E0,-4.751798857E0,1.384440104E1,1.587590005E1
1.939776042E0,-7.292485979E0,-5.746358199E0,1.336843886E1,1.627624471E1
1.949761042E0,-8.520844485E0,-6.594520218E0,1.284991830E1,1.676940333E1
1.959747042E0,-9.296853032E0,-7.236618172E0,1.249836498E1,1.717583320E1
1.969732042E0,-9.314206983E0,-8.103652664E0,1.185165475E1,1.711389373E1
1.979718042E0,-8.339087879E0,-8.862179207E0,1.095961639E1,1.637656247E1
1.989703042E0,-7.181943197E0,-9.453495262E0,1.029454122E1,1.571389384E1
1.999689042E0,-6.837890105E0,-1.015359409E1,9.452904693E0,1.546640298E1
2.009674042E0,-6.782859619E0,-1.107348507E1,8.378524425E0,1.545409097E1
2.019660042E0,-6.947596149E0,-1.184448021E1,7.158905168E0,1.548582342E1
2.029645042E0,-6.954315185E0,-1.249544372E1,5.862724223E0,1.545542457E1
2.039630042E0,-6.974662911E0,-1.300902104E1,4.562684115E0,1.544987500E1
2.049616042E0,-7.026841709E0,-1.357115598E1,3.494400154E0,1.567684954E1
2.059601042E0,-7.139024050E0,-1.407528888E1,2.446343467E0,1.597072377E1
2.069587042E0,-7.500332860E0,-1.432874931E1,1.190667354E0,1.621683503E1
2.079572042E0,-7.872366049E0,-1.431997614E1,-1.918997705E-2,1.634124329E1
2.089558792E0,-7.878494516E0,-1.431005108E1,-7.808751851E-1,1.635414332E1
2.099543792E0,-7.558793322E0,-1.456230347E1,-1.233716894E0,1.645351319E1
2.109529792E0,-7.045736402E0,-1.490687989E1,-1.837503306E0,1.659017444E1
2.119514792E0,-6.735612363E0,-1.557485060E1,-2.381691973E0,1.713525319E1
2.129500792E0,-6.903289458E0,-1.655838034E1,-2.935186483E0,1.817830258E1
2.139485792E0,-7.098582952E0,-1.685948856E1,-3.972278764E0,1.871927437E1
2.149470792E0,-7.083869019E0,-1.700064502E1,-4.602560664E0,1.898385356E1
2.159456792E0,-6.986943818E0,-1.732462404E1,-4.848645997E0,1.929946502E1
2.169441792E0,-6.662070762E0,-1.751996080E1,-5.180240135E0,1.944651900E1
2.179427792E0,-6.162513893E0,-1.764890828E1,-5.634739530E0,1.952462114E1
2.189412792E0,-5.959717251E0,-1.764239214E1,-6.127960356E0,1.960418650E1
2.199398792E0,-6.269279373E0,-1.743192162E1,-6.482773495E0,1.962656637E1
2.209383792E0,-6.854924798E0,-1.748334086E1,-6.394167128E0,1.983790752E1
2.219369792E0,-7.153537424E0,-1.782167362E1,-6.118967339E0,2.015507156E1
2.229354792E0,-6.852475399E0,-1.813722095E1,-5.985977681E0,2.029155321E1
2.239340792E0,-5.768613287E0,-1.818884719E1,-6.374832725E0,2.011838845E1
2.249325792E0,-3.727243883E0,-1.825134223E1,-7.093376006E0,1.993288297E1
2.259310792E0,-1.388786223E0,-1.856839464E1,-7.584136325E0,2.010554974E1
2.269296792E0,9.609136594E-1,-1.878202851E1,-8.049673508E0,2.045691065E1
2.279281792E0,3.355258349E0,-1.881052784E1,-8.397272937E0,2.087122203E1
2.289267792E0,5.525140489E0,-1.892298617E1,-8.439106842E0,2.144353299E1
2.299252792E0,7.200826195E0,-1.867162138E1,-8.381966681E0,2.169651374E1
2.309238792E0,7.907159321E0,-1.788356991E1,-7.815287284E0,2.105763416E1
2.319223792E0,6.896197370E0,-1.714279201E1,-6.246248944E0,1.950508861E1
2.329209792E0,5.105637850E0,-1.655995090E1,-4.104397771E0,1.780858200E1
2.339194792E0,4.101970299E0,-1.554521107E1,-2.052477359E0,1.620778858E1
2.349180792E0,4.428668271E0,-1.452595835E1,-3.541851479E-1,1.519019472E1
2.359165792E0,5.932700776E0,-1.413862943E1,5.568069577E-2,1.533299974E1
2.369150792E0,7.473822169E0,-1.395598463E1,-4.401357096E-1,1.583733703E1
2.379136792E0,8.174892801E0,-1.382897375E1,-1.351653188E0,1.612130124E1
2.389121792E0,8.252559028E0,-1.356834698E1,-2.339680021E0,1.605237904E1
2.399107792E0,7.933773508E0,-1.341777299E1,-2.543162248E0,1.579395670E1
2.409092792E0,7.215120299E0,-1.327447294E1,-2.158847567E0,1.526205148E1
2.419078792E0,7.392083942E0,-1.261274354E1,-1.457297464E0,1.469176370E1
2.429063792E0,8.882939161E0,-1.161006183E1,-8.919342756E-2,1.461875847E1
2.439049792E0,9.834919664E0,-1.039553784E1,1.147506132E0,1.435651845E1
2.449034792E0,1.004969608E1,-9.493726444E0,1.975343814E0,1.396528612E1
2.459020792E0,9.640066465E0,-9.207310526E0,2.628763731E0,1.358734144E1
2.469005792E0,8.955582045E0,-9.060816724E0,2.725415282E0,1.302799823E1
2.478990792E0,1.016151823E1,-9.042559378E0,2.851362553E0,1.389800710E1
2.488976792E0,1.147688448E1,-8.703219141E0,3.208860734E0,1.475675059E1
2.498961792E0,1.199549274E1,-8.139919435E0,3.739202608E0,1.497103105E1
2.508947792E0,1.271866234E1,-7.183923649E0,4.442507461E0,1.526790763E1
2.518932792E0,1.258586623E1,-5.793403727E0,5.450751042E0,1.488886303E1
2.528918792E0,1.154388772E1,-5.978022544E0,7.689497888E0,1.510385630E1
2.538903792E0,1.101790495E1,-6.190756529E0,1.079134288E1,1.661844689E1
2.548889792E0,1.106055220E1,-5.864398865E0,1.440520516E1,1.908499213E1
2.558874792E0,1.142647914E1,-5.581049227E0,1.768713387E1,2.178410523E1
2.568860792E0,1.257645923E1,-4.444446690E0,1.910366396E1,2.329957961E1
2.578845792E0,1.251036698E1,-2.984466816E0,1.817707324E1,2.226706796E1
2.588830792E0,1.070382994E1,-2.465672023E0,1.592587182E1,1.934644431E1
2.598816792E0,8.578674617E0,-1.652504420E0,1.323584974E1,1.585913451E1
2.608801792E0,5.662412063E0,-1.659879220E0,1.123270007E1,1.268824891E1
2.618787792E0,2.534805408E0,-3.099980023E0,9.782985279E0,1.057080487E1
2.628772792E0,-2.905667838E-2,-4.155914957E0,9.411665450E0,1.028843623E1
2.638758792E0,-1.899208973E0,-4.455705504E0,1.053373561E1,1.159395930E1
2.648743792E0,-3.489844004E0,-3.946657142E0,1.217128461E1,1.326255189E1
2.658729792E0,-6.051756518E0,-2.871801788E0,1.325532213E1,1.485175301E1
2.668714792E0,-9.963777094E0,-1.704669623E0,1.351645645E1,1.687830997E1
2.678700792E0,-1.433529819E1,-1.217346299E0,1.268359776E1,1.917958181E1
2.688685792E0,-1.897953225E1,-1.491885060E0,1.071387195E1,2.184571852E1
2.698671792E0,-2.243395148E1,-1.532217546E0,8.445516559E0,2.401992131E1
2.708656792E0,-2.328217197E1,-1.733628105E0,6.502506679E0,2.423525513E1
2.718641792E0,-2.215610817E1,-1.729254680E0,5.485719146E0,2.289053441E1
2.728627792E0,-1.997627319E1,-1.455623991E0,5.434852463E0,2.075350460E1
2.738612792E0,-1.630928662E1,-1.277085401E0,5.653727193E0,1.730862237E1
2.748598792E0,-1.240824887E1,-5.277163289E-1,6.094473352E0,1.383422314E1
2.758583792E0,-9.159495504E0,2.909686337E-1,6.966539374E0,1.151145914E1
2.768569792E0,-7.054355198E0,1.039982560E0,7.515688233E0,1.036007049E1
2.778554792E0,-5.722798013E0,1.430029559E0,6.918475846E0,9.091793534E0
2.788540792E0,-4.577385185E0,1.424884155E0,5.429443789E0,7.243038716E0
2.798525792E0,-3.230362407E0,1.344549113E0,3.707537012E0,5.097929413E0
2.808511792E0,-2.141287940E0,1.220615404E0,2.177476797E0,3.288832803E0
2.818496792E0,-1.551880563E0,9.578224558E-1,1.042631641E0,2.100675576E0
2.828481792E0,-1.338828343E0,7.662574384E-1,1.698089898E-1,1.551917165E0
2.838467792E0,-1.401990698E0,5.107632042E-1,-5.516274941E-1,1.590833071E0
2.848452792E0,-1.411609514E0,1.390733200E-1,-1.207119665E0,1.862557567E0
2.858438792E0,-8.457538435E-1,-2.714765383E-1,-1.932404201E0,2.126778096E0
2.868423792E0,-1.716297396E-1,-5.728193385E-1,-2.563017638E0,2.631850713E0
2.878409792E0,4.936402179E-3,-8.407060153E-1,-2.869082540E0,2.989723331E0
2.888394792E0,2.047260035E-2,-1.020247915E0,-2.962536249E0,3.133360171E0
2.898380792E0,2.916010283E-1,-1.176851699E0,-2.868320648E0,3.114044704E0
2.908365792E0,9.952561111E-1,-1.133541446E0,-2.588747726E0,2.996175183E0
2.918351792E0,1.865013140E0,-8.487699835E-1,-2.031988131E0,2.885768574E0
2.928336792E0,3.018887036E0,-5.801992190E-1,-1.316829802E0,3.344301242E0
2.938322792E0,4.820068900E0,-3.354484397E-1,-8.255449891E-1,4.901746055E0
2.948307792E0,7.003425949E0,-3.256334862E-1,-5.730224562E-1,7.034370400E0
2.958292792E0,8.426016680E0,-4.178984927E-1,-2.380319631E-1,8.439730769E0
2.968278792E0,9.006190281E0,-1.608686701E-1,2.324888027E-1,9.010626679E0
2.978263792E0,9.246274032E0,3.099645562E-1,7.361890090E-1,9.280713106E0
2.988249792E0,9.530697804E0,9.478736376E-1,1.577169478E0,9.706705344E0
2.998234792E0,9.890061246E0,1.835865794E0,2.923460476E0,1.047522486E1
3.008220792E0,1.065394735E1,2.470332254E0,4.497273068E0,1.182516810E1
3.018205792E0,1.171535966E1,2.923345286E0,5.922885055E0,1.344902104E1
3.028191792E0,1.216775640E1,3.094688585E0,7.212724110E0,1.447946070E1
3.038176792E0,1.213237489E1,2.857318527E0,8.365813163E0,1.501151623E1
3.048162792E0,1.137619893E1,2.507040196E0,9.341290117E0,1.493194072E1
3.058147792E0,9.913596289E0,2.161182945E0,1.024139120E1,1.441652513E1
3.068132792E0,8.490284012E0,1.746972620E0,1.108131800E1,1.406884660E1
3.078118792E0,6.971330582E0,1.108878840E0,1.164522114E1,1.361764435E1
3.088103792E0,5.527647191E0,3.451177244E-1,1.222624025E1,1.342218091E1
3.098089167E0,4.186664295E0,-5.015741587E-2,1.316253384E1,1.381242089E1
3.108074167E0,3.269637570E0,-3.113323662E-1,1.438915572E1,1.475924321E1
3.118060167E0,2.663474850E0,-4.951458029E-1,1.561747797E1,1.585070617E1
3.128045167E0,2.280766692E0,-6.662902236E-1,1.647927804E1,1.664969802E1
3.138031167E0,1.900654259E0,-8.362157922E-1,1.697808062E1,1.710458900E1
3.148016167E0,1.526900673E0,-9.981614464E-1,1.749218302E1,1.758704690E1
3.158002167E0,3.880888026E-1,-1.487581363E0,1.790024734E1,1.796614500E1
3.167987167E0,-1.103824434E0,-2.208863335E0,1.812795195E1,1.829535863E1
3.177972167E0,-2.216584437E0,-3.068938032E0,1.845226075E1,1.883660144E1
3.187958167E0,-3.070957661E0,-4.417235795E0,1.879610626E1,1.955086606E1
3.197943167E0,-4.054038334E0,-5.968520234E0,1.884840142E1,2.018218761E1
3.207929167E0,-5.202362491E0,-7.363164783E0,1.865483286E1,2.071915925E1
3.217914167E0,-6.137596568E0,-8.838979209E0,1.750345762E1,2.054674363E1
3.227900167E0,-6.924997246E0,-1.010298059E1,1.547322015E1,1.973439498E1
3.237885167E0,-7.821508137E0,-1.151386929E1,1.353647264E1,1.941600543E1
3.247871167E0,-8.639028407E0,-1.324015797E1,1.202434057E1,1.986251144E1
3.257856167E0,-9.404638851E0,-1.469986273E1,1.059919285E1,2.041754356E1
3.267842167E0,-1.037373006E1,-1.545760224E1,9.045909247E0,2.069734805E1
3.277827167E0,-1.120045034E1,-1.589238599E1,7.585780562E0,2.087012427E1
3.287813167E0,-1.155798536E1,-1.607823623E1,6.149770471E0,2.073442506E1
3.297798167E0,-1.132188532E1,-1.591867741E1,4.708272768E0,2.009371071E1
3.307783167E0,-1.090420233E1,-1.566368969E1,3.231503491E0,1.935705086E1
3.317769167E0,-1.068724724E1,-1.540089243E1,1.552279635E0,1.880995251E1
3.327754167E0,-1.046268258E1,-1.532513473E1,1.080308175E-1,1.855637767E1
3.337740167E0,-1.003172993E1,-1.540765649E1,-8.094505280E-1,1.840344245E1
3.347725167E0,-9.409914794E0,-1.571424472E1,-1.331548414E0,1.836455838E1
3.357711167E0,-8.847897382E0,-1.603603103E1,-1.863959033E0,1.840961495E1
3.367696167E0,-8.524286156E0,-1.594420986E1,-2.562981970E0,1.826061771E1
3.377682167E0,-8.281520872E0,-1.590208184E1,-2.783559118E0,1.814408984E1
3.387667167E0,-8.077057189E0,-1.669035785E1,-2.546163624E0,1.871603182E1
3.397653167E0,-8.158781383E0,-1.778937243E1,-2.508108483E0,1.973114526E1
3.407638167E0,-8.633772930E0,-1.862936239E1,-3.334477929E0,2.080177687E1
3.417623167E0,-9.511062854E0,-1.968420944E1,-4.717922428E0,2.236486553E1
3.427609167E0,-1.066155340E1,-2.060149257E1,-6.359658031E0,2.405276424E1
3.437594167E0,-1.156313091E1,-2.115319374E1,-7.683351295E0,2.530212420E1
3.447580167E0,-1.165365984E1,-2.149211005E1,-8.705945113E0,2.595211094E1
3.457565167E0,-1.051451347E1,-2.142262876E1,-9.310897459E0,2.561594870E1
3.467551167E0,-8.311396050E0,-2.124050436E1,-9.018879908E0,2.452709776E1
3.477536167E0,-5.757724017E0,-2.115153079E1,-8.460574894E0,2.349723320E1
3.487522167E0,-3.227063701E0,-2.090318317E1,-8.134121336E0,2.266100035E1
3.497507167E0,-8.299939162E-1,-2.033169736E1,-7.738207533E0,2.177031611E1
3.507493167E0,1.204153372E0,-1.959393194E1,-7.147272717E0,2.089152129E1
3.517478167E0,2.569950682E0,-1.915624563E1,-6.476816352E0,2.038419837E1
3.527464167E0,3.008989746E0,-1.895838170E1,-5.906089513E0,2.008372847E1
3.537449167E0,2.550776785E0,-1.909568251E1,-5.327119853E0,1.998824051E1
3.547434167E0,2.100542787E0,-1.957386664E1,-4.899276161E0,2.028673069E1
3.557420167E0,2.102833288E0,-1.990260763E1,-4.663470232E0,2.054954143E1
3.567405167E0,2.547332482E0,-1.996898522E1,-4.506488280E0,2.062905015E1
3.577391167E0,3.299554557E0,-1.958014070E1,-3.854893863E0,2.022694186E1
3.587376167E0,4.118056282E0,-1.838733677E1,-2.875788420E0,1.906102569E1
3.597362167E0,4.667464758E0,-1.721895550E1,-2.036343429E0,1.795617861E1
3.607347167E0,5.058161967E0,-1.705749399E1,-1.427416438E0,1.784882689E1
3.617333167E0,5.599997129E0,-1.733877196E1,-1.524971384E0,1.828437909E1
3.627318167E0,6.665283222E0,-1.704350161E1,-1.433758913E0,1.835654140E1
3.637304167E0,7.778414158E0,-1.623919838E1,-9.725597781E-1,1.803222569E1
3.647289167E0,8.619752476E0,-1.553190280E1,-1.548342705E-1,1.776412427E1
3.657274167E0,9.197256238E0,-1.446460468E1,7.462064588E-1,1.715724730E1
3.667260167E0,9.942826520E0,-1.293303530E1,1.712454168E0,1.640291744E1
3.677245167E0,1.051740434E1,-1.147303935E1,2.508413415E0,1.576510589E1
3.687231167E0,1.093991712E1,-1.048369046E1,2.644168221E0,1.538119559E1
3.697216167E0,1.148574067E1,-1.006228397E1,1.963898474E0,1.539573625E1
3.707202167E0,1.240030952E1,-9.606187697E0,1.241885455E0,1.573495465E1
3.717187167E0,1.408120158E1,-8.796128474E0,1.536813165E0,1.667374910E1
3.727173167E0,1.512617971E1,-7.723898227E0,2.927751748E0,1.723460608E1
3.737158167E0,1.539933824E1,-6.872324942E0,4.442639608E0,1.743862136E1
3.747144167E0,1.534038544E1,-6.152627420E0,5.937155185E0,1.756223395E1
3.757129167E0,1.483236414E1,-5.321801226E0,7.407842773E0,1.741254516E1
3.767115167E0,1.405431492E1,-5.119719114E0,8.018338864E0,1.697141861E1
3.777100167E0,1.329202043E1,-5.186832286E0,7.338839781E0,1.604492461E1
3.787085167E0,1.291687243E1,-4.788231396E0,6.051375280E0,1.504632500E1
3.797071167E0,1.271761803E1,-4.296420625E0,5.186466835E0,1.439084698E1
3.807056167E0,1.156626268E1,-2.291081180E0,4.858251511E0,1.275265043E1
3.817042167E0,9.336294256E0,-1.333340585E0,7.068163982E0,1.178571719E1
3.827027167E0,5.916482354E0,-3.151532877E0,1.196336580E1,1.371346215E1
3.837013167E0,2.627704216E0,-3.872071521E0,1.669162786E1,1.733517257E1
3.846998167E0,5.383294274E-1,-3.997867349E0,1.968379312E1,2.009289560E1
3.856984167E0,-1.274424771E-1,-4.283838002E0,1.992061471E1,2.037641775E1
3.866969167E0,-3.857868634E-2,-3.823421517E0,1.763182973E1,1.804165902E1
3.876955167E0,-3.441201894E-1,-3.422665343E0,1.497134310E1,1.536145081E1
3.886940167E0,-1.891452057E0,-2.816281306E0,1.286295525E1,1.330280606E1
3.896925167E0,-5.040155466E0,-2.360170711E0,1.165071518E1,1.291172867E1
3.906911167E0,-9.071518883E0,-2.457437389E0,1.136138092E1,1.474491199E1
3.916896167E0,-1.213586568E1,-2.114123384E0,1.085856013E1,1.642123874E1
3.926882167E0,-1.409193356E1,-1.631835828E0,1.076781719E1,1.780986712E1
3.936867167E0,-1.475646378E1,-1.079885202E0,1.081156957E1,1.832510332E1
3.946853167E0,-1.400900017E1,-5.511166302E-1,1.015396480E1,1.731065615E1
3.956838167E0,-1.297906458E1,-2.382103763E-1,9.031720394E0,1.581407079E1
3.966824167E0,-1.225372450E1,2.541902685E-1,7.966032012E0,1.461766202E1
3.976809167E0,-1.140357793E1,7.785381992E-1,6.874086708E0,1.333794510E1
3.986795167E0,-1.035112005E1,1.040120116E0,6.030890729E0,1.202493988E1
3.996780167E0,-8.739360781E0,1.022279530E0,5.647461317E0,1.045539581E1
4.006766167E0,-6.623825294E0,1.222219441E0,5.338579811E0,8.594726074E0
4.016751167E0,-5.363700035E0,1.618339870E0,5.482887924E0,7.839028128E0
4.026736167E0,-4.791250898E0,1.667570356E0,5.747345794E0,7.666085033E0
4.036722167E0,-4.335182403E0,1.528947929E0,5.306688513E0,7.020856871E0
4.046707167E0,-3.831856711E0,1.204114196E0,4.339271361E0,5.912892083E0
4.056693167E0,-3.403370993E0,7.308727205E-1,3.278963002E0,4.782123735E0
4.066678167E0,-3.095262782E0,3.517836233E-1,2.299345635E0,3.871872125E0
4.076664167E0,-2.889242278E0,2.700788710E-2,1.456547266E0,3.235734894E0
4.086649167E0,-2.692101941E0,-3.453811415E-1,7.562829655E-1,2.817563649E0
4.096635417E0,-2.533511126E0,-5.432831519E-1,2.087590474E-1,2.599502943E0
4.106620417E0,-2.115172375E0,-7.312803445E-1,-2.952545696E-1,2.257410104E0
4.116606417E0,-1.493233574E0,-9.894224171E-1,-9.010430682E-1,2.005138857E0
4.126591417E0,-1.006398785E0,-1.134659872E0,-1.541748215E0,2.162701805E0
4.136576417E0,-6.428732944E-1,-1.159631795E0,-2.081025805E0,2.467529204E0
4.146562417E0,-2.694928704E-1,-1.176516507E0,-2.382691846E0,2.670961987E0
4.156547417E0,1.851356749E-1,-1.278020516E0,-2.496790320E0,2.810973774E0
4.166533417E0,8.902235996E-1,-1.383212511E0,-2.430025642E0,2.934416386E0
4.176518417E0,1.730378515E0,-1.311896799E0,-2.193282405E0,3.086384734E0
4.186504417E0,2.539432309E0,-1.171362040E0,-1.876816476E0,3.367973511E0
4.196489417E0,3.183050539E0,-1.137825116E0,-1.761650301E0,3.811806463E0
4.206475417E0,4.101661859E0,-1.056908568E0,-1.999576430E0,4.683907730E0
4.216460417E0,5.514489786E0,-7.049246778E-1,-2.226278828E0,5.988558576E0
4.226446417E0,6.579966499E0,-3.364117319E-1,-1.943588755E0,6.869255362E0
4.236431417E0,7.341843495E0,7.927128732E-2,-9.968888730E-1,7.409638134E0
4.246417417E0,8.292769160E0,7.412020462E-1,4.049477506E-1,8.335669349E0
4.256402417E0,9.012925104E0,1.276780322E0,1.904411826E0,9.299987705E0
4.266387417E0,9.218890936E0,1.464112686E0,3.527648007E0,9.978771293E0
4.276373417E0,9.044707645E0,1.761375482E0,5.079555175E0,1.052193237E1
4.286358417E0,8.599156829E0,1.930062830E0,6.434698273E0,1.091219421E1
4.296344417E0,8.088955103E0,1.984655651E0,7.708656875E0,1.134871991E1
4.306329417E0,7.518272703E0,2.076860687E0,8.853410137E0,1.179917988E1
4.316315417E0,6.909448330E0,2.077112848E0,9.870590018E0,1.222634129E1
4.326300417E0,6.047310296E0,2.327422795E0,1.101390194E1,1.277861083E1
4.336286417E0,4.866162209E0,2.432170839E0,1.196085618E1,1.313990373E1
4.346271417E0,3.596006636E0,2.136567191E0,1.218532611E1,1.288325873E1
4.356257417E0,2.611106602E0,1.903705920E0,1.213101483E1,1.255402305E1
4.366242417E0,1.896903416E0,1.724082818E0,1.224417249E1,1.250961486E1
4.376227417E0,1.495592926E0,1.406421425E0,1.233212864E1,1.250184852E1
4.386213417E0,1.212002601E0,1.002870428E0,1.239759875E1,1.249700581E1
4.396198417E0,6.487851217E-1,7.508164036E-1,1.238946176E1,1.242913554E1
4.406184417E0,7.366724275E-3,5.484012563E-1,1.227156552E1,1.228381531E1
4.416169417E0,-6.374105331E-1,3.221028278E-1,1.245819344E1,1.247864681E1
4.426155417E0,-1.692049432E0,9.594946498E-2,1.324524621E1,1.335323125E1
4.436140417E0,-3.063707990E0,-2.307244602E-1,1.431122637E1,1.463730647E1
4.446126417E0,-4.166513035E0,-1.033006539E0,1.527412246E1,1.586586746E1
4.456111417E0,-5.134873343E0,-2.106728703E0,1.589251229E1,1.683381053E1
4.466097417E0,-5.967938436E0,-3.494698362E0,1.620248722E1,1.761674766E1
4.476082417E0,-6.691678138E0,-5.061786071E0,1.598465037E1,1.805295771E1
4.486068417E0,-7.631970642E0,-6.451118424E0,1.521817513E1,1.820595394E1
4.496053417E0,-8.616414886E0,-7.656664603E0,1.421901578E1,1.830430354E1
4.506039417E0,-9.540948558E0,-8.579851077E0,1.336157540E1,1.852498964E1
4.516024417E0,-1.021960447E1,-9.394159471E0,1.258376006E1,1.873610325E1
4.526009417E0,-1.027369473E1,-1.001832460E1,1.175242516E1,1.854818396E1
4.535995417E0,-9.588819712E0,-1.062832134E1,1.116526881E1,1.815406031E1
4.545980417E0,-8.732121343E0,-1.136049565E1,1.043274601E1,1.772436159E1
4.555966417E0,-7.960336239E0,-1.199164060E1,9.365493497E0,1.717203732E1
4.565951417E0,-7.488401617E0,-1.293619514E1,8.229863645E0,1.706317553E1
4.575937417E0,-7.684044775E0,-1.389297153E1,6.688186181E0,1.722762422E1
4.585922417E0,-8.181083248E0,-1.446162027E1,4.946004184E0,1.733584556E1
4.595908417E0,-8.447072504E0,-1.495870259E1,3.678350050E0,1.756832594E1
4.605893417E0,-8.463264613E0,-1.530437829E1,2.501777995E0,1.766662774E1
4.615879417E0,-8.234555451E0,-1.573214421E1,1.328517217E0,1.780655000E1
4.625864417E0,-7.950583084E0,-1.645486708E1,3.549248207E-1,1.827841333E1
4.635849417E0,-7.851354665E0,-1.691491899E1,-9.122720611E-1,1.867057832E1
4.645835417E0,-7.655833713E0,-1.640813964E1,-2.427482688E0,1.826831981E1
4.655820417E0,-7.271592708E0,-1.588405488E1,-3.197898958E0,1.775966828E1
4.665806417E0,-6.768818116E0,-1.576317422E1,-3.363975086E0,1.748173013E1
4.675791417E0,-6.295373157E0,-1.566980120E1,-3.327351635E0,1.721178845E1
4.685777417E0,-5.987148879E0,-1.551156970E1,-3.434930463E0,1.697802973E1
4.695762417E0,-6.020586766E0,-1.528991345E1,-3.931898770E0,1.689641223E1
4.705748417E0,-6.521047615E0,-1.539658420E1,-4.480939748E0,1.731062356E1
4.715733417E0,-7.244114302E0,-1.563621596E1,-5.086160774E0,1.796767857E1
4.725719417E0,-7.930099702E0,-1.586758444E1,-5.837574179E0,1.867468847E1
4.735704417E0,-8.233600600E0,-1.652593882E1,-6.387896574E0,1.953724790E1
4.745689417E0,-8.026723187E0,-1.717136384E1,-6.639822106E0,2.008410463E1
4.755675417E0,-7.211805512E0,-1.711245899E1,-6.604777989E0,1.970962921E1
4.765660417E0,-6.120846634E0,-1.697357826E1,-5.926316201E0,1.899179681E1
4.775646417E0,-4.886368140E0,-1.696240657E1,-4.964651540E0,1.833705525E1
4.785631417E0,-2.928722093E0,-1.680969250E1,-4.294191667E0,1.759497818E1
4.795617417E0,-5.064306002E-1,-1.629984219E1,-3.949363233E0,1.677911790E1
4.805602417E0,1.694961783E0,-1.581802812E1,-3.702375090E0,1.633372249E1
4.815588417E0,3.075498901E0,-1.534827684E1,-3.635877630E0,1.607009339E1
4.825573417E0,3.600424792E0,-1.499142478E1,-3.704265495E0,1.585646425E1
4.835559417E0,3.681341778E0,-1.495770506E1,-3.859390957E0,1.588017999E1
4.845544417E0,4.043726184E0,-1.486072899E1,-4.162832798E0,1.595375079E1
4.855530417E0,4.447162430E0,-1.459239090E1,-4.326372111E0,1.585662706E1
4.865515417E0,4.617312897E0,-1.458970586E1,-4.612814049E0,1.598302690E1
4.875500417E0,5.083584491E0,-1.466268847E1,-5.041383966E0,1.631725518E1
4.885486417E0,5.502021183E0,-1.440820595E1,-5.145087844E0,1.625855359E1
4.895471417E0,5.666102825E0,-1.376221492E1,-4.797998877E0,1.563726555E1
4.905457417E0,5.579773364E0,-1.316444237E1,-3.952225153E0,1.483430138E1
4.915442417E0,5.156938981E0,-1.299362649E1,-2.903035567E0,1.427781372E1
4.925428417E0,5.196694200E0,-1.294033964E1,-2.527863885E0,1.417208935E1
4.935413417E0,5.627648027E0,-1.280861357E1,-2.743408919E0,1.425683332E1
4.945399417E0,5.981596363E0,-1.248832532E1,-2.951875606E0,1.415808369E1
4.955384417E0,6.442370989E0,-1.180563716E1,-2.949702780E0,1.376873121E1
4.965370417E0,7.405788061E0,-1.107248169E1,-2.605323998E0,1.357325534E1
4.975355417E0,8.281255408E0,-1.092057570E1,-1.932827539E0,1.384102551E1
4.985341417E0,8.632837375E0,-1.105023654E1,-1.312277745E0,1.408388020E1
4.995326417E0,8.998561419E0,-1.098719537E1,-9.094501948E-1,1.423094056E1
5.005311417E0,9.302993778E0,-1.062844179E1,-4.052909821E-1,1.413059549E1
5.015297417E0,9.886496783E0,-1.005500769E1,3.158841312E-1,1.410481411E1
5.025282417E0,1.111653929E1,-9.425757825E0,1.311787164E0,1.463363051E1
5.035268417E0,1.242307039E1,-8.199113138E0,2.334638844E0,1.506680698E1
5.045253417E0,1.330145082E1,-7.500749767E0,3.904630864E0,1.576185215E1
5.055239417E0,1.316319925E1,-7.538833852E0,5.986961183E0,1.630789792E1
5.065224417E0,1.269847074E1,-7.093889977E0,7.644362061E0,1.643200248E1
5.075210417E0,1.330929193E1,-6.199546648E0,8.904372715E0,1.717147297E1
5.085195417E0,1.401974150E1,-5.772343225E0,9.959797479E0,1.814030496E1
5.095181167E0,1.363045025E1,-5.184027961E0,9.975073915E0,1.766820363E1
5.105166167E0,1.249260431E1,-4.953012072E0,1.001263643E1,1.675859121E1
5.115152167E0,1.056725419E1,-5.614764272E0,1.051134311E1,1.592735926E1
5.125137167E0,8.264517168E0,-6.039767972E0,1.038929652E1,1.458487310E1
5.135122167E0,6.910571580E0,-6.262156295E0,1.046909581E1,1.402043395E1
5.145108167E0,6.772769664E0,-5.872532342E0,1.077524667E1,1.401652545E1
5.155093167E0,7.404026295E0,-4.223481288E0,1.112127085E1,1.401213991E1
5.165079167E0,7.543971800E0,-3.060397882E0,1.280807563E1,1.517644052E1
5.175064167E0,6.276250423E0,-2.377589712E0,1.480761288E1,1.625760288E1
5.185050167E0,3.390135236E0,-1.709178704E0,1.570472077E1,1.615712113E1
5.195035167E0,-1.290095455E0,-2.640632409E0,1.675159106E1,1.700744216E1
5.205021167E0,-7.289008055E0,-3.729616683E0,1.769243028E1,1.949517294E1
5.215006167E0,-1.386348168E1,-4.095229922E0,1.733150037E1,2.256873805E1
5.224992167E0,-1.967243549E1,-4.293308153E0,1.548116768E1,2.539889301E1
5.234977167E0,-2.277010557E1,-4.335325660E0,1.266385639E1,2.641298951E1
5.244963167E0,-2.231654407E1,-3.680786878E0,9.716943902E0,2.461697240E1
5.254948167E0,-1.922733140E1,-2.649603500E0,7.431442720E0,2.078309439E1
5.264933167E0,-1.557664804E1,-1.570201936E0,5.722088746E0,1.666852716E1
5.274919167E0,-1.271238126E1,-1.690300310E-1,4.153290727E0,1.337471616E1
5.284904167E0,-1.122505425E1,9.438796239E-1,3.365578392E0,1.175669467E1
5.294890167E0,-1.077205642E1,1.493039739E0,3.554967368E0,1.144133560E1
5.304875167E0,-1.022605746E1,1.779287112E0,4.376699388E0,1.126470645E1
5.314861167E0,-9.560091172E0,1.738850253E0,4.817763636E0,1.084572680E1
5.324846167E0,-8.747639853E0,1.554728010E0,4.586914392E0,9.998908232E0
5.334832167E0,-7.629500778E0,1.677902678E0,4.117690539E0,8.830629360E0
5.344817167E0,-6.187545823E0,1.655543949E0,3.150108495E0,7.137908140E0
5.354803167E0,-4.863043304E0,1.540005014E0,1.995699141E0,5.477556087E0
5.364788167E0,-4.021724281E0,1.286142591E0,1.111621769E0,4.366249182E0
5.374773167E0,-3.075055682E0,1.061014410E0,5.197496438E-1,3.294215949E0
5.384759167E0,-2.481924943E0,8.089286640E-1,8.180897892E-2,2.611706285E0
5.394744167E0,-2.323442303E0,5.305776274E-1,-1.587899119E-1,2.388537416E0
5.404730167E0,-2.364135708E0,2.396286184E-1,-3.080137789E-1,2.396128546E0
5.414715167E0,-2.276353506E0,6.536395898E-2,-4.409326851E-1,2.319586033E0
5.424701167E0,-1.945877063E0,2.405031061E-2,-5.631488478E-1,2.025870822E0
5.434686167E0,-1.462810950E0,1.070575850E-2,-6.689337498E-1,1.608540596E0
5.444672167E0,-1.052518552E0,-7.057094106E-2,-8.272161233E-1,1.340545439E0
5.454657167E0,-8.726598063E-1,-1.585282672E-1,-1.072691007E0,1.391880866E0
5.464643167E0,-8.044811256E-1,-2.605330357E-1,-1.295398003E0,1.546972311E0
5.474628167E0,-7.246376882E-1,-2.922368582E-1,-1.453745865E0,1.650417887E0
5.484614167E0,-3.127266713E-1,-3.805681869E-1,-1.561674941E0,1.637516027E0
5.494599167E0,9.871162753E-1,-3.891304841E-1,-1.823462972E0,2.109700994E0
5.504585167E0,2.417461730E0,-1.827942305E-1,-2.069715536E0,3.187672716E0
5.514570167E0,2.937965080E0,4.313335670E-3,-1.990579904E0,3.548811881E0
5.524555167E0,3.135727268E0,2.420261596E-1,-1.448938869E0,3.462771435E0
5.534541167E0,3.542488825E0,6.535978919E-1,-5.277673459E-1,3.640735592E0
5.544526167E0,4.044606190E0,1.194899130E0,7.644474328E-1,4.286140810E0
5.554512167E0,4.636521000E0,1.753019957E0,2.391410630E0,5.503567094E0
5.564497167E0,5.330104857E0,2.249459237E0,4.136309828E0,7.111901549E0
5.574483167E0,6.187288545E0,2.888662527E0,5.792989159E0,8.954643161E0
5.584468167E0,6.668437795E0,3.190598710E0,7.137256436E0,1.027562223E1
5.594454167E0,6.580789202E0,3.001979227E0,8.162425953E0,1.090613879E1
5.604439167E0,6.395112038E0,3.046197626E0,8.801650584E0,1.129804545E1
5.614425167E0,6.663449535E0,3.124240998E0,9.347899809E0,1.189729685E1
5.624410167E0,7.048709711E0,2.816367260E0,9.973442541E0,1.253338698E1
5.634395167E0,7.077192083E0,2.664842221E0,1.029659593E1,1.277528550E1
5.644381167E0,7.025848267E0,2.681738335E0,1.061409740E1,1.300820234E1
5.654366167E0,6.791660848E0,2.519657318E0,1.121926551E1,1.335467142E1
5.664352167E0,6.300491225E0,2.393105007E0,1.181323152E1,1.360057279E1
5.674337167E0,5.680347227E0,2.130682845E0,1.239805015E1,1.380281861E1
5.684323167E0,4.851736836E0,1.668458255E0,1.301382511E1,1.398866496E1
5.694308167E0,3.976545477E0,1.353016612E0,1.341305429E1,1.405537595E1
5.704294167E0,3.178461059E0,9.369633910E-1,1.353815196E1,1.393779299E1
5.714279167E0,2.559942588E0,4.579719101E-1,1.354001020E1,1.378749145E1
5.724265167E0,2.237331235E0,-2.841030523E-2,1.340625046E1,1.359168899E1
5.734250167E0,2.005959250E0,-5.330414613E-1,1.308243400E1,1.324605923E1
5.744236167E0,1.750796992E0,-1.149447115E0,1.268227863E1,1.285405422E1
5.754221167E0,1.302503832E0,-1.904119903E0,1.245988680E1,1.267166003E1
5.764206167E0,3.752593171E-1,-2.754757195E0,1.215447035E1,1.246838627E1
5.774192167E0,-1.250986500E0,-3.824904079E0,1.153745929E1,1.221915813E1
5.784177167E0,-3.389777971E0,-4.941970775E0,1.101576837E1,1.254036773E1
5.794163167E0,-5.491225469E0,-5.983027761E0,1.067544639E1,1.341325218E1
5.804148167E0,-7.136595701E0,-7.149257846E0,1.048628896E1,1.456039636E1
5.814134167E0,-8.256613487E0,-8.472468131E0,1.024444345E1,1.564937711E1
5.824119167E0,-9.305482938E0,-9.503212967E0,9.528975214E0,1.636167589E1
5.834105167E0,-1.030520654E1,-1.003119315E1,8.495328990E0,1.670307554E1
5.844090167E0,-1.126145902E1,-1.040172887E1,7.295392045E0,1.697760783E1
5.854076167E0,-1.195837930E1,-1.081646018E1,5.868690721E0,1.715925922E1
5.864061167E0,-1.242805573E1,-1.136965707E1,4.355513172E0,1.739816559E1
5.874047167E0,-1.283749765E1,-1.193432034E1,2.802841188E0,1.775064130E1
5.884032167E0,-1.299169808E1,-1.233816297E1,1.356450536E0,1.796815078E1
5.894017167E0,-1.298993690E1,-1.234634673E1,1.156123173E-1,1.792160998E1
5.904003167E0,-1.285300095E1,-1.205264928E1,-8.886405391E-1,1.764243946E1
5.913988167E0,-1.242545956E1,-1.174207910E1,-1.426304297E0,1.715525607E1
5.923974167E0,-1.189873653E1,-1.148459579E1,-1.558527385E0,1.661038467E1
5.933959167E0,-1.135417013E1,-1.129092899E1,-1.881521730E0,1.612272870E1
5.943945167E0,-1.050359087E1,-1.124654160E1,-2.251822389E0,1.555251823E1
5.953930167E0,-9.643280679E0,-1.129750126E1,-2.302833499E0,1.503094937E1
5.963916167E0,-8.774365137E0,-1.144238240E1,-2.390247034E0,1.461611711E1
5.973901167E0,-7.591445929E0,-1.163429620E1,-2.471611040E0,1.411012971E1
5.983887167E0,-6.614896011E0,-1.197921293E1,-2.256234114E0,1.386899362E1
5.993872167E0,-6.144433132E0,-1.247394467E1,-2.050661214E0,1.405555284E1
6.003857167E0,-6.084736569E0,-1.253167540E1,-2.155033429E0,1.409649164E1
6.013843167E0,-6.103313758E0,-1.261846679E1,-2.091666568E0,1.417219856E1
6.023828167E0,-6.177123746E0,-1.302428695E1,-1.999712085E0,1.455292949E1
6.033814167E0,-6.158872247E0,-1.340134114E1,-2.076698281E0,1.489430520E1
6.043799167E0,-5.876397936E0,-1.374716419E1,-2.242066018E0,1.511765312E1
6.053785167E0,-5.421957014E0,-1.397512608E1,-2.431989722E0,1.518605744E1
6.063770167E0,-4.737693326E0,-1.395680675E1,-2.573935559E0,1.496206326E1
6.073756167E0,-4.060411507E0,-1.401643782E1,-2.512118211E0,1.480737008E1
6.083741167E0,-3.483250684E0,-1.414503798E1,-2.441205518E0,1.477073522E1
6.093727458E0,-2.744589472E0,-1.423406885E1,-2.331442463E0,1.468254445E1
6.103712458E0,-1.918723763E0,-1.426515850E1,-2.219336429E0,1.456371182E1
6.113698458E0,-1.258783323E0,-1.429592772E1,-2.249668129E0,1.452649618E1
6.123683458E0,-6.227946136E-1,-1.431107434E1,-2.470183734E0,1.453604243E1
6.133668458E0,-4.170818925E-3,-1.414989467E1,-2.875433201E0,1.443910152E1
6.143654458E0,7.052661552E-1,-1.412394473E1,-3.231178971E0,1.450598954E1
6.153639458E0,1.530783809E0,-1.437382900E1,-3.723743740E0,1.492704012E1
6.163625458E0,2.580620096E0,-1.452989820E1,-4.537224753E0,1.543903981E1
6.173610458E0,3.442313742E0,-1.444570531E1,-5.225655459E0,1.574278885E1
6.183596458E0,4.188930091E0,-1.433940527E1,-5.529139985E0,1.592912640E1
6.193581458E0,4.585999888E0,-1.422035830E1,-5.454807841E0,1.590612818E1
6.203567458E0,4.079600899E0,-1.364029580E1,-5.269165760E0,1.518107113E1
6.213552458E0,3.129599094E0,-1.306430997E1,-4.870707834E0,1.428965991E1
6.223538458E0,1.876127966E0,-1.270900742E1,-4.622670408E0,1.365312446E1
6.233523458E0,7.058510229E-1,-1.294411578E1,-4.696404382E0,1.378784149E1
6.243509458E0,5.025845575E-1,-1.320903791E1,-4.957015661E0,1.411748130E1
6.253494458E0,1.708392692E0,-1.297328870E1,-4.755137325E0,1.392250539E1
6.263479458E0,3.584941950E0,-1.284911840E1,-4.278500664E0,1.400918343E1
6.273465458E0,5.930250208E0,-1.275407425E1,-4.168006999E0,1.466992024E1
6.283450458E0,8.696623482E0,-1.190170107E1,-4.110977935E0,1.530300258E1
6.293436458E0,1.067143754E1,-1.077408658E1,-3.623137717E0,1.559126831E1
6.303421458E0,1.115195938E1,-9.877340044E0,-2.991874069E0,1.519471470E1
6.313407458E0,1.087173157E1,-9.201873200E0,-2.289625808E0,1.442606683E1
6.323392458E0,1.045315630E1,-8.703645988E0,-9.232502085E-1,1.363357330E1
6.333378458E0,9.896132995E0,-8.138086917E0,5.966551477E-1,1.282645330E1
6.343363458E0,1.002921913E1,-7.143139905E0,1.610025567E0,1.241780441E1
6.353349458E0,1.106568956E1,-6.124291813E0,2.602175857E0,1.291231021E1
6.363334458E0,1.212107690E1,-5.653544176E0,3.590936515E0,1.384838951E1
6.373320458E0,1.319438245E1,-5.405065577E0,4.360036578E0,1.491027770E1
6.383305458E0,1.416181364E1,-5.519451149E0,5.480348479E0,1.615721282E1
6.393290458E0,1.414438426E1,-5.973406752E0,6.495501130E0,1.667143453E1
6.403276458E0,1.306063909E1,-5.457057264E0,6.947449384E0,1.576790475E1
6.413261458E0,1.152694015E1,-4.663484851E0,7.864396879E0,1.471282361E1
6.423247458E0,9.412273561E0,-3.326900522E0,8.745690976E0,1.327201082E1
6.433232458E0,6.595416597E0,-2.769155964E0,1.018843180E1,1.244877051E1
6.443218458E0,3.476992409E0,-3.705266246E0,1.246877340E1,1.346435235E1
6.453203458E0,1.067095660E0,-4.529100924E0,1.424663101E1,1.498725937E1
6.463189458E0,-5.946428284E-1,-4.950260957E0,1.504023149E1,1.584510167E1
6.473174458E0,-1.503356274E0,-5.066120612E0,1.501856171E1,1.592114487E1
6.483160458E0,-1.862192297E0,-4.511055540E0,1.410430627E1,1.492477262E1
6.493145458E0,-2.647295604E0,-3.702768608E0,1.314984889E1,1.391535825E1
6.503131458E0,-3.500735905E0,-2.902069023E0,1.253646895E1,1.333567434E1
6.513116458E0,-4.642959369E0,-1.881175429E0,1.163518030E1,1.266780618E1
6.523101458E0,-7.939267552E0,-1.504234672E0,1.099895412E1,1.364813844E1
6.533087458E0,-1.251071547E1,-1.445113913E0,1.070661673E1,1.652991221E1
6.543072458E0,-1.631937657E1,-1.459006020E0,1.084831113E1,1.965035890E1
6.553058458E0,-1.859786343E1,-9.125708538E-1,1.160117055E1,2.193856121E1
6.563043458E0,-1.806288413E1,3.307707768E-1,1.266794593E1,2.206476935E1
6.573029458E0,-1.489708697E1,1.411722950E0,1.367177019E1,2.026902716E1
6.583014458E0,-1.161357016E1,2.262217862E0,1.373544871E1,1.812884973E1
6.593000458E0,-8.800756545E0,2.365397683E0,1.227271041E1,1.528619778E1
6.602985458E0,-6.746291717E0,2.092970205E0,9.417416772E0,1.177203104E1
6.612971458E0,-5.639544187E0,2.045701167E0,6.056125558E0,8.524435974E0
6.622956458E0,-5.740416259E0,1.837061988E0,3.403705162E0,6.921877231E0
6.632942458E0,-6.207739767E0,1.316785217E0,1.941275012E0,6.636151369E0
6.642927458E0,-6.214322562E0,8.378415374E-1,1.215633211E0,6.387295786E0
6.652912458E0,-5.719817687E0,5.558312036E-1,1.109672892E0,5.852916933E0
6.662898458E0,-4.645199145E0,5.487151422E-1,1.225588095E0,4.835393426E0
6.672883458E0,-3.537278956E0,5.221732781E-1,1.210266051E0,3.774884271E0
6.682869458E0,-2.656048009E0,2.911938976E-1,1.034476529E0,2.865227146E0
6.692854458E0,-2.004406230E0,1.330759040E-1,6.929564506E-1,2.124980511E0
6.702840458E0,-1.462335425E0,-3.132859575E-2,2.407123268E-1,1.482345709E0
6.712825458E0,-1.008009108E0,-2.442501115E-1,-4.085660076E-1,1.114749596E0
6.722811458E0,-7.781484823E-1,-4.847201443E-1,-1.202076441E0,1.511772618E0
6.732796458E0,-7.712384621E-1,-7.328218898E-1,-1.992999482E0,2.259177643E0
6.742782458E0,-7.261836190E-1,-1.006543430E0,-2.702059164E0,2.973482142E0
6.752767458E0,-5.110931334E-1,-1.256159678E0,-3.322807764E0,3.588900216E0
6.762753458E0,-2.046532787E-2,-1.360677926E0,-3.744496093E0,3.984107709E0
6.772738458E0,5.584585038E-1,-1.364389885E0,-3.986074392E0,4.249967614E0
6.782723458E0,1.138841216E0,-1.357034526E0,-4.107821023E0,4.473555139E0
6.792709458E0,1.699590586E0,-1.406264428E0,-3.910583330E0,4.489860775E0
6.802694458E0,2.382818439E0,-1.327770820E0,-3.376612673E0,4.340773227E0
6.812680458E0,3.220394951E0,-1.076031814E0,-2.998825239E0,4.530092816E0
6.822665458E0,4.041286726E0,-9.210585259E-1,-2.790383695E0,4.996657721E0
6.832651458E0,4.787375071E0,-8.040170029E-1,-2.575317841E0,5.495240249E0
6.842636458E0,5.631567416E0,-5.451346362E-1,-2.119961829E0,6.042016343E0
6.852622458E0,6.542172436E0,-1.952729744E-1,-1.367338051E0,6.686386547E0
6.862607458E0,7.368786296E0,2.165492563E-2,-4.484282309E-1,7.382450019E0
6.872593458E0,8.106038328E0,2.155053090E-1,5.211670089E-1,8.125633204E0
6.882578458E0,8.400196545E0,4.660695729E-1,1.366283213E0,8.523335771E0
6.892564458E0,8.308940805E0,8.465580549E-1,2.217924911E0,8.641432100E0
6.902549458E0,8.166676294E0,1.133426256E0,3.375908668E0,8.909321865E0
6.912534458E0,8.275494731E0,1.404719155E0,4.617203554E0,9.579959165E0
6.922520458E0,8.663308386E0,1.475164947E0,5.879966492E0,1.057369518E1
6.932505458E0,8.974729337E0,1.650643251E0,7.131420915E0,1.158134509E1
6.942491458E0,8.806672758E0,1.761655710E0,8.357311896E0,1.226807149E1
6.952476458E0,8.163957923E0,1.679961336E0,9.685632062E0,1.277826074E1
6.962462458E0,7.282040513E0,1.500578116E0,1.108364168E1,1.334642131E1
6.972447458E0,6.537575355E0,1.372709888E0,1.248051227E1,1.415582602E1
6.982433458E0,5.787821975E0,9.854580049E-1,1.399076036E1,1.517271848E1
6.992418458E0,4.941508260E0,4.281285985E-1,1.514492939E1,1.593645771E1
7.002404458E0,4.173337613E0,-2.202641020E-1,1.560766635E1,1.615749089E1
7.012389458E0,3.410064009E0,-9.222355704E-1,1.536856434E1,1.576933179E1
7.022375458E0,2.364744695E0,-1.609031102E0,1.500134049E1,1.527158194E1
7.032360458E0,9.061490761E-1,-2.298914695E0,1.508778573E1,1.528879959E1
7.042345458E0,-8.112756633E-1,-2.960371610E0,1.530279486E1,1.560761029E1
7.052331458E0,-2.463736594E0,-3.738230217E0,1.540392129E1,1.604135762E1
7.062316458E0,-4.143572946E0,-4.563218551E0,1.526699119E1,1.646430018E1
7.072302458E0,-5.947160355E0,-5.343136547E0,1.463873009E1,1.667963558E1
7.082287458E0,-7.885932174E0,-6.237592142E0,1.369247050E1,1.698761992E1
7.092273458E0,-9.913549511E0,-7.215053641E0,1.281815389E1,1.773810960E1
7.102257708E0,-1.131233447E1,-8.259631820E0,1.204484558E1,1.847346026E1
7.112243708E0,-1.239205676E1,-9.038820083E0,1.090071622E1,1.881725148E1
7.122228708E0,-1.309829516E1,-9.394344828E0,9.715424795E0,1.882042852E1
7.132214708E0,-1.296885184E1,-9.840403183E0,9.068060839E0,1.863476268E1
7.142199708E0,-1.286586015E1,-1.029198365E1,8.583280469E0,1.857762063E1
7.152185708E0,-1.321032781E1,-1.068002593E1,7.914216911E0,1.874061216E1
7.162170708E0,-1.352524949E1,-1.132322199E1,7.310594805E0,1.909430612E1
7.172156708E0,-1.365838006E1,-1.198646230E1,6.669955732E0,1.935755496E1
7.182141708E0,-1.374693848E1,-1.248996371E1,5.623426337E0,1.940619578E1
7.192126708E0,-1.345136641E1,-1.282461623E1,4.289569443E0,1.907381571E1
7.202112708E0,-1.286725530E1,-1.335532356E1,2.906049807E0,1.877168217E1
7.212097708E0,-1.244462907E1,-1.358850116E1,1.089081922E0,1.845812168E1
7.222083708E0,-1.218486535E1,-1.326047002E1,-5.687674373E-1,1.801761652E1
7.232068708E0,-1.199261241E1,-1.344007310E1,-1.222255767E0,1.805414707E1
7.242054708E0,-1.207974411E1,-1.420002402E1,-1.386688242E0,1.869448593E1
7.252039708E0,-1.216822885E1,-1.471463046E1,-1.676194414E0,1.916757080E1
7.262025708E0,-1.216993858E1,-1.465803409E1,-2.153440062E0,1.917296723E1
7.272010708E0,-1.192155353E1,-1.450147021E1,-2.507279055E0,1.893944363E1
7.281996708E0,-1.096650324E1,-1.464336927E1,-2.368399205E0,1.844727003E1
7.291981708E0,-9.594171669E0,-1.483957727E1,-2.188540606E0,1.780592299E1
7.301967708E0,-8.126353894E0,-1.523640090E1,-2.144514288E0,1.740070348E1
7.311952708E0,-6.729996112E0,-1.575758662E1,-2.182239938E0,1.727300075E1
7.321937708E0,-5.773779302E0,-1.619394210E1,-2.369492634E0,1.735496423E1
7.331923708E0,-5.276629146E0,-1.664395668E1,-2.644165590E0,1.765943716E1
7.341908708E0,-4.760528750E0,-1.719489888E1,-2.882991020E0,1.807315188E1
7.351894708E0,-3.806164045E0,-1.709784797E1,-3.066521086E0,1.778276810E1
7.361879708E0,-2.417480148E0,-1.652323741E1,-2.854786975E0,1.694141061E1
7.371865708E0,-8.717477868E-1,-1.631386031E1,-2.281583548E0,1.649568446E1
7.381850708E0,2.963035601E-1,-1.635345415E1,-1.853386683E0,1.646081105E1
7.391836708E0,7.934904798E-1,-1.639599498E1,-1.616826464E0,1.649461749E1
7.401821708E0,7.248120815E-1,-1.637984848E1,-1.687763130E0,1.648251598E1
7.411807708E0,6.537539394E-1,-1.644525660E1,-2.231532259E0,1.660884087E1
7.421792708E0,7.440745640E-1,-1.671654402E1,-2.822015670E0,1.696939195E1
7.431777708E0,8.915831503E-1,-1.717671521E1,-3.357204010E0,1.752441967E1
7.441763708E0,1.726998093E0,-1.742968915E1,-4.113439905E0,1.799158065E1
7.451748708E0,2.943424040E0,-1.748801863E1,-4.731721857E0,1.835439273E1
7.461734708E0,3.896692392E0,-1.747664463E1,-5.162637677E0,1.863518572E1
7.471719708E0,4.628981308E0,-1.728002850E1,-5.625319081E0,1.875289491E1
7.481705708E0,5.227353491E0,-1.704949851E1,-5.689005200E0,1.871831734E1
7.491690708E0,5.485325044E0,-1.673621522E1,-5.166037248E0,1.835422653E1
7.501676708E0,6.153056606E0,-1.608223339E1,-4.527184792E0,1.780431797E1
7.511661708E0,6.939517052E0,-1.553649755E1,-3.768109488E0,1.742808945E1
7.521647708E0,6.432556438E0,-1.494327296E1,-2.875227964E0,1.652108123E1
7.531632708E0,5.476964695E0,-1.439547890E1,-2.069042521E0,1.554052419E1
7.541618708E0,4.520852550E0,-1.407699276E1,-1.520243325E0,1.486307413E1
7.551603708E0,4.627004657E0,-1.375954859E1,-1.842212654E0,1.463311645E1
7.561589708E0,6.209299804E0,-1.317862070E1,-2.471470706E0,1.477631940E1
7.571574708E0,7.988236814E0,-1.233871846E1,-2.162036054E0,1.485699500E1
7.581559708E0,9.449797482E0,-1.139788275E1,-9.456602472E-1,1.483592521E1
7.591545708E0,1.092980027E1,-1.030414586E1,3.588816315E-1,1.502547010E1
7.601530708E0,1.221840732E1,-9.369587717E0,1.696191891E0,1.549050413E1
7.611516708E0,1.251169079E1,-8.956325811E0,2.546225020E0,1.559619955E1
7.621501708E0,1.264155511E1,-8.491211965E0,2.676465901E0,1.546198778E1
7.631487708E0,1.277084991E1,-7.684119034E0,2.167485074E0,1.506115150E1
7.641472708E0,1.274383811E1,-6.485394217E0,8.076226884E-1,1.432194129E1
7.651458708E0,1.313069575E1,-5.214038211E0,3.731938612E-1,1.413296285E1
7.661443708E0,1.306091274E1,-4.409428301E0,1.460611666E0,1.386231892E1
7.671429708E0,1.290431144E1,-4.273069477E0,3.735212469E0,1.409724046E1
7.681414708E0,1.320435897E1,-4.293764820E0,6.687324302E0,1.541141845E1
7.691399708E0,1.344105309E1,-4.630913520E0,9.019667528E0,1.683631998E1
7.701385708E0,1.357654477E1,-4.555109340E0,1.009986285E1,1.752366453E1
7.711370708E0,1.336957790E1,-3.522716758E0,9.977602251E0,1.705015229E1
7.721356708E0,1.258837468E1,-1.797209266E0,8.967086442E0,1.555974863E1
7.731341708E0,1.039104367E1,-2.042524083E0,9.474048225E0,1.420926750E1
7.741327708E0,6.771808382E0,-3.554244360E0,1.150232220E1,1.381280051E1
7.751312708E0,2.682687923E0,-4.371581320E0,1.326907245E1,1.422588561E1
7.761298708E0,-2.957501212E-1,-5.491143608E0,1.431718702E1,1.533694789E1
7.771283708E0,-2.069242642E0,-6.265882140E0,1.438522288E1,1.582648671E1
7.781269708E0,-2.816451752E0,-5.511783110E0,1.377585531E1,1.510252770E1
7.791254708E0,-2.940218596E0,-3.597742090E0,1.295621951E1,1.376416571E1
7.801240708E0,-3.352233000E0,-1.916691125E0,1.216143205E1,1.275976490E1
7.811225708E0,-4.353377184E0,-8.937804609E-1,1.121204654E1,1.206070993E1
7.821211708E0,-6.459590455E0,-5.587943532E-1,1.036324951E1,1.222438139E1
7.831196708E0,-9.897414705E0,-9.894292876E-1,9.559552644E0,1.379575423E1
7.841181708E0,-1.414766221E1,-1.844440735E0,8.611347688E0,1.666474172E1
7.851167708E0,-1.852071644E1,-2.825754380E0,8.203361140E0,2.045230939E1
7.861152708E0,-2.107253725E1,-2.832327235E0,7.783461474E0,2.264191193E1
7.871138708E0,-2.049320447E1,-2.245192962E0,7.395913283E0,2.190232532E1
7.881123708E0,-1.762014115E1,-1.771157874E0,6.867226170E0,1.899381925E1
7.891109708E0,-1.386115800E1,-9.561823118E-1,5.986547785E0,1.512893717E1
7.901094708E0,-1.059317139E1,-2.831558034E-1,5.027838306E0,1.172922057E1
7.911080708E0,-8.675158938E0,7.117793687E-2,4.555530632E0,9.798791161E0
7.921065708E0,-8.070355695E0,2.519770608E-1,4.711451315E0,9.348363866E0
7.931051708E0,-8.101488610E0,2.701399744E-1,4.881662008E0,9.462437174E0
7.941036708E0,-8.134896092E0,1.436822781E-1,4.548278330E0,9.321159520E0
7.951022708E0,-7.566109943E0,-5.178049330E-2,3.697748188E0,8.421522580E0
7.961007708E0,-6.572883182E0,-2.443542285E-1,2.538391505E0,7.050243523E0
7.970992708E0,-5.489623917E0,-5.108760555E-1,1.434130211E0,5.696814422E0
7.980978708E0,-4.394800029E0,-6.979262184E-1,4.647489792E-1,4.474076431E0
7.990963708E0,-3.291008851E0,-7.315353562E-1,-3.902145213E-1,3.393840097E0
8.000949708E0,-2.193364997E0,-8.026361829E-1,-1.157612459E0,2.606749213E0
8.010934708E0,-1.101411434E0,-9.027057970E-1,-1.868717498E0,2.349487176E0
8.020920708E0,5.132247359E-3,-8.127292811E-1,-2.388052574E0,2.522568199E0
8.030905708E0,8.498476984E-1,-5.171892212E-1,-2.409659205E0,2.606949038E0
8.040891708E0,1.472026893E0,-1.129486365E-1,-2.034871393E0,2.514025090E0
8.050876708E0,2.126784945E0,3.449588994E-1,-1.535539641E0,2.645768855E0
8.060862708E0,2.772405846E0,8.247251364E-1,-8.333954608E-1,3.010141811E0
8.070847708E0,3.694463807E0,1.316356616E0,3.092884719E-1,3.934147547E0
8.080833708E0,5.019610105E0,1.826373862E0,1.864850149E0,5.657719785E0
8.090818708E0,6.320919058E0,2.387375320E0,3.491163720E0,7.605379857E0
8.100804292E0,7.394752611E0,2.697381099E0,4.788828689E0,9.213637240E0
8.110790292E0,8.082930132E0,3.141482098E0,5.665664869E0,1.035868851E1
8.120775292E0,8.298332786E0,3.466091444E0,6.590991424E0,1.114976614E1
8.130761292E0,8.200712936E0,3.467813742E0,7.607070274E0,1.171088993E1
8.140746292E0,7.986507207E0,3.323701803E0,8.482660997E0,1.211556142E1
8.150732292E0,7.724335599E0,2.950467596E0,9.080871504E0,1.228140247E1
8.160717292E0,7.443970964E0,2.417601478E0,9.459594492E0,1.227768010E1
8.170703292E0,7.179082155E0,1.919215806E0,9.761095642E0,1.226790928E1
8.180688292E0,6.592493573E0,1.371106582E0,1.007838837E1,1.212084225E1
8.190674292E0,5.750095155E0,8.729167183E-1,1.042995455E1,1.194192320E1
8.200659292E0,4.706675309E0,4.636636264E-1,1.077398367E1,1.176632910E1
8.210645292E0,3.484954855E0,3.665694410E-2,1.110867595E1,1.164254850E1
8.220630292E0,2.277735203E0,-4.356894869E-1,1.131411554E1,1.154933389E1
8.230615292E0,1.286443577E0,-9.574112503E-1,1.139066144E1,1.150298836E1
8.240601292E0,4.357554142E-1,-1.692171931E0,1.117061902E1,1.130646089E1
8.250586292E0,9.799831107E-2,-2.469905407E0,1.064864392E1,1.093177267E1
8.260572292E0,-3.218474872E-1,-2.966262387E0,1.022298182E1,1.064949087E1
8.270557292E0,-1.024288268E0,-3.322183866E0,1.045802586E1,1.102072489E1
8.280543292E0,-1.797200788E0,-3.662730968E0,1.102412521E1,1.175486561E1
8.290528292E0,-3.053422446E0,-3.946765900E0,1.115835156E1,1.222330394E1
8.300514292E0,-4.420084266E0,-4.471336866E0,1.107424404E1,1.273455454E1
8.310499292E0,-5.615339638E0,-5.342201577E0,1.102869891E1,1.347973874E1
8.320485292E0,-6.623272147E0,-6.252120134E0,1.070440180E1,1.405492647E1
8.330470292E0,-7.814322494E0,-7.473770714E0,1.018097777E1,1.485170674E1
8.340456292E0,-9.093201528E0,-8.775809399E0,9.358690261E0,1.572533714E1
8.350441292E0,-1.008114708E1,-9.468885133E0,8.205900586E0,1.608185675E1
8.360426292E0,-1.063364698E1,-9.727614486E0,7.136289307E0,1.608190153E1
8.370412292E0,-1.072551727E1,-1.000153140E1,6.439830959E0,1.601682783E1
8.380397292E0,-1.064793641E1,-1.014667332E1,5.660878923E0,1.576004694E1
8.390383292E0,-1.039656578E1,-1.023494406E1,4.763725423E0,1.534717367E1
8.400368292E0,-1.012493220E1,-1.031134027E1,4.008838772E0,1.499695898E1
8.410354292E0,-1.008551262E1,-1.035106859E1,3.372569323E0,1.484036420E1
8.420339292E0,-1.018442295E1,-1.055408860E1,2.688957893E0,1.491112844E1
8.430325292E0,-1.020210493E1,-1.105213688E1,1.904455680E0,1.516112219E1
8.440310292E0,-9.982123318E0,-1.170881779E1,9.171609181E-1,1.541364280E1
8.450296292E0,-9.648909209E0,-1.224804101E1,-2.072802866E-1,1.559355388E1
8.460281292E0,-9.256748149E0,-1.276768306E1,-1.268708387E0,1.582121165E1
8.470267292E0,-9.147697577E0,-1.284888685E1,-2.397906302E0,1.595381518E1
8.480252292E0,-8.842232015E0,-1.200445302E1,-3.647250465E0,1.534908451E1
8.490237292E0,-8.330916395E0,-1.136430453E1,-4.190183149E0,1.470065373E1
8.500223292E0,-7.926566230E0,-1.121263243E1,-4.226730001E0,1.436728314E1
8.510208292E0,-7.451247239E0,-1.109151087E1,-4.120866162E0,1.398299813E1
8.520194292E0,-6.938401988E0,-1.107244426E1,-4.056569009E0,1.368196610E1
8.530179292E0,-6.845856351E0,-1.097444727E1,-4.000597122E0,1.353916613E1
8.540165292E0,-7.132808459E0,-1.068643214E1,-3.822212605E0,1.340470431E1
8.550150292E0,-7.639670255E0,-1.054585338E1,-3.303971251E0,1.343487295E1
8.560136292E0,-8.038857914E0,-1.056757111E1,-2.775002302E0,1.356456536E1
8.570121292E0,-7.996977816E0,-1.083991453E1,-2.526790044E0,1.370547588E1
8.580107292E0,-7.609009795E0,-1.147833225E1,-2.688828377E0,1.403135558E1
8.590092292E0,-7.396678684E0,-1.198060339E1,-3.378948635E0,1.447974472E1
8.600078292E0,-7.172290614E0,-1.249279376E1,-4.231409528E0,1.501387609E1
8.610063292E0,-6.731287762E0,-1.342797872E1,-4.899434620E0,1.579953502E1
8.620048292E0,-6.193932152E0,-1.408600566E1,-5.480328013E0,1.633445273E1
8.630034292E0,-5.567697110E0,-1.416870400E1,-5.841446205E0,1.630564068E1
8.640019292E0,-4.591368801E0,-1.405828284E1,-5.569999158E0,1.580319191E1
8.650005292E0,-3.395162380E0,-1.384243989E1,-4.802234015E0,1.504000403E1
8.659990292E0,-2.586871062E0,-1.362715126E1,-3.958456823E0,1.442430358E1
8.669976292E0,-2.110482762E0,-1.383448183E1,-3.283000504E0,1.437446059E1
8.679961292E0,-1.853616332E0,-1.422144588E1,-2.850560900E0,1.462228142E1
8.689947292E0,-1.311201126E0,-1.471220737E1,-2.822300137E0,1.503774159E1
8.699932292E0,-1.541049765E-1,-1.500762274E1,-3.403370116E0,1.538945797E1
8.709918292E0,7.355646725E-1,-1.501592111E1,-4.139084331E0,1.559329860E1
8.719903292E0,1.099273327E0,-1.529380301E1,-4.524688323E0,1.598692018E1
8.729889292E0,1.664835028E0,-1.544416650E1,-4.585306993E0,1.619626484E1
8.739874292E0,2.325997244E0,-1.540041764E1,-4.579211563E0,1.623429410E1
8.749859292E0,3.000303707E0,-1.501332026E1,-4.667076795E0,1.600572440E1
8.759845292E0,3.283522368E0,-1.463970190E1,-4.253690051E0,1.559475135E1
8.769830292E0,2.356446911E0,-1.450826117E1,-3.458969828E0,1.509989922E1
8.779816292E0,1.501320858E0,-1.467967814E1,-2.903931361E0,1.503927299E1
8.789801292E0,1.526884593E0,-1.469382840E1,-2.223237691E0,1.493930238E1
8.799787292E0,1.764396154E0,-1.461290060E1,-1.466713820E0,1.479193047E1
8.809772292E0,2.660481075E0,-1.437957097E1,-8.140598881E-1,1.464625939E1
8.819758292E0,4.324822891E0,-1.344809899E1,-3.346361518E-1,1.413037299E1
8.829743292E0,5.456959616E0,-1.217990808E1,-1.951578391E-1,1.334790829E1
8.839729292E0,6.003179605E0,-1.127210680E1,-2.661810440E-1,1.277377820E1
8.849714292E0,6.482094634E0,-1.078398124E1,2.055296302E-3,1.258220197E1
8.859700292E0,7.032662612E0,-1.000133961E1,3.503353411E-1,1.223142969E1
8.869685292E0,8.153534092E0,-9.201839286E0,1.163621058E0,1.234941207E1
8.879670292E0,9.390497360E0,-8.964554597E0,2.474252812E0,1.321614947E1
8.889656292E0,1.043521587E1,-8.849503613E0,3.062987321E0,1.402103191E1
8.899641292E0,1.185387786E1,-8.509387450E0,3.017308872E0,1.490061233E1
8.909627292E0,1.314948519E1,-7.244093252E0,2.734673179E0,1.525989139E1
8.919612292E0,1.365805262E1,-5.546843015E0,2.668656360E0,1.498104121E1
8.929598292E0,1.373905995E1,-5.019044094E0,3.510496370E0,1.504247841E1
8.939583292E0,1.341864656E1,-4.600459175E0,4.897764071E0,1.500707810E1
8.949569292E0,1.303524931E1,-4.267699395E0,6.845310806E0,1.532935950E1
8.959554292E0,1.327876713E1,-4.758226993E0,9.217702782E0,1.685029451E1
8.969540292E0,1.359426184E1,-4.856740590E0,1.063172325E1,1.792834134E1
8.979525292E0,1.331902053E1,-4.069568831E0,1.084591144E1,1.765195438E1
8.989511292E0,1.229139460E1,-3.792383620E0,1.136793799E1,1.716655378E1
8.999496292E0,1.052474259E1,-3.347322800E0,1.196852305E1,1.628558628E1
9.009481292E0,7.766427366E0,-3.224588574E0,1.287032976E1,1.537402854E1
9.019467292E0,4.706820905E0,-4.333171545E0,1.463446981E1,1.597179530E1
9.029452292E0,2.201262393E0,-5.560002759E0,1.607466475E1,1.715091932E1
9.039438292E0,8.667137727E-2,-6.390702068E0,1.633512079E1,1.754094513E1
9.049423292E0,-8.129138339E-1,-6.025124205E0,1.549388655E1,1.664402208E1
9.059409292E0,-8.545351920E-1,-4.569495537E0,1.393300507E1,1.468806149E1
9.069394292E0,-1.619015077E0,-3.651373336E0,1.299119639E1,1.359135463E1
9.079380292E0,-3.150918042E0,-3.152371368E0,1.278515688E1,1.353979195E1
9.089365292E0,-5.431468095E0,-2.889610653E0,1.277275610E1,1.417723506E1
9.099351292E0,-8.676639453E0,-3.291863714E0,1.239394541E1,1.548322711E1
9.109336292E0,-1.273099880E1,-3.855936714E0,1.150134689E1,1.758486732E1
9.119322292E0,-1.650414508E1,-3.746485316E0,1.052310537E1,1.992884100E1
9.129307292E0,-1.886335977E1,-3.168805552E0,9.326043502E0,2.128010239E1
9.139293292E0,-1.914088266E1,-2.526618136E0,7.644493039E0,2.076524649E1
9.149278292E0,-1.764702665E1,-2.043185987E0,5.531509277E0,1.860617514E1
9.159263292E0,-1.577171700E1,-1.669949441E0,3.463920373E0,1.623374672E1
9.169249292E0,-1.431794599E1,-1.702096410E0,2.125662864E0,1.457460642E1
9.179234292E0,-1.296443602E1,-1.638302995E0,1.609389390E0,1.316627404E1
9.189220292E0,-1.152315934E1,-1.288471976E0,1.920985758E0,1.175302291E1
9.199205292E0,-9.809786577E0,-7.975429657E-1,2.422524834E0,1.013590716E1
9.209191292E0,-8.040130268E0,-3.144662179E-1,3.061405064E0,8.608994407E0
9.219176292E0,-6.600997764E0,1.936401577E-1,3.507426581E0,7.477480138E0
9.229162292E0,-5.531375960E0,4.722454386E-1,3.243379186E0,6.429513536E0
9.239147292E0,-4.964037582E0,3.626582019E-1,2.162343033E0,5.426685681E0
9.249133292E0,-4.667823485E0,6.136563292E-2,7.451264781E-1,4.727320096E0
9.259118292E0,-4.529607586E0,-3.032641770E-1,-4.873379427E-1,4.565830955E0
9.269104292E0,-4.499164934E0,-5.522540598E-1,-1.309352383E0,4.718248967E0
9.279089292E0,-4.417106572E0,-6.566788629E-1,-1.675487486E0,4.769624294E0
9.289074292E0,-4.159948951E0,-6.626764251E-1,-1.691676672E0,4.539392611E0
9.299060292E0,-3.468754851E0,-5.157637796E-1,-1.617167357E0,3.861800455E0
9.309045292E0,-2.481854192E0,-2.281162183E-1,-1.411857582E0,2.864433464E0
9.319031292E0,-1.676508994E0,-2.987384504E-2,-1.041518916E0,1.973914007E0
9.329016292E0,-9.379411916E-1,1.641424531E-1,-8.373446703E-1,1.267999417E0
9.339002292E0,-2.206967229E-1,2.981641442E-1,-8.336673564E-1,9.124747456E-1
9.348987292E0,2.570581450E-1,3.147298908E-1,-9.640374613E-1,1.046184506E0
9.358973292E0,7.392560197E-1,2.878188117E-1,-1.255210090E0,1.484887706E0
9.368958292E0,1.502678143E0,1.943318833E-1,-1.733639215E0,2.302457689E0
9.378944292E0,2.577130186E0,2.173667701E-1,-2.218298548E0,3.407300508E0
9.388929292E0,3.894517812E0,2.968722019E-1,-2.397462498E0,4.582927942E0
9.398915292E0,4.981528943E0,4.960270514E-1,-1.818765904E0,5.326310436E0
9.408900292E0,5.636001944E0,8.890165881E-1,-5.067968917E-1,5.728150792E0
9.418885292E0,6.037572343E0,1.400832803E0,1.269415900E0,6.326612764E0
9.428871292E0,6.209796233E0,1.847489912E0,3.041194748E0,7.157070191E0
9.438856292E0,6.386804314E0,2.153594721E0,4.497372470E0,8.102814246E0
9.448842292E0,6.589141949E0,2.477951176E0,5.207089380E0,8.756187154E0
9.458827292E0,6.599434803E0,2.616049838E0,5.374567085E0,8.904056818E0
9.468813292E0,6.258065583E0,2.198463038E0,5.434220379E0,8.574810534E0
9.478798292E0,5.924101861E0,1.868852861E0,5.565977443E0,8.340725314E0
9.488784292E0,5.560175251E0,1.699072815E0,6.031209403E0,8.377224129E0
9.498769292E0,5.154491921E0,1.361566557E0,6.795869089E0,8.637504682E0
9.508755292E0,4.754421625E0,9.538073190E-1,7.697961148E0,9.097960169E0
9.518740292E0,4.360599372E0,6.025569617E-1,8.513224978E0,9.583991929E0
9.528726292E0,3.910309972E0,1.396951713E-1,9.231020401E0,1.002605488E1
9.538711292E0,3.426543217E0,-1.534850986E-1,9.991206383E0,1.056356763E1
9.548696292E0,2.952581365E0,-1.470625900E-1,1.096496075E1,1.135648398E1
9.558682292E0,2.405654301E0,-3.956990634E-1,1.197091807E1,1.221665379E1
9.568667292E0,1.390626342E0,-6.128193368E-1,1.259740278E1,1.268873304E1
9.578653292E0,2.576120956E-1,-1.039014919E0,1.281439062E1,1.285902496E1
9.588638292E0,-1.047123911E0,-1.619355092E0,1.264669014E1,1.279287109E1
9.598624292E0,-2.451586373E0,-2.159955761E0,1.225788889E1,1.268587894E1
9.608609292E0,-3.752576360E0,-2.589280115E0,1.187382154E1,1.271903451E1
9.618595292E0,-4.617405283E0,-2.862025243E0,1.161891451E1,1.282617615E1
9.628580292E0,-5.014438242E0,-3.154872807E0,1.144299869E1,1.288565219E1
9.638566292E0,-5.241140056E0,-3.445253722E0,1.128098638E1,1.290736131E1
9.648551292E0,-5.313461342E0,-3.858943937E0,1.124280055E1,1.302017220E1
9.658537292E0,-5.558553818E0,-4.429796784E0,1.127497427E1,1.332837818E1
9.668522292E0,-5.928331736E0,-4.988249148E0,1.100791556E1,1.346112743E1
9.678508292E0,-6.324363652E0,-5.653254738E0,1.046171662E1,1.346864431E1
9.688493292E0,-7.073122421E0,-6.374557906E0,9.470462127E0,1.342958310E1
9.698478292E0,-8.380619482E0,-7.166694244E0,8.145875993E0,1.370954357E1
9.708464292E0,-9.768063769E0,-7.969333935E0,6.897520595E0,1.437014765E1
9.718449292E0,-1.066975471E1,-8.637802831E0,5.829376382E0,1.491431971E1
9.728435292E0,-1.109731247E1,-9.135966893E0,4.826980017E0,1.516298029E1
9.738420292E0,-1.136915421E1,-9.569145001E0,3.672714504E0,1.530735233E1
9.748406292E0,-1.104457410E1,-1.001595531E1,2.732135487E0,1.515805205E1
9.758391292E0,-1.054578321E1,-1.038158872E1,2.147320951E0,1.495332455E1
9.768377292E0,-9.978941263E0,-1.083231783E1,1.694823058E0,1.482534328E1
9.778362292E0,-9.414845166E0,-1.114697755E1,1.213939857E0,1.464131374E1
9.788348292E0,-8.998269643E0,-1.115839366E1,4.776806813E-1,1.434248181E1
9.798333292E0,-8.706633330E0,-1.103563020E1,-4.320016479E-1,1.406332902E1
9.808318292E0,-8.732910132E0,-1.078974308E1,-1.373784022E0,1.394881922E1
9.818304292E0,-9.089203202E0,-1.028403845E1,-2.211195350E0,1.390195837E1
9.828289292E0,-9.151127554E0,-9.342232103E0,-3.066450042E0,1.343218344E1
9.838275292E0,-8.820520134E0,-8.908547042E0,-3.323439263E0,1.296954257E1
9.848260292E0,-8.354709300E0,-9.283989158E0,-2.976608743E0,1.283954134E1
9.858246292E0,-7.820567905E0,-9.954255488E0,-2.841096012E0,1.297383179E1
9.868231292E0,-7.567541927E0,-1.051167173E1,-3.119109482E0,1.332260400E1
9.878217292E0,-7.733337972E0,-1.086081014E1,-3.396204354E0,1.375848528E1
9.888202292E0,-7.918335689E0,-1.116161430E1,-3.177551817E0,1.404914622E1
9.898188292E0,-8.180766914E0,-1.141641257E1,-2.834090171E0,1.432799673E1
9.908173292E0,-8.324630638E0,-1.164145787E1,-2.696142367E0,1.456338560E1
9.918159292E0,-8.204012520E0,-1.218552959E1,-2.488042593E0,1.489910430E1
9.928144292E0,-8.181178558E0,-1.296147382E1,-2.438557899E0,1.552024648E1
9.938130292E0,-7.961427915E0,-1.368355701E1,-2.868567401E0,1.608890132E1
9.948115292E0,-7.212334685E0,-1.436411210E1,-3.694333707E0,1.649222815E1
9.958100292E0,-5.852661749E0,-1.447576936E1,-4.501916927E0,1.625019397E1
9.968086292E0,-4.518887885E0,-1.413471764E1,-4.708749609E0,1.556865162E1
9.978071292E0,-3.618639746E0,-1.399262913E1,-4.443778061E0,1.512069400E1
9.988057292E0,-2.859913521E0,-1.374519718E1,-4.189677072E0,1.465138031E1
9.998042292E0,-2.392706811E0,-1.344525841E1,-4.099731985E0,1.425860519E1
1.000802829E1,-2.083407522E0,-1.343875865E1,-4.019894688E0,1.418098636E1
1.001801329E1,-1.539472332E0,-1.335513878E1,-3.854195998E0,1.398515405E1
1.002799929E1,-8.513904132E-1,-1.290601766E1,-3.762908098E0,1.347032423E1
1.003798429E1,8.370011464E-2,-1.248329437E1,-3.545262744E0,1.297723129E1
1.004797029E1,1.095501142E0,-1.232307014E1,-3.354892313E0,1.281848208E1
1.005795529E1,1.852846400E0,-1.223673600E1,-3.522183492E0,1.286765419E1
1.006794129E1,2.661229811E0,-1.225894138E1,-3.970377542E0,1.315779943E1
1.007792629E1,3.432334007E0,-1.199826549E1,-4.419239344E0,1.323891869E1
1.008791129E1,3.520347759E0,-1.151789919E1,-4.551343733E0,1.287515358E1
1.009789721E1,3.147697104E0,-1.140761485E1,-4.376883575E0,1.261740003E1
1.010788221E1,2.333518517E0,-1.133790669E1,-4.087216020E0,1.227594279E1
1.011786821E1,1.021455365E0,-1.133953806E1,-3.783318096E0,1.199758268E1
1.012785321E1,1.611437085E-1,-1.135588454E1,-3.725747581E0,1.195254265E1
1.013783921E1,-1.490776867E-2,-1.135323692E1,-3.645204524E0,1.192408180E1
1.014782421E1,1.725244367E-1,-1.158172739E1,-3.484454041E0,1.209576761E1
1.015781021E1,9.102495092E-1,-1.126552166E1,-3.095044096E0,1.171835443E1
1.016779521E1,2.277834605E0,-1.055527675E1,-2.545931489E0,1.109433031E1
1.017778121E1,3.933076691E0,-1.005771963E1,-2.177687881E0,1.101676636E1
1.018776621E1,5.509963456E0,-9.273795707E0,-2.101821427E0,1.099002445E1
1.019775221E1,6.754607627E0,-8.594843922E0,-1.947247943E0,1.110350579E1
1.020773721E1,7.388742258E0,-8.275592380E0,-1.888083476E0,1.125361278E1
1.021772221E1,7.575916309E0,-7.910831957E0,-1.977325435E0,1.113039020E1
1.022770821E1,7.481479098E0,-7.972824723E0,-1.655660747E0,1.105801411E1
1.023769321E1,7.355915405E0,-7.829132906E0,-1.496758568E0,1.084643258E1
1.024767921E1,7.712303199E0,-6.964723814E0,-1.439800256E0,1.049094959E1
1.025766421E1,8.409269085E0,-5.974331782E0,-3.891842419E-1,1.032278602E1
1.026765021E1,8.963917251E0,-5.080100720E0,1.422263871E0,1.040106102E1
1.027763521E1,9.244178390E0,-4.638046539E0,3.221731040E0,1.083262945E1
1.028762121E1,9.272679473E0,-4.970520975E0,4.383413161E0,1.139749860E1
1.029760621E1,9.279569832E0,-5.766794218E0,4.524067349E0,1.182512229E1
1.030759221E1,9.794641119E0,-6.382945737E0,4.391735503E0,1.248856804E1
1.031757721E1,1.084580502E1,-6.646355200E0,4.155467645E0,1.338183228E1
1.032756321E1,1.193049276E1,-5.521621050E0,3.819212399E0,1.368982614E1
1.033754821E1,1.283657963E1,-4.545198017E0,5.120143622E0,1.454828074E1
1.034753421E1,1.317224139E1,-4.024503755E0,7.965761871E0,1.591093762E1
1.035751921E1,1.260093567E1,-3.018657533E0,1.072973194E1,1.682328804E1
1.036750421E1,1.153900647E1,-2.955556720E0,1.297038147E1,1.761007613E1
1.037749021E1,1.013962509E1,-3.801469608E0,1.419669579E1,1.785523283E1
1.038747521E1,8.959320754E0,-4.848886026E0,1.424763673E1,1.751503002E1
1.039746121E1,7.306202962E0,-5.457526211E0,1.358575531E1,1.636269970E1
1.040744621E1,5.261474918E0,-4.787530899E0,1.150519903E1,1.352675775E1
1.041743221E1,3.380219235E0,-3.564926931E0,8.938825679E0,1.019986228E1
1.042741721E1,1.182601485E0,-3.361373659E0,7.652418355E0,8.441379379E0
1.043740321E1,-1.111678999E0,-3.737299924E0,7.586721379E0,8.530039988E0
1.044738821E1,-3.146152269E0,-3.759404446E0,7.877317472E0,9.278120846E0
1.045737421E1,-4.572329974E0,-4.110377426E0,8.240277536E0,1.028122453E1
1.046735921E1,-5.634703277E0,-5.213017287E0,8.221981598E0,1.124839596E1
1.047734521E1,-7.539166558E0,-5.918918889E0,8.131219363E0,1.256938191E1
1.048733021E1,-9.759403458E0,-5.700468081E0,8.339838662E0,1.404614542E1
1.049731521E1,-1.159729619E1,-4.728187800E0,8.130795439E0,1.493194138E1
1.050730121E1,-1.356947900E1,-3.503906558E0,8.053213413E0,1.616361246E1
1.051728621E1,-1.482155615E1,-2.452740321E0,7.753719612E0,1.690605305E1
1.052727221E1,-1.507103696E1,-1.824571750E0,7.416977293E0,1.689605780E1
1.053725721E1,-1.494477920E1,-1.321551575E0,7.224015083E0,1.665170616E1
1.054724321E1,-1.447366553E1,-8.450894536E-1,7.054339995E0,1.612342652E1
1.055722821E1,-1.369828614E1,-5.405983298E-1,6.943224771E0,1.536696652E1
1.056721421E1,-1.280290903E1,-1.832993934E-1,7.063963927E0,1.462353119E1
1.057719921E1,-1.166380125E1,2.864613806E-1,7.266887453E0,1.374532550E1
1.058718521E1,-1.062714488E1,5.916068079E-1,7.029441966E0,1.275536206E1
1.059717021E1,-9.598707354E0,6.294501337E-1,6.015627158E0,1.134544668E1
1.060715621E1,-8.586943164E0,5.061539903E-1,4.291601350E0,9.612992610E0
1.061714121E1,-7.616240462E0,1.881016385E-1,2.358384386E0,7.975241558E0
1.062712621E1,-6.814864354E0,-1.364718937E-1,5.503358442E-1,6.838411386E0
1.063711221E1,-6.217635595E0,-2.893160643E-1,-7.543989927E-1,6.269913398E0
1.064709721E1,-5.775489028E0,-2.157558987E-1,-1.470728518E0,5.963712475E0
1.065708321E1,-5.513317419E0,-2.313366819E-1,-1.411631294E0,5.695865916E0
1.066706821E1,-5.232983775E0,-1.748126715E-1,-8.470083636E-1,5.303970383E0
1.067705421E1,-4.806383784E0,1.446940291E-1,-2.634486401E-1,4.815772693E0
1.068703921E1,-4.212278023E0,3.327733751E-1,2.682082736E-1,4.233905991E0
1.069702521E1,-3.412033936E0,3.394096725E-1,5.852536619E-1,3.478461780E0
1.070701021E1,-2.543185929E0,2.363991281E-1,5.705800742E-1,2.617105432E0
1.071699621E1,-1.787261983E0,1.400420940E-1,2.852324420E-1,1.815289159E0
1.072698121E1,-1.136118971E0,-3.884246886E-2,-3.012082046E-1,1.176010815E0
1.073696721E1,-5.614704777E-1,-1.572378781E-1,-1.028986579E0,1.182702932E0
1.074695221E1,-5.863675565E-2,-1.933164778E-1,-1.653820628E0,1.666112901E0
1.075693721E1,5.502293517E-1,-2.295795205E-1,-2.010882021E0,2.097404491E0
1.076692321E1,1.467348974E0,-4.409940809E-2,-2.012794645E0,2.491264750E0
1.077690821E1,2.491446549E0,2.480107848E-1,-1.725357218E0,3.040669793E0
1.078689421E1,3.452304295E0,5.310774912E-1,-1.309207372E0,3.730210743E0
1.079687921E1,4.367720988E0,9.478342420E-1,-6.062054050E-1,4.510306129E0
1.080686521E1,5.083999059E0,1.445641332E0,6.828740966E-1,5.329469234E0
1.081685021E1,5.606442515E0,2.052589918E0,2.483182679E0,6.466182743E0
1.082683621E1,5.873773706E0,2.401452492E0,4.187213348E0,7.602693420E0
1.083682121E1,5.970436952E0,2.543229199E0,5.170561824E0,8.297520215E0
1.084680721E1,5.902958913E0,2.465897433E0,5.569810878E0,8.482238343E0
1.085679221E1,5.625796798E0,1.984346772E0,5.973419032E0,8.442094329E0
1.086677821E1,5.066961442E0,1.538589695E0,6.403839592E0,8.309664134E0
1.087676321E1,4.675892057E0,1.413960825E0,6.978677024E0,8.518520104E0
1.088674821E1,4.266094041E0,1.345903328E0,7.884055218E0,9.064730598E0
1.089673421E1,3.870241635E0,1.161992024E0,8.782300978E0,9.667357770E0
1.090671921E1,3.731396576E0,9.133055565E-1,9.201117155E0,9.970857754E0
1.091670521E1,3.472803463E0,7.891761117E-1,9.542356567E0,1.018527033E1
1.092669021E1,3.039151731E0,6.769052589E-1,1.016992185E1,1.063588052E1
1.093667621E1,2.389829250E0,5.175602270E-1,1.081950307E1,1.109237572E1
1.094666121E1,1.436524938E0,1.131170729E-1,1.124107563E1,1.133305698E1
1.095664721E1,2.047327278E-1,-3.818606774E-1,1.114516024E1,1.115357924E1
1.096663221E1,-1.034585288E0,-1.013524275E0,1.065916774E1,1.075711184E1
1.097661821E1,-2.439827183E0,-1.802252197E0,1.003270641E1,1.048122453E1
1.098660321E1,-3.438657186E0,-2.458672321E0,9.276997057E0,1.019470977E1
1.099658921E1,-3.892418662E0,-2.842732063E0,8.683711075E0,9.931711165E0
1.100657421E1,-4.481898399E0,-3.226180771E0,8.405880623E0,1.005755858E1
1.101656021E1,-5.387352607E0,-3.589573529E0,8.178744362E0,1.043074617E1
1.102654521E1,-6.654387521E0,-3.896167604E0,8.169726786E0,1.123411906E1
1.103653021E1,-7.872223962E0,-4.181424605E0,8.407233669E0,1.225307308E1
1.104651621E1,-8.733807095E0,-4.587904910E0,8.555565251E0,1.305855867E1
1.105650121E1,-9.087557795E0,-5.033562731E0,8.481747077E0,1.341120777E1
1.106648721E1,-9.072933909E0,-5.561700790E0,7.858469557E0,1.322899048E1
1.107647221E1,-9.109047482E0,-6.158391021E0,6.759831530E0,1.290720141E1
1.108645821E1,-9.181137804E0,-6.623770330E0,5.416447767E0,1.255012076E1
1.109644321E1,-8.622812909E0,-6.757041823E0,4.305151103E0,1.177050732E1
1.110642942E1,-8.155202887E0,-6.775395648E0,3.798288723E0,1.126234068E1
1.111641442E1,-8.077892756E0,-6.871919146E0,3.598694601E0,1.119938511E1
1.112640042E1,-7.773246388E0,-6.581279783E0,3.393883009E0,1.073569024E1
1.113638542E1,-7.638049407E0,-6.393599364E0,3.534847099E0,1.056943970E1
1.114637142E1,-7.636547842E0,-6.482004586E0,3.607122778E0,1.064634121E1
1.115635642E1,-7.442093423E0,-6.538845370E0,3.512436476E0,1.051087357E1
1.116634142E1,-7.296154522E0,-6.735639845E0,3.552860032E0,1.054635147E1
1.117632742E1,-7.093130423E0,-7.023494763E0,3.548534262E0,1.059405840E1
1.118631242E1,-7.046936250E0,-7.479537823E0,3.375837332E0,1.081661103E1
1.119629842E1,-7.106098963E0,-8.106673336E0,3.101069067E0,1.121746069E1
1.120628342E1,-6.910513108E0,-8.166924800E0,2.659100840E0,1.102382281E1
1.121626942E1,-6.644851297E0,-8.274913518E0,2.408725405E0,1.088256406E1
1.122625442E1,-6.509943168E0,-8.795280043E0,2.174245625E0,1.115632803E1
1.123624042E1,-6.526748065E0,-9.242682672E0,1.684460038E0,1.143953797E1
1.124622542E1,-6.758297220E0,-1.003799931E1,1.161790295E0,1.215671700E1
1.125621142E1,-7.035209659E0,-1.098686909E1,3.740569103E-1,1.305164304E1
1.126619642E1,-7.095698521E0,-1.160698035E1,-7.209239754E-1,1.362316636E1
1.127618242E1,-6.958285444E0,-1.218653765E1,-1.759317262E0,1.414300652E1
1.128616742E1,-6.746089404E0,-1.263007235E1,-2.701950991E0,1.457151292E1
1.129615342E1,-6.505572374E0,-1.289134582E1,-3.391816018E0,1.483285829E1
1.130613842E1,-6.499408239E0,-1.347705674E1,-3.816262771E0,1.544141274E1
1.131612342E1,-6.538906181E0,-1.409751064E1,-4.184441768E0,1.609368364E1
1.132610942E1,-6.408286400E0,-1.441393388E1,-4.564414306E0,1.642137334E1
1.133609442E1,-6.259598138E0,-1.440775688E1,-4.922941597E0,1.646211959E1
1.134608042E1,-5.931721367E0,-1.442797422E1,-5.131935702E0,1.642219603E1
1.135606542E1,-5.357840540E0,-1.443878923E1,-5.205217102E0,1.625667170E1
1.136605142E1,-4.681569996E0,-1.430003129E1,-5.156006350E0,1.590573463E1
1.137603642E1,-3.870272625E0,-1.418505749E1,-4.970619208E0,1.552101548E1
1.138602242E1,-3.224055600E0,-1.413719686E1,-4.854104666E0,1.529108242E1
1.139600742E1,-2.671363036E0,-1.405034466E1,-4.891342074E0,1.511534296E1
1.140599342E1,-2.087403802E0,-1.402084662E1,-4.983630432E0,1.502590986E1
1.141597842E1,-1.569790584E0,-1.416945010E1,-5.265287887E0,1.519739501E1
1.142596442E1,-9.152833772E-1,-1.448249132E1,-5.707344407E0,1.559339856E1
1.143594942E1,-4.627004072E-2,-1.467986291E1,-6.001419008E0,1.585930472E1
1.144593442E1,1.088129118E0,-1.463885288E1,-6.062581469E0,1.588190583E1
1.145592042E1,2.085348067E0,-1.458365166E1,-6.057579176E0,1.592877389E1
1.146590542E1,2.795817221E0,-1.443538264E1,-6.137635159E0,1.593321786E1
1.147589142E1,3.215296764E0,-1.412401958E1,-6.085700190E0,1.571183659E1
1.148587642E1,2.799239596E0,-1.398741458E1,-5.846888208E0,1.541653693E1
1.149586242E1,2.415403802E0,-1.365339824E1,-5.630830666E0,1.496514995E1
1.150584742E1,2.249689325E0,-1.329206604E1,-5.126310096E0,1.442286992E1
1.151583342E1,1.976366492E0,-1.319731892E1,-4.221227186E0,1.399621414E1
1.152581842E1,1.835933621E0,-1.294428184E1,-3.298138946E0,1.348342705E1
1.153580442E1,1.845482709E0,-1.240378042E1,-2.494098554E0,1.278593379E1
1.154578942E1,1.812440386E0,-1.155932554E1,-2.117663873E0,1.189064537E1
1.155577542E1,1.965048329E0,-1.106579949E1,-2.417938278E0,1.149607580E1
1.156576042E1,2.629877333E0,-1.118042129E1,-2.961374992E0,1.186118952E1
1.157574542E1,3.424764494E0,-1.116903325E1,-3.425086675E0,1.217405168E1
1.158573142E1,4.306370540E0,-1.099518150E1,-3.421795278E0,1.229420702E1
1.159571642E1,5.178496495E0,-1.077022859E1,-2.725714075E0,1.225741273E1
1.160570242E1,5.656132153E0,-1.015917233E1,-1.841608052E0,1.177251603E1
1.161568742E1,5.995478822E0,-9.459017957E0,-1.062069540E0,1.124930125E1
1.162567342E1,6.077821067E0,-9.085588453E0,-6.285850382E-1,1.094910707E1
1.163565842E1,6.349848157E0,-8.707385282E0,-3.475584984E-2,1.077684267E1
1.164564442E1,6.891134266E0,-8.321369061E0,7.873071223E-1,1.083294822E1
1.165562942E1,7.646467059E0,-7.844887644E0,1.850922666E0,1.111020411E1
1.166561542E1,8.950651088E0,-7.441117523E0,3.989799653E0,1.230458801E1
1.167560042E1,1.026026133E1,-7.091814215E0,6.860506550E0,1.423493385E1
1.168558642E1,1.185067242E1,-6.518153243E0,9.312491995E0,1.642093985E1
1.169557142E1,1.334920737E1,-5.841215824E0,1.092928104E1,1.821456350E1
1.170555742E1,1.400743077E1,-5.591887041E0,1.135040569E1,1.887614969E1
1.171554242E1,1.436630480E1,-5.465034621E0,1.070487075E1,1.873103240E1
1.172552742E1,1.436856651E1,-4.791061156E0,9.367297363E0,1.780888066E1
1.173551342E1,1.396885201E1,-3.268130450E0,8.076668349E0,1.646335552E1
1.174549842E1,1.263530795E1,-2.300928768E0,8.080158552E0,1.517347166E1
1.175548442E1,9.902567271E0,-2.398057160E0,9.388495274E0,1.385479557E1
1.176546942E1,6.729237143E0,-3.370528060E0,1.192149740E1,1.409841098E1
1.177545542E1,4.185661497E0,-3.945937935E0,1.477375282E1,1.585414649E1
1.178544042E1,2.379368289E0,-4.169551833E0,1.674225306E1,1.741693410E1
1.179542642E1,1.750337255E0,-4.163920672E0,1.716958278E1,1.775377393E1
1.180541142E1,1.966615675E0,-4.371739780E0,1.639599966E1,1.708240295E1
1.181539742E1,1.904294881E0,-4.255559113E0,1.458886854E1,1.531571767E1
1.182538242E1,9.333737853E-1,-3.593768322E0,1.247479486E1,1.301563921E1
1.183536842E1,-1.839816319E0,-3.755065520E0,1.170937913E1,1.243362380E1
1.184535342E1,-5.390934611E0,-4.047264919E0,1.178851885E1,1.357982717E1
1.185533842E1,-9.354471495E0,-3.850021378E0,1.156537039E1,1.536510963E1
1.186532442E1,-1.352873560E1,-3.795468318E0,1.100380848E1,1.784701845E1
1.187530942E1,-1.654346994E1,-3.403969456E0,1.023431139E1,1.974878567E1
1.188529542E1,-1.764542685E1,-2.774513183E0,9.359480220E0,2.016578494E1
1.189528042E1,-1.723644335E1,-2.214104779E0,8.524093782E0,1.935606918E1
1.190526642E1,-1.570643751E1,-1.779682091E0,7.447146587E0,1.747339234E1
1.191525142E1,-1.370332761E1,-1.363569813E0,5.991594517E0,1.501797973E1
1.192523742E1,-1.215188705E1,-9.718437865E-1,4.410727844E0,1.296407958E1
1.193522242E1,-1.109562964E1,-9.170544257E-1,2.927477514E0,1.151191168E1
1.194520842E1,-1.076399194E1,-1.213262165E0,1.817374266E0,1.098355029E1
1.195519342E1,-1.088515093E1,-1.088600843E0,1.078338248E0,1.099246906E1
1.196517942E1,-1.077782529E1,-7.696687771E-1,1.005118244E0,1.085192014E1
1.197516442E1,-1.001522090E1,-4.689702304E-1,1.274068530E0,1.010682113E1
1.198515042E1,-8.682848611E0,-1.594277700E-1,1.516218102E0,8.815678904E0
1.199513542E1,-7.254770268E0,1.764992277E-1,1.838587965E0,7.486203933E0
1.200512042E1,-5.923125376E0,3.390939959E-1,2.200619491E0,6.327805710E0
1.201510642E1,-4.747597048E0,4.093867374E-1,2.282965829E0,5.283863000E0
1.202509142E1,-3.852859617E0,4.767604758E-1,2.062090182E0,4.395912157E0
1.203507742E1,-3.189363485E0,4.964215191E-1,1.721125588E0,3.657970347E0
1.204506242E1,-2.815899775E0,5.134768970E-1,1.195073231E0,3.101797881E0
1.205504842E1,-2.595312980E0,4.514756535E-1,4.297358519E-1,2.669110832E0
1.206503342E1,-2.363015673E0,3.509205743E-1,-3.106111121E-1,2.409038726E0
1.207501942E1,-2.119684525E0,2.449277307E-1,-8.956080812E-1,2.314123141E0
1.208500442E1,-2.024774567E0,1.739597820E-2,-1.398599020E0,2.460913222E0
1.209499042E1,-2.101753746E0,-7.661270455E-2,-1.921655264E0,2.848858942E0
1.210497579E1,-2.010296715E0,-1.039120753E-1,-2.281609860E0,3.042668920E0
1.211496179E1,-1.648456100E0,-2.227569893E-1,-2.502797749E0,3.005166345E0
1.212494679E1,-1.169748063E0,-2.546163843E-1,-2.611441355E0,2.872762779E0
1.213493179E1,-7.626019053E-1,-2.276527168E-1,-2.447299486E0,2.573453361E0
1.214491779E1,-4.255413517E-1,-2.530336161E-1,-2.293254005E0,2.346087250E0
1.215490279E1,-2.099068558E-1,-3.708939686E-1,-2.366255908E0,2.404327400E0
1.216488879E1,-1.655150869E-1,-4.544864945E-1,-2.452429249E0,2.499672466E0
1.217487379E1,-2.086182026E-1,-5.116043993E-1,-2.454589210E0,2.516002545E0
1.218485979E1,-1.368176103E-1,-5.267494553E-1,-2.335481427E0,2.398052865E0
1.219484479E1,4.858908299E-1,-4.314519366E-1,-1.938405783E0,2.044421104E0
1.220483079E1,1.252007716E0,-2.525540348E-1,-1.397125522E0,1.892951818E0
1.221481579E1,1.942899076E0,-1.568831348E-1,-8.463341796E-1,2.125029572E0
1.222480179E1,2.725598300E0,1.231564680E-1,-1.513358814E-1,2.732573175E0
1.223478679E1,3.935914930E0,4.087066332E-1,7.728609914E-1,4.031845924E0
1.224477279E1,5.541712668E0,8.171643942E-1,1.942439777E0,5.928862389E0
1.225475779E1,7.371501158E0,1.654865672E0,3.803454738E0,8.458361405E0
1.226474279E1,9.080798998E0,2.570608494E0,6.330978608E0,1.136442821E1
1.227472879E1,1.022151534E1,3.192692013E0,8.907018580E0,1.392866247E1
1.228471379E1,1.041689888E1,3.593293236E0,1.071540626E1,1.537021373E1
1.229469979E1,9.836546359E0,3.559854471E0,1.141357784E1,1.548224684E1
1.230468479E1,8.520822265E0,2.868537580E0,1.133154492E1,1.446502092E1
1.231467079E1,7.136700366E0,1.967889783E0,1.077722536E1,1.307492519E1
1.232465579E1,5.872722961E0,1.375241879E0,9.954961832E0,1.163964906E1
1.233464179E1,4.712060595E0,7.681338099E-1,9.358441170E0,1.050590147E1
1.234462679E1,3.857005293E0,8.147956140E-2,8.933349761E0,9.730769071E0
1.235461279E1,3.494729353E0,-3.361017564E-1,8.841343823E0,9.512910082E0
1.236459779E1,3.130698663E0,-5.708467072E-1,9.242073977E0,9.774613623E0
1.237458379E1,2.808027084E0,-7.868291856E-1,1.019025613E1,1.059931301E1
1.238456879E1,2.838251342E0,-8.182893254E-1,1.135036827E1,1.172843246E1
1.239455379E1,2.731063108E0,-8.759846793E-1,1.247027028E1,1.279584682E1
1.240453979E1,2.125446517E0,-1.343598502E0,1.320492147E1,1.344219963E1
1.241452479E1,9.117484429E-1,-2.065078255E0,1.290656613E1,1.310249147E1
1.242451079E1,-7.768862146E-1,-2.763183325E0,1.197622734E1,1.231538694E1
1.243449579E1,-2.697352740E0,-3.652301582E0,1.104370637E1,1.194062264E1
1.244448179E1,-4.599056135E0,-4.535714418E0,1.021716034E1,1.208777845E1
1.245446679E1,-6.295579564E0,-5.073057749E0,8.975673662E0,1.208027130E1
1.246445279E1,-7.671824094E0,-5.649683259E0,7.678906826E0,1.223688751E1
1.247443779E1,-8.474477819E0,-5.967855406E0,6.884157953E0,1.244281733E1
1.248442379E1,-8.606261196E0,-5.973647073E0,6.579370667E0,1.237094618E1
1.249440879E1,-8.629923123E0,-5.777039709E0,6.697888466E0,1.235764827E1
1.250439479E1,-8.505133016E0,-5.877908857E0,7.382398614E0,1.270381476E1
1.251437979E1,-8.559426752E0,-6.007700672E0,8.429070681E0,1.343151094E1
1.252436579E1,-8.825791984E0,-6.193641545E0,9.459643024E0,1.434366222E1
1.253435079E1,-9.411527456E0,-6.819325780E0,9.873713601E0,1.525025486E1
1.254433579E1,-1.008037993E1,-7.511920288E0,9.497360489E0,1.575572474E1
1.255432179E1,-1.048442370E1,-8.481405015E0,8.698272981E0,1.604734633E1
1.256430679E1,-1.039443973E1,-9.595956239E0,7.762695088E0,1.613648625E1
1.257429279E1,-1.026732594E1,-1.044953220E1,6.718982297E0,1.611692986E1
1.258427779E1,-1.003733507E1,-1.102068471E1,5.615697488E0,1.592920729E1
1.259426379E1,-9.692994291E0,-1.136354205E1,4.619924848E0,1.563419112E1
1.260424879E1,-9.468369994E0,-1.154332288E1,3.794345360E0,1.540439516E1
1.261423479E1,-9.535098419E0,-1.150366122E1,3.066187502E0,1.525299410E1
1.262421979E1,-9.634644926E0,-1.159230618E1,2.399649357E0,1.526323237E1
1.263420579E1,-9.536812238E0,-1.183906803E1,1.939110957E0,1.532561486E1
1.264419079E1,-9.218213829E0,-1.197705530E1,1.605734881E0,1.519880602E1
1.265417679E1,-8.676022571E0,-1.168197440E1,1.049306822E0,1.458913768E1
1.266416179E1,-8.316405945E0,-1.115581620E1,3.444571352E-1,1.391881797E1
1.267414779E1,-8.326222250E0,-1.052059575E1,-4.240868568E-1,1.342344075E1
1.268413279E1,-8.197299916E0,-1.055130064E1,-6.040378422E-1,1.337499656E1
1.269411779E1,-7.813008040E0,-1.165125313E1,-2.223134780E-1,1.403011822E1
1.270410379E1,-7.600470521E0,-1.336397042E1,-1.384731764E-1,1.537472056E1
1.271408879E1,-7.706039661E0,-1.447464201E1,-1.190062752E0,1.644124564E1
1.272407479E1,-7.929214434E0,-1.498470750E1,-2.832324604E0,1.718825073E1
1.273405979E1,-8.607124829E0,-1.520389038E1,-4.395218982E0,1.801551638E1
1.274404579E1,-9.077823935E0,-1.531455010E1,-5.504277039E0,1.863436068E1
1.275403079E1,-8.862038289E0,-1.567491868E1,-6.018398153E0,1.898578191E1
1.276401679E1,-8.154020580E0,-1.613370526E1,-6.075807871E0,1.907091865E1
1.277400179E1,-7.295165173E0,-1.656270845E1,-6.029496753E0,1.907609963E1
1.278398779E1,-6.448407655E0,-1.689278494E1,-6.105478397E0,1.908468001E1
1.279397279E1,-5.446603612E0,-1.717182694E1,-6.096875973E0,1.901864948E1
1.280395879E1,-3.929095907E0,-1.738440013E1,-6.176522652E0,1.886278332E1
1.281394379E1,-2.289134350E0,-1.711337583E1,-6.201929389E0,1.834589046E1
1.282392879E1,-7.115624370E-1,-1.675893165E1,-5.779501387E0,1.774177972E1
1.283391479E1,1.030900518E0,-1.639937701E1,-5.127798212E0,1.721326920E1
1.284389979E1,3.049871432E0,-1.610159235E1,-4.658043432E0,1.703702910E1
1.285388579E1,4.632744284E0,-1.582419342E1,-4.427939416E0,1.707261153E1
1.286387079E1,4.966064812E0,-1.568687858E1,-4.327707322E0,1.701378882E1
1.287385679E1,4.586333764E0,-1.558527151E1,-4.470893939E0,1.685004564E1
1.288384179E1,3.840717289E0,-1.552217772E1,-4.375030593E0,1.657799756E1
1.289382779E1,2.811381339E0,-1.526850913E1,-4.308027933E0,1.611180749E1
1.290381279E1,2.731815937E0,-1.481823142E1,-4.122180323E0,1.562162512E1
1.291379879E1,3.344513505E0,-1.430642347E1,-3.965180244E0,1.521782433E1
1.292378379E1,4.345056888E0,-1.404529617E1,-3.658619206E0,1.515042436E1
1.293376979E1,5.293356861E0,-1.401935208E1,-3.136521905E0,1.531011526E1
1.294375479E1,6.062899557E0,-1.364767030E1,-2.742349988E0,1.518348245E1
1.295374079E1,6.691536051E0,-1.327468343E1,-2.512311754E0,1.507665697E1
1.296372579E1,6.611729743E0,-1.288713349E1,-2.568784162E0,1.471026281E1
1.297371079E1,6.467970684E0,-1.239089316E1,-2.717438511E0,1.423914851E1
1.298369679E1,6.308566815E0,-1.168673403E1,-2.974035383E0,1.360965297E1
1.299368179E1,6.330337168E0,-1.086757654E1,-2.962408780E0,1.292103921E1
1.300366779E1,7.176740345E0,-1.048569372E1,-2.391287838E0,1.292956427E1
1.301365279E1,8.419527440E0,-1.022015411E1,-1.537010216E0,1.333050610E1
1.302363879E1,9.810516894E0,-9.511630619E0,-7.613396376E-1,1.368564930E1
1.303362379E1,1.066708721E1,-8.940299177E0,-1.779255098E-1,1.391931595E1
1.304360979E1,1.084457242E1,-8.738766704E0,-3.141241193E-1,1.393088183E1
1.305359479E1,1.127276286E1,-8.352528874E0,-6.572773254E-1,1.404535277E1
1.306358079E1,1.167413328E1,-7.741442213E0,-5.632728088E-1,1.401900823E1
1.307356579E1,1.204718330E1,-6.863930680E0,9.365660727E-2,1.386567494E1
1.308355179E1,1.248075434E1,-6.221816939E0,1.557946172E0,1.403237083E1
1.309353679E1,1.244628734E1,-5.883989961E0,3.502116140E0,1.420549978E1
1.310352154E1,1.151352898E1,-5.755433078E0,5.288975542E0,1.391616404E1
1.311350754E1,1.035425649E1,-6.118591363E0,6.889143289E0,1.386030602E1
1.312349254E1,9.271359172E0,-7.069103630E0,7.611645720E0,1.392363019E1
1.313347854E1,8.462283450E0,-7.542883049E0,7.032201267E0,1.334005924E1
1.314346354E1,8.072678794E0,-7.056675373E0,6.799527692E0,1.269639268E1
1.315344954E1,7.395976433E0,-6.198850245E0,8.364377671E0,1.277063137E1
1.316343454E1,5.637295348E0,-5.276279483E0,1.129995007E1,1.368601825E1
1.317342054E1,2.892422871E0,-4.664113134E0,1.475988557E1,1.574719922E1
1.318340554E1,9.500966759E-1,-4.509626773E0,1.883788579E1,1.939343596E1
1.319339154E1,-1.675227284E-3,-4.433999470E0,2.213759588E1,2.257727852E1
1.320337654E1,-1.201942101E0,-4.437312210E0,2.310154914E1,2.355453199E1
1.321336254E1,-2.740195582E0,-4.042070253E0,2.112323494E1,2.168036112E1
1.322334754E1,-4.707057132E0,-3.180660782E0,1.811959745E1,1.898928123E1
1.323333254E1,-7.075746651E0,-3.148975013E0,1.600067408E1,1.777649587E1
1.324331854E1,-9.488390860E0,-3.229927082E0,1.450314485E1,1.762961147E1
1.325330354E1,-1.149730295E1,-2.716201825E0,1.357912106E1,1.799884041E1
1.326328954E1,-1.303483065E1,-2.060227551E0,1.313388248E1,1.861854497E1
1.327327454E1,-1.396158860E1,-1.721464727E0,1.294985540E1,1.912035962E1
1.328326054E1,-1.441170960E1,-9.853450075E-1,1.274206758E1,1.926210177E1
1.329324554E1,-1.422937237E1,-1.921104164E-1,1.198259730E1,1.860361745E1
1.330323154E1,-1.361508026E1,6.965992659E-2,1.022344843E1,1.702627854E1
1.331321654E1,-1.249988175E1,8.117060915E-2,7.478632674E0,1.456652255E1
1.332320254E1,-1.127726287E1,-2.355432419E-1,4.392544173E0,1.210481651E1
1.333318754E1,-1.049982761E1,-1.011794887E0,2.019824753E0,1.074010245E1
1.334317354E1,-1.027561027E1,-2.036485078E0,3.978457224E-1,1.048302052E1
1.335315854E1,-9.450587441E0,-2.287024236E0,-1.182801679E0,9.795055010E0
1.336314354E1,-8.201325724E0,-1.666578814E0,-2.137952542E0,8.637712061E0
1.337312954E1,-7.493654171E0,-1.378975180E0,-1.753803338E0,7.818711628E0
1.338311454E1,-6.714620274E0,-1.047753948E0,-1.044822008E0,6.875723001E0
1.339310054E1,-5.881319538E0,-7.115811481E-1,-6.125081187E-1,5.955789908E0
1.340308554E1,-5.238925130E0,-6.802486968E-1,-3.146000826E-1,5.292263034E0
1.341307154E1,-4.702943616E0,-7.513920620E-1,-2.303954995E-1,4.768160103E0
1.342305654E1,-4.164824652E0,-8.347229250E-1,-3.758028889E-1,4.264241381E0
1.343304254E1,-3.750519894E0,-9.712519752E-1,-7.565244555E-1,3.947411700E0
1.344302754E1,-3.426235068E0,-1.088558596E0,-1.174298658E0,3.781933884E0
1.345301354E1,-2.694185888E0,-1.255002514E0,-1.635895404E0,3.392612958E0
1.346299854E1,-1.414664245E0,-1.515127889E0,-2.321786079E0,3.112487436E0
1.347298454E1,1.908213978E-1,-1.753957850E0,-3.258913484E0,3.705846468E0
1.348296954E1,1.384270126E0,-1.742507687E0,-4.037031122E0,4.609789269E0
1.349295554E1,1.730848485E0,-1.546480659E0,-4.208783727E0,4.806381109E0
1.350294054E1,1.704979087E0,-1.271685351E0,-3.729926001E0,4.293772850E0
1.351292554E1,1.689277705E0,-9.985197345E-1,-3.161142776E0,3.720688710E0
1.352291154E1,2.070501255E0,-6.628860477E-1,-2.656235120E0,3.432488656E0
1.353289654E1,2.790068530E0,-2.938625121E-1,-1.936044677E0,3.408681061E0
1.354288254E1,3.614442322E0,5.876468176E-2,-1.110304976E0,3.781590106E0
1.355286754E1,4.554911996E0,1.942500040E-1,-5.772511625E-1,4.595451584E0
1.356285354E1,5.414128761E0,6.170902893E-2,-4.013476199E-1,5.429334965E0
1.357283854E1,5.862332459E0,-2.157589685E-1,-3.181803328E-1,5.874924044E0
1.358282454E1,6.138277184E0,-3.420695343E-1,-9.724796712E-2,6.148570201E0
1.359280954E1,6.417326195E0,-1.316083990E-2,9.453444976E-1,6.486595788E0
1.360279554E1,6.829930290E0,4.448832833E-1,2.943660268E0,7.450570762E0
1.361278054E1,7.077100866E0,8.871004555E-1,4.843473258E0,8.621573934E0
1.362276654E1,7.252461203E0,1.293066279E0,6.076013108E0,9.549248619E0
1.363275154E1,7.291372084E0,1.361795475E0,6.493852215E0,9.858433464E0
1.364273654E1,6.603145446E0,1.052220051E0,6.552807351E0,9.362050043E0
1.365272254E1,5.213310233E0,4.551161300E-1,6.611958954E0,8.432303095E0
1.366270754E1,3.753911572E0,1.112598693E-1,6.919222535E0,7.872729599E0
1.367269354E1,2.599855974E0,-5.180223763E-2,7.789007558E0,8.211612101E0
1.368267854E1,1.851420264E0,1.174172066E-2,9.280225890E0,9.463111931E0
1.369266454E1,1.335687950E0,1.848443008E-1,1.108982921E1,1.117150579E1
1.370264954E1,1.151392922E0,5.306845218E-1,1.282918174E1,1.289167312E1
1.371263554E1,9.132642605E-1,6.994370659E-1,1.446294291E1,1.450861748E1
1.372262054E1,3.679591414E-1,2.880468531E-1,1.569947465E1,1.570642764E1
1.373260654E1,-4.551899511E-1,-3.842528464E-1,1.624425038E1,1.625516898E1
1.374259154E1,-1.693746586E0,-1.223396632E0,1.665366891E1,1.678422369E1
1.375257754E1,-2.933947458E0,-2.151303197E0,1.693292257E1,1.731935391E1
1.376256254E1,-4.471710795E0,-2.934615502E0,1.695648568E1,1.778006109E1
1.377254854E1,-6.124471908E0,-3.781801913E0,1.682043851E1,1.829585564E1
1.378253354E1,-7.634526460E0,-4.740569864E0,1.631077298E1,1.862257533E1
1.379251854E1,-8.906297033E0,-5.805263050E0,1.539977210E1,1.871299513E1
1.380250454E1,-9.720048189E0,-6.739028306E0,1.420886969E1,1.848745026E1
1.381248954E1,-1.020590094E1,-7.357070230E0,1.278415584E1,1.793659769E1
1.382247554E1,-1.035134458E1,-7.684355847E0,1.141907890E1,1.722193434E1
1.383246054E1,-1.007156818E1,-7.978290700E0,1.015790348E1,1.637902962E1
1.384244654E1,-9.442835788E0,-8.218873218E0,8.908197963E0,1.536466777E1
1.385243154E1,-8.226692700E0,-8.425386935E0,8.055811915E0,1.426750586E1
1.386241754E1,-7.621006528E0,-8.923933990E0,7.494252926E0,1.392408580E1
1.387240254E1,-7.697072956E0,-9.783528485E0,6.719846515E0,1.414633164E1
1.388238854E1,-8.252833847E0,-1.030592809E1,5.694552453E0,1.437878117E1
1.389237354E1,-9.154850476E0,-1.094214959E1,4.845613339E0,1.506724572E1
1.390235954E1,-1.013900528E1,-1.200672758E1,4.115090282E0,1.624484236E1
1.391234454E1,-1.084545769E1,-1.275678853E1,2.957972497E0,1.700321168E1
1.392233054E1,-1.136140431E1,-1.348546620E1,1.670238440E0,1.771239687E1
1.393231554E1,-1.183807167E1,-1.376230146E1,2.786525702E-1,1.815539946E1
1.394230054E1,-1.176510426E1,-1.393257238E1,-9.428056365E-1,1.825987771E1
1.395228654E1,-1.153395564E1,-1.380947095E1,-1.784281365E0,1.808085398E1
1.396227154E1,-1.145468494E1,-1.341507391E1,-2.297037154E0,1.778905267E1
1.397225754E1,-1.133103153E1,-1.311125844E1,-2.491409127E0,1.750726971E1
1.398224254E1,-1.123409171E1,-1.292269275E1,-2.524878005E0,1.730825853E1
1.399222854E1,-1.114742662E1,-1.267602211E1,-2.586634542E0,1.707739251E1
1.400221354E1,-1.086486811E1,-1.255894682E1,-2.544234627E0,1.680016768E1
1.401219954E1,-1.062380261E1,-1.272254606E1,-2.571360738E0,1.677320054E1
1.402218454E1,-1.037866628E1,-1.288442506E1,-3.024840086E0,1.681888166E1
1.403217054E1,-9.862803866E0,-1.289369991E1,-3.590834774E0,1.662577793E1
1.404215554E1,-9.338306867E0,-1.286969125E1,-4.014842108E0,1.639975259E1
1.405214054E1,-8.826625797E0,-1.264918573E1,-4.278231692E0,1.600670137E1
1.406212654E1,-8.092221943E0,-1.266722556E1,-4.029137966E0,1.556202468E1
1.407211154E1,-7.340885721E0,-1.294628158E1,-3.477448784E0,1.528356830E1
1.408209754E1,-6.888791286E0,-1.310317291E1,-3.127297045E0,1.513038573E1
1.409208254E1,-6.604487382E0,-1.315736022E1,-3.059838595E0,1.503655525E1
1.410206817E1,-6.474034247E0,-1.359440451E1,-3.204779669E0,1.539453040E1
1.411205317E1,-6.298666309E0,-1.404922082E1,-3.862108743E0,1.587355307E1
1.412203917E1,-5.810690435E0,-1.404377940E1,-4.666793790E0,1.589876811E1
1.413202417E1,-5.126087317E0,-1.391616509E1,-5.104735624E0,1.568421971E1
1.414201017E1,-4.340187327E0,-1.384171133E1,-5.012720915E0,1.534788485E1
1.415199517E1,-3.594561789E0,-1.378124176E1,-4.767498631E0,1.501907261E1
1.416198117E1,-2.892306804E0,-1.394697524E1,-4.753932506E0,1.501610573E1
1.417196617E1,-2.342845118E0,-1.445827917E1,-4.882917405E0,1.543935368E1
1.418195117E1,-1.949070958E0,-1.504889472E1,-5.047643995E0,1.599208617E1
1.419193717E1,-9.949094443E-1,-1.542286510E1,-5.176544695E0,1.629881062E1
1.420192217E1,5.008505657E-1,-1.550243752E1,-4.793842676E0,1.623444942E1
1.421190817E1,2.118168196E0,-1.546419672E1,-3.988553027E0,1.611013880E1
1.422189317E1,3.876132705E0,-1.505435135E1,-3.238257025E0,1.587904933E1
1.423187917E1,5.284344547E0,-1.427801185E1,-2.845953879E0,1.548823337E1
1.424186417E1,5.810113900E0,-1.377865144E1,-2.910580814E0,1.523417670E1
1.425185017E1,5.419839152E0,-1.375779676E1,-3.338003508E0,1.515895431E1
1.426183517E1,4.624797041E0,-1.411213920E1,-4.034326200E0,1.538885988E1
1.427182117E1,3.967807691E0,-1.437404535E1,-4.803677693E0,1.566626940E1
1.428180617E1,4.142944663E0,-1.449895240E1,-4.929302782E0,1.586447721E1
1.429179217E1,4.164689581E0,-1.471363058E1,-4.373617905E0,1.590484510E1
1.430177717E1,3.890256946E0,-1.481498271E1,-3.915701982E0,1.580982397E1
1.431176317E1,4.411011142E0,-1.464921181E1,-3.417153173E0,1.567588472E1
1.432174817E1,5.383654243E0,-1.423539734E1,-2.329164680E0,1.539659958E1
1.433173317E1,6.659268776E0,-1.353174341E1,-8.725758988E-1,1.510679744E1
1.434171917E1,8.498832641E0,-1.262245693E1,5.866184020E-1,1.522828606E1
1.435170417E1,1.020880934E1,-1.143178841E1,1.573476377E0,1.540718671E1
1.436169017E1,1.109567993E1,-1.027259545E1,2.301789186E0,1.529505031E1
1.437167517E1,1.105524643E1,-9.955374645E0,2.781050954E0,1.513480104E1
1.438166117E1,1.096582263E1,-9.816152440E0,2.945591018E0,1.500941775E1
1.439164617E1,1.132540534E1,-9.625157819E0,3.504903508E0,1.527065217E1
1.440163217E1,1.233529082E1,-8.937858549E0,4.868676512E0,1.599214576E1
1.441161717E1,1.378084298E1,-7.019301724E0,6.695960639E0,1.685283711E1
1.442160317E1,1.470336755E1,-5.026225644E0,8.873098297E0,1.789368142E1
1.443158817E1,1.472711309E1,-3.727617228E0,1.060697432E1,1.852811093E1
1.444157417E1,1.399398685E1,-3.513540430E0,1.172470234E1,1.859153784E1
1.445155917E1,1.259967384E1,-4.584410907E0,1.348379741E1,1.901529376E1
1.446154517E1,1.043298224E1,-5.798470924E0,1.607350466E1,2.002066271E1
1.447153017E1,7.991879629E0,-6.677901514E0,1.858155789E1,2.130114556E1
1.448151517E1,5.769992645E0,-6.374274316E0,1.979474053E1,2.158137949E1
1.449150117E1,3.653503185E0,-4.650344110E0,1.949684127E1,2.037401790E1
1.450148617E1,1.221007679E0,-3.687306231E0,1.905455320E1,1.944641572E1
1.451147217E1,-1.249289930E0,-2.789484978E0,1.854433218E1,1.879452600E1
1.452145717E1,-3.981389603E0,-1.719724888E0,1.783403931E1,1.835379730E1
1.453144317E1,-6.811575295E0,-1.797959318E0,1.736469852E1,1.873934285E1
1.454142817E1,-9.296851863E0,-1.864749869E0,1.706927613E1,1.952610904E1
1.455141417E1,-1.182973588E1,-1.300318581E0,1.690391454E1,2.067306958E1
1.456139917E1,-1.421119220E1,-1.008785033E0,1.584112813E1,2.130532730E1
1.457138517E1,-1.605898369E1,-1.122499198E0,1.347578321E1,2.099399187E1
1.458137017E1,-1.699288928E1,-1.292482873E0,1.060390454E1,2.007166135E1
1.459135617E1,-1.659661529E1,-7.383027774E-1,7.299015564E0,1.814575317E1
1.460134117E1,-1.536854446E1,2.847366712E-1,4.022063420E0,1.588868239E1
1.461132617E1,-1.428051095E1,5.694864256E-1,1.715507584E0,1.439445289E1
1.462131217E1,-1.281474028E1,3.759655876E-1,5.813488913E-1,1.283342843E1
1.463129717E1,-1.139857155E1,5.492845148E-1,6.632882631E-1,1.143105849E1
1.464128317E1,-1.043725538E1,8.026292393E-1,1.689900287E0,1.060359734E1
1.465126817E1,-9.561607355E0,1.220103772E0,2.884150230E0,1.006137719E1
1.466125417E1,-8.607454612E0,1.345334102E0,3.654058962E0,9.447240107E0
1.467123917E1,-7.573756347E0,1.077565392E0,3.748131891E0,8.518886374E0
1.468122517E1,-6.713004688E0,6.595055531E-1,2.953202339E0,7.363476324E0
1.469121017E1,-6.023403955E0,1.731067463E-1,1.534447966E0,6.218190388E0
1.470119617E1,-5.099518154E0,-3.085489819E-1,2.273397446E-2,5.108894666E0
1.471118117E1,-4.250245748E0,-7.112455910E-1,-1.228712263E0,4.481092839E0
1.472116717E1,-3.537103540E0,-8.523163929E-1,-2.154197277E0,4.228251482E0
1.473115217E1,-2.762129949E0,-8.206945775E-1,-2.696772112E0,3.946578426E0
1.474113717E1,-1.860731517E0,-6.368270541E-1,-2.824822041E0,3.442018309E0
1.475112317E1,-1.209986408E0,-4.031927088E-1,-2.598765761E0,2.894860091E0
1.476110817E1,-9.836379129E-1,-2.897464925E-1,-2.225713987E0,2.450571224E0
1.477109417E1,-1.070104199E0,-3.865620215E-1,-2.002825727E0,2.303446133E0
1.478107917E1,-1.226194232E0,-6.013513755E-1,-1.996725912E0,2.419109369E0
1.479106517E1,-1.332429004E0,-8.722522554E-1,-2.234732147E0,2.744124418E0
1.480105017E1,-1.251221265E0,-1.145266136E0,-2.608637030E0,3.111619567E0
1.481103617E1,-9.989318901E-1,-1.360862845E0,-2.931993903E0,3.383252998E0
1.482102117E1,-7.735875810E-1,-1.391664661E0,-3.054591304E0,3.444662002E0
1.483100717E1,-3.486495157E-1,-1.300383047E0,-2.864265604E0,3.164896523E0
1.484099217E1,3.224595445E-1,-1.164179906E0,-2.483599001E0,2.761803579E0
1.485097817E1,1.314245918E0,-1.074290001E0,-2.198667106E0,2.777674996E0
1.486096317E1,2.292832713E0,-1.053701590E0,-2.261179104E0,3.388259115E0
1.487094917E1,3.066876304E0,-1.048965930E0,-2.517997001E0,4.104432809E0
1.488093417E1,3.409568750E0,-1.128232174E0,-2.615075984E0,4.442599385E0
1.489091917E1,3.673092234E0,-1.049480339E0,-2.489769568E0,4.559821054E0
1.490090517E1,4.180014256E0,-9.148223242E-1,-2.113957323E0,4.772654883E0
1.491089017E1,4.296328532E0,-1.001050336E0,-1.418660232E0,4.633911683E0
1.492087617E1,4.044023515E0,-9.699314547E-1,-5.481647730E-1,4.194684474E0
1.493086117E1,4.014131672E0,-7.900997525E-1,3.899858952E-1,4.109695815E0
1.494084717E1,4.136329416E0,-4.379863463E-1,1.464318801E0,4.409680558E0
1.495083217E1,4.505217095E0,6.017618135E-2,2.770675655E0,5.289352118E0
1.496081817E1,5.074733561E0,4.988712832E-1,4.365120147E0,6.712381631E0
1.497080317E1,5.808874290E0,9.566367866E-1,5.826539898E0,8.282918667E0
1.498078917E1,6.535437613E0,1.317189991E0,7.161860350E0,9.784639898E0
1.499077417E1,6.774653637E0,1.302550317E0,8.367643926E0,1.084481600E1
1.500076017E1,6.316575161E0,1.098232449E0,9.209038378E0,1.122103490E1
1.501074517E1,5.275010052E0,8.128361390E-1,9.621569967E0,1.100277430E1
1.502073017E1,4.028590667E0,4.379269970E-1,9.795835120E0,1.060092961E1
1.503071617E1,2.927275785E0,2.031315409E-1,9.805974192E0,1.023559162E1
1.504070117E1,1.997807647E0,-5.690517582E-2,1.004360094E1,1.024052701E1
1.505068717E1,1.066876024E0,-3.444068491E-2,1.082690097E1,1.087939314E1
1.506067217E1,1.688527507E-1,1.628323844E-1,1.188711343E1,1.188942772E1
1.507065817E1,-4.094967382E-1,4.246853194E-1,1.298906449E1,1.300245521E1
1.508064317E1,-7.626835471E-1,4.345742036E-1,1.416404494E1,1.419121946E1
1.509062917E1,-1.067630608E0,1.714037447E-1,1.515869608E1,1.519721294E1
1.510061458E1,-1.586788148E0,-4.838530753E-1,1.582365197E1,1.591037310E1
1.511060058E1,-2.430264062E0,-1.156889012E0,1.634228012E1,1.656244834E1
1.512058558E1,-3.386258240E0,-1.897626570E0,1.641386758E1,1.686661733E1
1.513057158E1,-4.854262833E0,-3.026694823E0,1.564980255E1,1.666256490E1
1.514055658E1,-6.504879479E0,-4.003185099E0,1.484783938E1,1.669722379E1
1.515054158E1,-7.844167267E0,-4.584772557E0,1.439210389E1,1.702009853E1
1.516052758E1,-8.724973707E0,-5.219977228E0,1.412932885E1,1.740721868E1
1.517051258E1,-9.156754330E0,-6.192332354E0,1.371695981E1,1.761664316E1
1.518049858E1,-9.108150519E0,-7.112874132E0,1.320497527E1,1.754772795E1
1.519048358E1,-9.115552509E0,-7.946826248E0,1.267247636E1,1.751676346E1
1.520046958E1,-9.412320338E0,-8.754260656E0,1.198378311E1,1.757384168E1
1.521045458E1,-9.991957165E0,-9.574028596E0,1.097141841E1,1.765993356E1
1.522044058E1,-1.077420937E1,-1.077804280E1,9.633842688E0,1.802944035E1
1.523042558E1,-1.198674531E1,-1.245465120E1,8.135448654E0,1.910460480E1
1.524041158E1,-1.334073124E1,-1.375596776E1,6.545860274E0,2.024969249E1
1.525039658E1,-1.431458852E1,-1.438161749E1,4.706622099E0,2.083004219E1
1.526038258E1,-1.461882734E1,-1.459975840E1,3.180486535E0,2.090403197E1
1.527036758E1,-1.424595624E1,-1.478968064E1,2.317009488E0,2.066519914E1
1.528035358E1,-1.356436152E1,-1.469707010E1,1.615446521E0,2.006503028E1
1.529033858E1,-1.271388868E1,-1.427155886E1,7.821680045E-1,1.912935295E1
1.530032358E1,-1.179339894E1,-1.387059072E1,3.817588627E-2,1.820656483E1
1.531030958E1,-1.133844931E1,-1.387660751E1,-3.402003622E-1,1.792306907E1
1.532029458E1,-1.115647109E1,-1.408376500E1,-7.194326431E-1,1.798157021E1
1.533028058E1,-1.082948544E1,-1.415262883E1,-1.498180026E0,1.788348962E1
1.534026558E1,-1.030608713E1,-1.441673704E1,-2.168777309E0,1.785388848E1
1.535025158E1,-9.683559809E0,-1.475620767E1,-2.635737121E0,1.784556263E1
1.536023658E1,-9.058346860E0,-1.500310869E1,-2.783926030E0,1.774534199E1
1.537022258E1,-8.035437877E0,-1.439209687E1,-2.624696700E0,1.669100797E1
1.538020758E1,-6.633348654E0,-1.363306630E1,-2.104912266E0,1.530661513E1
1.539019358E1,-5.535104730E0,-1.373788583E1,-1.571879502E0,1.489421688E1
1.540017858E1,-4.935906628E0,-1.428616170E1,-1.730742504E0,1.521358143E1
1.541016458E1,-5.030379506E0,-1.472129628E1,-2.392031750E0,1.573985699E1
1.542014958E1,-5.730668950E0,-1.510646290E1,-3.148297320E0,1.646078868E1
1.543013458E1,-6.913985184E0,-1.555826673E1,-3.894939104E0,1.746520556E1
1.544012058E1,-7.768221876E0,-1.580825976E1,-4.688288739E0,1.822707873E1
1.545010558E1,-7.693193913E0,-1.580237863E1,-5.260018961E0,1.834579522E1
1.546009158E1,-6.914591541E0,-1.580450585E1,-5.407883350E0,1.807869419E1
1.547007658E1,-5.863055760E0,-1.602553411E1,-5.197684134E0,1.783841603E1
1.548006258E1,-4.408141621E0,-1.633906649E1,-5.025316987E0,1.765362900E1
1.549004758E1,-2.407927991E0,-1.651351232E1,-5.135254582E0,1.746038504E1
1.550003358E1,-4.036673565E-1,-1.629060944E1,-5.121918252E0,1.708159682E1
1.551001858E1,1.365943490E0,-1.594576405E1,-4.919846081E0,1.674329950E1
1.552000458E1,2.700983861E0,-1.548012454E1,-4.664979399E0,1.639181510E1
1.552998958E1,3.480268019E0,-1.533748171E1,-4.653598378E0,1.640142033E1
1.553997558E1,3.288701832E0,-1.545040899E1,-4.789145023E0,1.650656257E1
1.554996058E1,2.468759353E0,-1.580074609E1,-5.132496450E0,1.679585870E1
1.555994658E1,2.589973887E0,-1.611327508E1,-5.316907107E0,1.716435550E1
1.556993158E1,3.031897383E0,-1.637229270E1,-5.001406553E0,1.738558131E1
1.557991658E1,3.235447731E0,-1.640012545E1,-4.353556693E0,1.727384418E1
1.558990258E1,3.807587550E0,-1.598354525E1,-3.438729399E0,1.678678950E1
1.559988758E1,4.284984349E0,-1.542919880E1,-2.199459404E0,1.616350482E1
1.560987358E1,4.184283308E0,-1.477695242E1,-1.090273000E0,1.539659848E1
1.561985858E1,3.440478301E0,-1.427516074E1,-4.205200553E-1,1.468992656E1
1.562984458E1,2.407699511E0,-1.446075137E1,-6.674082112E-1,1.467500531E1
1.563982958E1,3.010335775E0,-1.494566096E1,-1.566769620E0,1.532611073E1
1.564981558E1,4.471436268E0,-1.471679393E1,-2.315790929E0,1.555444160E1
1.565980058E1,5.730408749E0,-1.392984056E1,-2.400322956E0,1.525252742E1
1.566978658E1,7.170916518E0,-1.300737914E1,-1.370918886E0,1.491621180E1
1.567977158E1,8.279694786E0,-1.200709830E1,-2.203470594E-1,1.458671684E1
1.568975758E1,9.064783475E0,-1.083080925E1,6.648944932E-1,1.413926494E1
1.569974258E1,9.483851666E0,-9.756003302E0,1.322761218E0,1.367014046E1
1.570972758E1,9.340794858E0,-9.448887656E0,1.263932381E0,1.334651459E1
1.571971358E1,9.307564546E0,-9.000796809E0,7.461047173E-4,1.294778365E1
1.572969858E1,1.017742734E1,-7.915601531E0,-7.458240509E-1,1.291483753E1
1.573968458E1,1.119039547E1,-7.385858411E0,4.252364194E-1,1.341479337E1
1.574966958E1,1.229947779E1,-6.812914308E0,3.051934914E0,1.438774694E1
1.575965558E1,1.349867389E1,-5.465486611E0,6.049825183E0,1.576978521E1
1.576964058E1,1.396155118E1,-4.617114969E0,9.010129550E0,1.724601683E1
1.577962658E1,1.403027467E1,-4.248648874E0,1.075311145E1,1.818045738E1
1.578961158E1,1.372694335E1,-4.066674167E0,1.125418274E1,1.821053106E1
1.579959758E1,1.201054582E1,-4.367699938E0,1.133157181E1,1.708023809E1
1.580958258E1,9.856698203E0,-4.280923165E0,1.136897294E1,1.564398761E1
1.581956858E1,7.707424282E0,-4.343583682E0,1.208728935E1,1.497910786E1
1.582955358E1,5.448841342E0,-4.682967188E0,1.379283328E1,1.555192283E1
1.583953858E1,3.088636425E0,-4.965246202E0,1.639283631E1,1.740455191E1
1.584952458E1,3.972627550E-1,-5.001503617E0,1.903550063E1,1.968560744E1
1.585950958E1,-1.940329371E0,-4.451591988E0,2.059421863E1,2.115900259E1
1.586949558E1,-3.385337303E0,-3.449100898E0,2.028297836E1,2.085080375E1
1.587948058E1,-4.452836275E0,-2.656260263E0,1.874255746E1,1.944651459E1
1.588946658E1,-5.448284687E0,-2.258374341E0,1.690660542E1,1.790579146E1
1.589945158E1,-7.146862827E0,-2.222403586E0,1.502546727E1,1.678634542E1
1.590943758E1,-9.880008713E0,-2.672189248E0,1.395862056E1,1.730890682E1
1.591942258E1,-1.336454578E1,-3.162170717E0,1.365120319E1,1.936403254E1
1.592940858E1,-1.657838835E1,-2.798892564E0,1.304926275E1,2.128285737E1
1.593939358E1,-1.846185369E1,-1.943788584E0,1.259760042E1,2.243474743E1
1.594937958E1,-1.861169093E1,-1.104047724E0,1.231960157E1,2.234695826E1
1.595936458E1,-1.731888441E1,-5.411567388E-1,1.164393592E1,2.087625090E1
1.596935058E1,-1.538098851E1,-4.264682816E-1,1.018747051E1,1.845375946E1
1.597933558E1,-1.305827564E1,-5.203098071E-1,7.846851724E0,1.524343685E1
1.598932058E1,-1.065469579E1,-7.168174028E-1,5.007979993E0,1.179475448E1
1.599930658E1,-8.707111632E0,-5.399031689E-1,2.304998723E0,9.023209380E0
1.600929158E1,-7.555770897E0,-1.513362468E-1,4.858036333E-1,7.572884634E0
1.601927758E1,-7.182745435E0,-2.418724874E-1,-4.204077888E-1,7.199102513E0
1.602926258E1,-6.902022951E0,-4.490064474E-1,-8.659334618E-1,6.970607460E0
1.603924858E1,-6.435604007E0,-4.275455945E-1,-1.256904028E0,6.571118771E0
1.604923358E1,-5.984452727E0,-5.643996038E-1,-1.631471985E0,6.228476716E0
1.605921958E1,-5.472211493E0,-8.608408293E-1,-1.979227535E0,5.882472881E0
1.606920458E1,-4.784130451E0,-1.054706653E0,-2.360743153E0,5.438144769E0
1.607919058E1,-4.085367131E0,-1.133548901E0,-2.516385509E0,4.930248851E0
1.608917558E1,-3.655004457E0,-1.340349204E0,-2.503487720E0,4.628503466E0
1.609916158E1,-3.272010370E0,-1.494272917E0,-2.466212305E0,4.361319359E0
1.610914667E1,-2.693919255E0,-1.458135955E0,-2.344407202E0,3.857409305E0
1.611913167E1,-1.999259949E0,-1.454549419E0,-2.277744266E0,3.361677155E0
1.612911767E1,-1.390262060E0,-1.655531962E0,-2.458212730E0,3.273595042E0
1.613910267E1,-7.380335131E-1,-1.744993777E0,-2.772653768E0,3.358169987E0
1.614908867E1,1.283383437E-1,-1.775827753E0,-3.060231528E0,3.540487529E0
1.615907367E1,1.351679646E0,-1.657539457E0,-3.140691555E0,3.799791884E0
1.616905967E1,2.393358483E0,-1.177177535E0,-2.948881246E0,3.976155478E0
1.617904467E1,3.276397244E0,-7.084776653E-1,-2.447469640E0,4.150521310E0
1.618903067E1,3.828066253E0,-4.734509517E-1,-1.865410312E0,4.284623983E0
1.619901567E1,4.062420902E0,-3.571333871E-1,-1.240282148E0,4.262523625E0
1.620900167E1,4.268809196E0,-1.109030795E-1,-5.010765606E-1,4.299547554E0
1.621898667E1,4.492383041E0,2.730838465E-1,3.179832816E-1,4.511894674E0
1.622897267E1,4.748470037E0,3.846719821E-1,1.261102329E0,4.928115188E0
1.623895767E1,5.336873009E0,4.143162326E-1,2.161461273E0,5.772849062E0
1.624894367E1,6.028616163E0,5.648718761E-1,2.924931636E0,6.724471589E0
1.625892867E1,6.247058199E0,6.954711919E-1,3.398045642E0,7.145357269E0
1.626891367E1,5.915083700E0,6.509515151E-1,3.929987900E0,7.131392427E0
1.627889967E1,5.305436039E0,5.655236945E-1,4.950546886E0,7.278418996E0
1.628888467E1,4.657703416E0,5.803994496E-1,6.075257648E0,7.677227372E0
1.629887067E1,4.414549584E0,6.485819310E-1,7.142900754E0,8.421991316E0
1.630885567E1,4.590335013E0,5.048424599E-1,8.122611676E0,9.343600050E0
1.631884167E1,4.683140266E0,1.409445751E-1,8.882726907E0,1.004263439E1
1.632882667E1,4.599516019E0,-4.086326659E-2,9.577448047E0,1.062472251E1
1.633881267E1,4.400599297E0,-1.008496327E-1,1.053743807E1,1.141985314E1
1.634879767E1,4.103763056E0,-1.060276345E-1,1.147231780E1,1.218467024E1
1.635878367E1,3.695068994E0,-3.261666792E-1,1.235175307E1,1.289673305E1
1.636876867E1,3.027642072E0,-4.380819848E-1,1.315204043E1,1.350313666E1
1.637875467E1,2.049563545E0,-4.959280507E-1,1.392730404E1,1.408603752E1
1.638873967E1,7.117083250E-1,-9.012189232E-1,1.435243287E1,1.439830037E1
1.639872467E1,-8.847707056E-1,-1.683988460E0,1.418899384E1,1.431594155E1
1.640871067E1,-2.469041773E0,-2.691981780E0,1.351775570E1,1.400259448E1
1.641869567E1,-3.939900684E0,-3.680841257E0,1.262378074E1,1.372702626E1
1.642868167E1,-5.479382519E0,-4.523893102E0,1.189574158E1,1.385633102E1
1.643866667E1,-6.651487886E0,-5.118350866E0,1.130238953E1,1.407777737E1
1.644865267E1,-7.370304818E0,-5.550932558E0,1.084189791E1,1.423660759E1
1.645863767E1,-8.435961624E0,-6.168280417E0,1.056422650E1,1.485987932E1
1.646862367E1,-9.887560977E0,-6.955947728E0,9.955431948E0,1.566076933E1
1.647860867E1,-1.150994931E1,-7.676379660E0,9.082291208E0,1.654973569E1
1.648859467E1,-1.322473652E1,-8.322847238E0,8.135221197E0,1.761661903E1
1.649857967E1,-1.476808804E1,-8.904107836E0,7.205626760E0,1.868958581E1
1.650856567E1,-1.589816070E1,-9.441738850E0,6.435279486E0,1.957832394E1
1.651855067E1,-1.614151480E1,-9.803873872E0,5.896548611E0,1.978468419E1
1.652853667E1,-1.577148662E1,-9.957423509E0,5.453579925E0,1.943274574E1
1.653852167E1,-1.506261229E1,-1.006447550E1,4.825919332E0,1.874741192E1
1.654850667E1,-1.403795558E1,-1.016430852E1,4.038645539E0,1.779573045E1
1.655849267E1,-1.284970078E1,-1.043037087E1,3.272105972E0,1.687051049E1
