"Time (s)","Linear Acceleration x (m/s^2)","Linear Acceleration y (m/s^2)","Linear Acceleration z (m/s^2)","Absolute acceleration (m/s^2)"
7.487166673E-3,1.043247791E-1,2.797371557E-1,3.060075992E-1,4.275244865E-1
1.747216663E-2,-3.735869403E-1,2.940276776E-1,-2.601315147E-1,5.419297760E-1
2.745816665E-2,-6.279908149E-1,2.109937801E-1,-4.906246626E-1,8.243806150E-1
3.744316666E-2,-7.359160902E-1,1.570766777E-1,-2.208674616E-1,7.842372154E-1
4.742916662E-2,-8.048226030E-1,1.519704504E-1,-1.262057179E-1,8.287112425E-1
5.741416663E-2,-9.791421349E-1,1.874821991E-1,-2.936126715E-1,1.039267673E0
6.740016665E-2,-1.127537086E0,2.476295829E-1,-3.978720349E-1,1.221049732E0
7.738516666E-2,-1.049997379E0,2.932296789E-1,-2.525389051E-1,1.119041571E0
8.737116662E-2,-7.608624317E-1,3.185011256E-1,4.896633804E-2,8.262882725E-1
9.735616663E-2,-5.025285704E-1,2.276467965E-1,1.353525174E-1,5.680478255E-1
1.073421667E-1,-1.465551613E-2,4.546592432E-1,1.645587748E0,1.707304557E0
1.173271667E-1,7.152305050E-2,2.078972409E-1,2.117474424E0,2.128857615E0
1.273131666E-1,-3.114648787E-1,-5.825814843E-2,9.421232665E-1,9.939822090E-1
1.372981666E-1,-6.189938504E-1,-1.180900750E-1,8.249427259E-2,6.355343874E-1
1.472841667E-1,-6.764337540E-1,-2.223318236E-1,-5.872499013E-1,9.229607305E-1
1.572691667E-1,-5.318288219E-1,-3.066797367E-1,-1.007292824E0,1.179632650E0
1.672551666E-1,-3.395757334E-1,-3.136272521E-1,-1.108002927E0,1.200559961E0
1.772401666E-1,3.863949738E-3,-1.503389311E-1,-1.032456901E0,1.043352278E0
1.872261667E-1,4.178152430E-1,1.287608050E-2,-8.053989923E-1,9.074155098E-1
1.972111667E-1,8.522046380E-1,2.508509602E-1,-5.652789885E-1,1.052957399E0
2.071971666E-1,1.240285072E0,4.771553821E-1,-4.865818977E-1,1.415184179E0
2.171821666E-1,1.488067267E0,5.686880614E-1,-6.059931511E-1,1.704399601E0
2.271681667E-1,1.538231115E0,5.076882266E-1,-8.972990960E-1,1.851768875E0
2.371531667E-1,1.540495157E0,3.153772507E-1,-1.301549858E0,2.041230063E0
2.471381666E-1,1.691299526E0,1.271210995E-1,-1.735492782E0,2.426641518E0
2.571241666E-1,1.854800978E0,9.738873884E-2,-2.172807210E0,2.858472041E0
2.671091667E-1,2.023281042E0,1.733623427E-1,-2.451741616E0,3.183513410E0
2.770951666E-1,2.276979450E0,2.743079428E-1,-2.489604092E0,3.384968064E0
2.870801666E-1,2.674476971E0,3.262070981E-1,-2.349359794E0,3.574734896E0
2.970661666E-1,3.188328236E0,3.227361909E-1,-2.113831024E0,3.838994293E0
3.070511667E-1,3.653485058E0,3.403064161E-1,-1.701901698E0,4.044778228E0
3.170371666E-1,3.920429749E0,3.766294659E-1,-1.156520199E0,4.104772605E0
3.270221666E-1,3.948057843E0,2.410083421E-1,-5.860705179E-1,3.998590302E0
3.370081667E-1,3.913431509E0,9.792969765E-2,5.283894897E-2,3.915013199E0
3.469931667E-1,3.834081869E0,-6.127582334E-2,7.256049639E-1,3.902619769E0
3.569791666E-1,3.714721778E0,-3.119144565E-1,1.155155459E0,3.902669939E0
3.669641666E-1,3.673676956E0,-4.751293219E-1,1.431658593E0,3.971309176E0
3.769501667E-1,3.841256987E0,-4.468265323E-1,1.772029109E0,4.253821382E0
3.869351667E-1,4.177025160E0,-2.509476585E-1,2.129501562E0,4.695241294E0
3.969211666E-1,4.606186523E0,2.769515421E-2,2.409392572E0,5.198354919E0
4.069061666E-1,5.047373854E0,2.932820480E-1,2.464724189E0,5.624665546E0
4.168921667E-1,5.472377554E0,5.026868473E-1,2.514301561E0,6.043287392E0
4.268771667E-1,5.778212076E0,6.768627935E-1,2.954168884E0,6.524798221E0
4.368631666E-1,5.900748081E0,8.229904868E-1,3.906023086E0,7.124125042E0
4.468481666E-1,5.777016905E0,9.239937551E-1,5.130468636E0,7.781349317E0
4.568341667E-1,5.417435946E0,8.359209464E-1,6.328028103E0,8.372055645E0
4.668191667E-1,4.870180416E0,5.191089351E-1,7.171156254E0,8.684101185E0
4.768051666E-1,4.126118423E0,6.331825577E-2,7.572265892E0,8.623692549E0
4.867901666E-1,3.353382854E0,-2.470070006E-1,7.778955025E0,8.474569624E0
4.967761667E-1,2.477245417E0,-2.624965672E-1,7.905449011E0,8.288653290E0
5.067611667E-1,1.554234505E0,-1.818400014E-1,8.176540546E0,8.324933993E0
5.167471666E-1,7.828470124E-1,-1.925670109E-1,8.698180595E0,8.735460902E0
5.267321666E-1,-9.727650885E-2,-2.693076233E-1,9.248659111E0,9.253090547E0
5.367181667E-1,-9.959498832E-1,-2.562405216E-1,9.770601461E0,9.824572677E0
5.467031666E-1,-1.949651879E0,-1.980493968E-1,1.010026982E1,1.028862558E1
5.566881666E-1,-2.965457518E0,-3.489536806E-1,1.015807773E1,1.058783501E1
5.666741667E-1,-3.937698915E0,-7.683141234E-1,1.004109132E1,1.081292256E1
5.766591667E-1,-5.068786942E0,-1.292693373E0,9.742030211E0,1.105761321E1
5.866451666E-1,-6.093855302E0,-1.734284747E0,9.207710475E0,1.117697402E1
5.966301666E-1,-6.972819284E0,-2.097840935E0,8.512601080E0,1.120203207E1
6.066161667E-1,-7.597859740E0,-2.457481828E0,7.671779070E0,1.107352174E1
6.166011667E-1,-8.117157394E0,-2.832691224E0,6.741619207E0,1.092528321E1
6.265871666E-1,-8.684278840E0,-3.205621961E0,5.785977178E0,1.091651240E1
6.365721666E-1,-9.295145645E0,-3.710083475E0,4.810251718E0,1.110418721E1
6.465581667E-1,-9.620622718E0,-4.313337790E0,3.805859113E0,1.120918498E1
6.565431667E-1,-9.706479725E0,-4.886447954E0,2.768537913E0,1.121418407E1
6.665291666E-1,-9.725621755E0,-5.267519184E0,1.819880968E0,1.120921244E1
6.765141666E-1,-9.602392269E0,-5.493990617E0,8.683343285E-1,1.109702098E1
6.865001667E-1,-9.224862113E0,-5.792980388E0,-3.613696218E-2,1.089302569E1
6.964851667E-1,-8.598862714E0,-6.073688840E0,-8.873617530E-1,1.056492059E1
7.064711666E-1,-7.965116923E0,-6.186688621E0,-1.650620447E0,1.021972365E1
7.164561666E-1,-7.414022695E0,-6.207220534E0,-2.297410206E0,9.938582038E0
7.264421667E-1,-6.739374461E0,-6.260646544E0,-3.084299837E0,9.701946648E0
7.364271667E-1,-5.984707081E0,-6.321185106E0,-3.932257204E0,9.551792853E0
7.464131666E-1,-5.410274277E0,-6.386302623E0,-4.698972187E0,9.598763908E0
7.563981666E-1,-5.002235688E0,-6.631581625E0,-5.356208582E0,9.883785060E0
7.663841667E-1,-4.506350285E0,-6.870791218E0,-5.906720427E0,1.011950152E1
7.763691666E-1,-3.943617759E0,-7.058207928E0,-6.324465394E0,1.026495410E1
7.863551666E-1,-3.372102131E0,-7.157286658E0,-6.658308663E0,1.034073979E1
7.963401666E-1,-2.651519340E0,-7.121729155E0,-7.034379355E0,1.035529207E1
8.063261667E-1,-1.946083324E0,-6.916607076E0,-7.228777640E0,1.019224803E1
8.163111666E-1,-1.416204256E0,-6.572372135E0,-7.253999020E0,9.890511198E0
8.262971666E-1,-8.717137268E-1,-6.169638725E0,-7.130519274E0,9.469352245E0
8.362821667E-1,1.492618740E-2,-5.856718547E0,-7.050960889E0,9.166101919E0
8.462671667E-1,7.827623740E-1,-5.775807116E0,-6.942557019E0,9.064864187E0
8.562531666E-1,1.165324352E0,-5.723421326E0,-6.828612912E0,8.985849255E0
8.662381666E-1,1.230937567E0,-5.672097976E0,-6.479497300E0,8.698953271E0
8.762241667E-1,1.468505553E0,-5.664419412E0,-6.228620759E0,8.546219772E0
8.862091667E-1,1.646834228E0,-5.731897450E0,-6.079961148E0,8.516609590E0
8.961951666E-1,1.668376102E0,-5.724515925E0,-6.055277127E0,8.498231727E0
9.061801666E-1,1.461942492E0,-5.719720039E0,-6.153438429E0,8.527442622E0
9.161661667E-1,1.263711941E0,-5.652448407E0,-6.231250836E0,8.507386664E0
9.261511667E-1,1.237803367E0,-5.584090948E0,-6.312690271E0,8.518467430E0
9.361371666E-1,1.401977834E0,-5.601153123E0,-6.380031484E0,8.604839330E0
9.461221666E-1,1.751792919E0,-5.667644736E0,-6.378547461E0,8.710731485E0
9.561081667E-1,2.226129139E0,-5.649593212E0,-6.238552839E0,8.705923037E0
9.660931667E-1,2.585573273E0,-5.549902278E0,-5.934171935E0,8.526488199E0
9.760791666E-1,2.850065056E0,-5.294541507E0,-5.545988152E0,8.180038213E0
9.860641666E-1,3.294080101E0,-4.805719541E0,-5.161672887E0,7.783878918E0
9.960501667E-1,3.856600373E0,-4.268500171E0,-4.779452679E0,7.479079359E0
1.006035167E0,4.414705705E0,-3.934813022E0,-4.438177013E0,7.393902568E0
1.016021167E0,5.110422626E0,-3.714850417E0,-4.053496882E0,7.506488527E0
1.026006167E0,5.799746202E0,-3.437861672E0,-3.491421583E0,7.592494554E0
1.035992167E0,6.190066558E0,-3.058362173E0,-2.765407898E0,7.437606067E0
1.045977167E0,6.226202935E0,-2.656792944E0,-1.980124497E0,7.053016713E0
1.055963167E0,6.325945909E0,-2.292790321E0,-1.293429830E0,6.851820183E0
1.065948167E0,6.350983686E0,-1.963342988E0,-7.304838806E-1,6.687549340E0
1.075934167E0,5.818101781E0,-1.792094122E0,-1.442128032E-1,6.089557210E0
1.085919167E0,5.176866876E0,-1.612104253E0,3.250204057E-1,5.431801639E0
1.095905167E0,4.912413685E0,-1.476978022E0,6.202755600E-1,5.167012102E0
1.105890167E0,5.003325024E0,-1.417550431E0,9.463069493E-1,5.285660542E0
1.115875167E0,5.347088680E0,-1.296244387E0,1.227223561E0,5.637169904E0
1.125861167E0,5.761056930E0,-1.015711937E0,1.221730687E0,5.976125297E0
1.135846167E0,6.059456132E0,-7.143848880E-1,1.194729415E0,6.217293041E0
1.145832167E0,6.048197318E0,-3.861229321E-1,1.260876626E0,6.190282028E0
1.155817167E0,5.523619044E0,7.620442271E-2,1.671668669E0,5.771537975E0
1.165803167E0,4.637306574E0,5.035731755E-1,2.473174000E0,5.279657928E0
1.175788167E0,3.787692983E0,7.359152131E-1,3.460038992E0,5.182669115E0
1.185774167E0,3.375533277E0,7.598320062E-1,4.240425349E0,5.472913002E0
1.195759167E0,3.211772355E0,7.144701111E-1,4.720480585E0,5.754032165E0
1.205745167E0,2.952489271E0,9.265337855E-1,5.008581086E0,5.887405392E0
1.215730167E0,2.670844096E0,1.074532442E0,5.195440557E0,5.939750056E0
1.225716167E0,2.457060243E0,9.364666700E-1,5.440490348E0,6.042602924E0
1.235701167E0,2.030102404E0,7.373197874E-1,5.824773454E0,6.212321791E0
1.245687167E0,1.452750523E0,5.284723374E-1,6.356726237E0,6.541997825E0
1.255672167E0,9.021003909E-1,3.356453812E-1,6.935837983E0,7.002306154E0
1.265658167E0,5.481703278E-1,1.937357231E-1,7.396502098E0,7.419317187E0
1.275643167E0,5.364196171E-1,9.243592791E-2,7.591152983E0,7.610643470E0
1.285629167E0,5.659093183E-1,2.686999149E-1,7.595030272E0,7.620822648E0
1.295614167E0,3.459566902E-1,5.480754202E-1,7.389048652E0,7.417419543E0
1.305600167E0,6.473613247E-2,6.808930600E-1,6.919071677E0,6.952795050E0
1.315585167E0,1.148561627E-1,6.236295229E-1,6.316623108E0,6.348372485E0
1.325571167E0,8.310819369E-2,4.965020645E-1,5.679873603E0,5.702138671E0
1.335556167E0,-1.178367443E-1,5.261054941E-1,5.018171690E0,5.047050584E0
1.345542167E0,-5.515432942E-1,3.079467552E-1,4.257970505E0,4.304572456E0
1.355527167E0,-1.082733381E0,1.875121661E-2,3.450639592E0,3.616569753E0
1.365513167E0,-1.737965569E0,-1.534196097E-1,2.845511829E0,3.337813576E0
1.375498167E0,-2.257692117E0,-2.728867040E-1,2.441704870E0,3.336699495E0
1.385484167E0,-2.401949944E0,-3.529310663E-1,2.221004055E0,3.290407707E0
1.395469167E0,-2.239556247E0,-2.414715146E-1,2.194827240E0,3.145025800E0
1.405454167E0,-1.788163624E0,-2.491717860E-3,2.150918158E0,2.797138587E0
1.415440167E0,-1.303812439E0,2.891261760E-1,1.973114271E0,2.382582789E0
1.425425167E0,-1.075452501E0,4.457162192E-1,1.605205123E0,1.982913139E0
1.435411167E0,-1.125971860E0,4.270114148E-1,1.195980134E0,1.697209433E0
1.445396167E0,-1.103122841E0,2.053786989E-1,6.633929282E-1,1.303514706E0
1.455382583E0,-1.051753590E0,-1.481618665E-1,6.569814563E-2,1.064168125E0
1.465367583E0,-1.113250072E0,-3.939846598E-1,-4.091817194E-1,1.249791709E0
1.475353583E0,-1.220203394E0,-5.094171752E-1,-7.728919816E-1,1.531588782E0
1.485338583E0,-1.107645662E0,-6.077191760E-1,-9.922146088E-1,1.606453031E0
1.495324583E0,-7.021374562E-1,-6.379502311E-1,-1.081907389E0,1.438923592E0
1.505309583E0,-1.710355529E-1,-6.618190771E-1,-1.192570038E0,1.374583918E0
1.515295583E0,4.223780812E-1,-6.745061463E-1,-1.434552380E0,1.640518916E0
1.525280583E0,1.215582047E0,-6.608830109E-1,-1.863984761E0,2.321388649E0
1.535266583E0,2.210707985E0,-6.600668858E-1,-2.415898184E0,3.340581106E0
1.545251583E0,3.251177618E0,-5.414131393E-1,-2.941969838E0,4.417971324E0
1.555237583E0,4.251736496E0,-3.895284967E-1,-3.342245078E0,5.422139600E0
1.565222583E0,5.239992247E0,-1.918503615E-1,-3.378890748E0,6.237886501E0
1.575208583E0,6.154641201E0,7.818392448E-2,-2.939785318E0,6.821147906E0
1.585193583E0,6.871207539E0,3.242505466E-1,-2.166670557E0,7.212010314E0
1.595179583E0,7.383874451E0,4.671180517E-1,-1.214489495E0,7.497652027E0
1.605164583E0,7.597148134E0,3.830601606E-1,-2.880233181E-1,7.612250146E0
1.615150583E0,7.695588348E0,2.813031131E-1,4.880898947E-1,7.716180610E0
1.625135583E0,7.645177748E0,2.852216247E-1,1.167728727E0,7.739101017E0
1.635121583E0,7.557582364E0,2.556139559E-1,1.539221633E0,7.716967858E0
1.645106583E0,7.578570360E0,4.620557517E-2,1.641882952E0,7.754524053E0
1.655092583E0,7.567204542E0,-1.495587663E-1,1.885321836E0,7.799960951E0
1.665077583E0,7.496222852E0,-5.667092174E-2,2.589348820E0,7.931033726E0
1.675063583E0,7.243550046E0,2.966248646E-2,3.695184184E0,8.131683915E0
1.685048583E0,6.820260165E0,9.591670230E-2,5.127562569E0,8.533290493E0
1.695033583E0,6.127745179E0,1.769686130E-1,6.863501494E0,9.202620911E0
1.705019583E0,5.344943921E0,1.357612377E-1,8.626268029E0,1.014885987E1
1.715004583E0,4.531147742E0,-1.587473734E-1,1.006567886E1,1.103967352E1
1.724990583E0,3.439964038E0,-6.880832349E-1,1.110433381E1,1.164530122E1
1.734975583E0,2.232688546E0,-1.137795807E0,1.173633128E1,1.200087286E1
1.744961583E0,9.751505332E-1,-1.391544939E0,1.200728541E1,1.212692124E1
1.754946583E0,-3.592300159E-1,-1.453818078E0,1.216972574E1,1.226151939E1
1.764932583E0,-1.441293342E0,-1.373887517E0,1.230055836E1,1.246068334E1
1.774917583E0,-2.366759207E0,-1.252331067E0,1.232560549E1,1.261310560E1
1.784903583E0,-3.260296935E0,-1.174072079E0,1.219642646E1,1.267914823E1
1.794888583E0,-4.094662742E0,-1.184610150E0,1.186225692E1,1.260486824E1
1.804874583E0,-4.927076747E0,-1.319189446E0,1.132531763E1,1.242091645E1
1.814859583E0,-5.765612496E0,-1.491786681E0,1.069573155E1,1.224199282E1
1.824845583E0,-6.631729560E0,-1.750161400E0,1.010162403E1,1.221006593E1
1.834830583E0,-7.477383708E0,-2.187160663E0,9.540717008E0,1.231747620E1
1.844816583E0,-8.364596942E0,-2.935692267E0,8.923517668E0,1.257831223E1
1.854801583E0,-9.090739850E0,-3.811799884E0,8.250435319E0,1.285461210E1
1.864787583E0,-9.701613672E0,-4.601456125E0,7.601051150E0,1.315563320E1
1.874772583E0,-1.019930294E1,-5.179604543E0,6.724551769E0,1.326927580E1
1.884758583E0,-1.065757964E1,-5.594827021E0,5.417028980E0,1.319963242E1
1.894743583E0,-1.116623828E1,-6.001284522E0,3.841539407E0,1.324604538E1
1.904729583E0,-1.130623349E1,-6.334348358E0,2.413638235E0,1.318258451E1
1.914714583E0,-1.123107338E1,-6.644413340E0,1.497756688E0,1.313501096E1
1.924700583E0,-1.096227220E1,-6.953111828E0,1.112744434E0,1.302902053E1
1.934685583E0,-1.049514749E1,-7.322347709E0,1.019080811E0,1.283757853E1
1.944671583E0,-1.021777780E1,-7.762412083E0,9.603379279E-1,1.286779987E1
1.954656583E0,-1.006234829E1,-8.104962441E0,7.294015610E-1,1.294114739E1
1.964642583E0,-9.843861226E0,-8.398511962E0,2.435295153E-1,1.294202123E1
1.974627583E0,-9.516362185E0,-8.678998219E0,-5.363288391E-1,1.289084202E1
1.984612583E0,-8.986691571E0,-8.941865646E0,-1.413419958E0,1.275599242E1
1.994598583E0,-8.181396074E0,-9.036534991E0,-2.244046762E0,1.239475503E1
2.004583583E0,-7.232730943E0,-8.916329686E0,-2.781926283E0,1.181323181E1
2.014569583E0,-6.218901517E0,-8.623116964E0,-3.162218079E0,1.109200187E1
2.024554583E0,-5.300460058E0,-8.324480365E0,-3.574302941E0,1.049607030E1
2.034540583E0,-4.583873255E0,-8.085051502E0,-4.002385200E0,1.011924103E1
2.044525583E0,-4.078165700E0,-7.943824872E0,-4.476732384E0,9.988839868E0
2.054511583E0,-3.788018673E0,-8.114309800E0,-4.870827702E0,1.019392326E1
2.064496583E0,-3.445650163E0,-8.442729192E0,-5.109346738E0,1.045263629E1
2.074482583E0,-3.067746662E0,-8.691994241E0,-5.291364715E0,1.062828180E1
2.084467583E0,-2.800363723E0,-8.872253959E0,-5.494925002E0,1.080523614E1
2.094453583E0,-2.581871693E0,-9.045985261E0,-5.765870358E0,1.103363819E1
2.104438583E0,-2.290786188E0,-9.177028965E0,-5.984160367E0,1.119266444E1
2.114424583E0,-1.917847704E0,-9.227571128E0,-6.104438177E0,1.122899703E1
2.124409583E0,-1.432613151E0,-9.237028999E0,-6.213648963E0,1.122428254E1
2.134395583E0,-8.600230231E-1,-9.119963064E0,-6.239779000E0,1.108369108E1
2.144380583E0,-3.296037822E-1,-9.104216512E0,-6.255262427E0,1.105095946E1
2.154366583E0,1.297235490E-1,-9.178679050E0,-6.298709579E0,1.113277682E1
2.164351583E0,7.644649744E-1,-9.110636171E0,-6.321010859E0,1.111500231E1
2.174337583E0,1.456191025E0,-9.055336128E0,-6.245462494E0,1.109618883E1
2.184322583E0,2.144977826E0,-8.876823558E0,-6.109452749E0,1.098746282E1
2.194308583E0,2.747697267E0,-8.502244492E0,-6.003447407E0,1.076472863E1
2.204293583E0,3.138870147E0,-7.973832198E0,-5.783544737E0,1.033846678E1
2.214279583E0,3.360643050E0,-7.450556683E0,-5.467450690E0,9.833500579E0
2.224264583E0,3.454365438E0,-7.012522463E0,-5.154710607E0,9.363714717E0
2.234250583E0,3.588279541E0,-6.721717039E0,-4.889917692E0,9.053647058E0
2.244235583E0,3.798367952E0,-6.621070086E0,-4.806898924E0,9.020667683E0
2.254221583E0,4.088488082E0,-6.575821992E0,-4.918515839E0,9.173274646E0
2.264206583E0,4.443698247E0,-6.423183936E0,-5.196810560E0,9.381395737E0
2.274192583E0,4.689611380E0,-6.124398817E0,-5.366763976E0,9.396960750E0
2.284177583E0,4.951970683E0,-5.767572482E0,-5.300679914E0,9.267368210E0
2.294163583E0,5.326900583E0,-5.544946178E0,-5.171031355E0,9.266167666E0
2.304148583E0,5.981385863E0,-5.535982981E0,-4.912436489E0,9.516097765E0
2.314133583E0,7.030536565E0,-5.502045742E0,-4.536124892E0,1.001385943E1
2.324119583E0,8.155215751E0,-5.123409877E0,-3.972740402E0,1.041823109E1
2.334104583E0,8.817174357E0,-4.588432622E0,-3.019571160E0,1.038817056E1
2.344090583E0,8.937625830E0,-4.162746551E0,-1.634300283E0,9.994025803E0
2.354075583E0,9.082350265E0,-3.982092731E0,-5.563567221E-2,9.917118744E0
2.364061583E0,9.389143730E0,-3.896584511E0,1.549941918E0,1.028307886E1
2.374046583E0,9.711746312E0,-3.637732659E0,2.977453666E0,1.078964066E1
2.384032583E0,1.018436330E1,-3.093739875E0,3.935188413E0,1.134804786E1
2.394017583E0,1.065787200E1,-2.343738134E0,4.618554261E0,1.184965769E1
2.404003583E0,1.069992985E1,-1.594042496E0,5.277448926E0,1.203664976E1
2.413988583E0,1.085003723E1,-9.868725926E-1,5.938578397E0,1.240822061E1
2.423974583E0,1.106470021E1,-6.859131139E-1,6.633479047E0,1.291902132E1
2.433959583E0,1.095796046E1,-5.562071796E-1,7.355307879E0,1.320934585E1
2.443945583E0,1.038462459E1,-2.138546766E-1,8.036355305E0,1.313275174E1
2.453930167E0,8.850723926E0,1.918717404E-1,8.617024165E0,1.235415858E1
2.463916167E0,6.694642092E0,2.951584378E-1,9.287876387E0,1.145294718E1
2.473901167E0,4.349023347E0,3.755412260E-1,1.003633168E1,1.094454151E1
2.483887167E0,2.272152573E0,4.850780670E-1,1.092208428E1,1.116646332E1
2.493872167E0,1.097509880E0,4.011531634E-1,1.184499009E1,1.190248890E1
2.503858167E0,3.805647151E-1,1.738977284E-1,1.273125958E1,1.273813332E1
2.513843167E0,-1.094675003E0,1.964008109E-1,1.334192174E1,1.338819489E1
2.523829167E0,-3.232589027E0,5.986782477E-1,1.327871801E1,1.367963448E1
2.533814167E0,-5.084786094E0,9.429106671E-1,1.249127348E1,1.351946905E1
2.543800167E0,-6.418395651E0,9.265088618E-1,1.104079679E1,1.280442952E1
2.553785167E0,-7.092517635E0,4.391861949E-1,9.121697933E0,1.156296087E1
2.563771167E0,-7.567608000E0,-1.980719452E-1,7.496964864E0,1.065422008E1
2.573756167E0,-7.923394116E0,-6.783099794E-1,6.542251958E0,1.029763756E1
2.583742167E0,-7.973978963E0,-1.079195888E0,6.021125295E0,1.005002259E1
2.593727167E0,-7.777573913E0,-1.208881577E0,5.731798632E0,9.736814992E0
2.603712167E0,-7.406577435E0,-7.960735604E-1,5.338563439E0,9.164681228E0
2.613698167E0,-6.809105431E0,-5.722271618E-2,4.617849671E0,8.227498210E0
2.623683167E0,-6.382183844E0,5.493731732E-1,3.618787973E0,7.357289440E0
2.633669167E0,-5.780804731E0,7.177082992E-1,2.145331144E0,6.207677042E0
2.643654167E0,-4.750401080E0,5.123818232E-1,5.362423003E-1,4.807951888E0
2.653640167E0,-3.554051110E0,2.731277189E-1,-8.147603846E-1,3.656461749E0
2.663625167E0,-2.559420724E0,5.281749699E-2,-1.818361276E0,3.140041697E0
2.673611167E0,-1.856762573E0,-1.638727503E-1,-2.454244224E0,3.081839750E0
2.683596167E0,-1.344932983E0,-3.360564405E-1,-2.851336241E0,3.170472680E0
2.693582167E0,-8.007915325E-1,-4.683608774E-1,-3.202746885E0,3.334398986E0
2.703567167E0,-1.295884784E-1,-5.454946785E-1,-3.464539593E0,3.509614254E0
2.713553167E0,5.695310837E-1,-5.200151805E-1,-3.641191580E0,3.721969581E0
2.723538167E0,1.131157463E0,-4.795272321E-1,-3.721812989E0,3.919356516E0
2.733524167E0,1.557661705E0,-5.767894883E-1,-3.885309325E0,4.225473305E0
2.743509167E0,2.254526873E0,-6.794553758E-1,-4.174325500E0,4.792655257E0
2.753495167E0,3.304800386E0,-6.854332767E-1,-4.515987082E0,5.637877587E0
2.763480167E0,4.340256909E0,-6.433934042E-1,-4.817141492E0,6.515875786E0
2.773466167E0,5.367171527E0,-5.736130980E-1,-4.722293807E0,7.171863146E0
2.783451167E0,6.544935245E0,-5.635688972E-1,-4.202123748E0,7.798181279E0
2.793437167E0,7.922628130E0,-3.900264602E-1,-3.157757823E0,8.537657266E0
2.803422167E0,9.227774026E0,-9.620972089E-2,-1.747941504E0,9.392356962E0
2.813408167E0,1.016911143E1,2.388797363E-1,-3.162764794E-1,1.017683259E1
2.823393167E0,1.063370896E1,3.251791576E-1,7.651830125E-1,1.066616205E1
2.833379167E0,1.080478797E1,2.022066575E-1,1.472876201E0,1.090658952E1
2.843364167E0,1.093840386E1,-1.037053397E-1,1.728907648E0,1.107468083E1
2.853350167E0,1.092617383E1,-5.256316504E-1,1.975170152E0,1.111570332E1
2.863335167E0,1.072057286E1,-8.338937898E-1,2.538961608E0,1.104863735E1
2.873321167E0,1.031851831E1,-7.745411888E-1,3.646814847E0,1.097137151E1
2.883306167E0,9.799934603E0,-4.647001550E-1,5.219051029E0,1.111274755E1
2.893292167E0,9.249972396E0,-2.360773851E-1,7.042806947E0,1.162836410E1
2.903277167E0,8.357826451E0,-1.227720867E-1,9.030907046E0,1.230551169E1
2.913262167E0,6.805868998E0,-3.217247687E-1,1.117526287E1,1.308853926E1
2.923248167E0,4.969722830E0,-9.039060111E-1,1.348454819E1,1.439959135E1
2.933233167E0,3.193892446E0,-1.903963344E0,1.561104604E1,1.604776569E1
2.943219167E0,1.427791537E0,-2.944633537E0,1.727251599E1,1.757979704E1
2.953204167E0,-2.034331476E-1,-3.541884223E0,1.796683777E1,1.831375407E1
2.963190167E0,-2.237870202E0,-3.637130688E0,1.746230726E1,1.797690066E1
2.973175167E0,-4.536831236E0,-3.371579097E0,1.598904514E1,1.695877200E1
2.983161167E0,-6.888992431E0,-3.102687284E0,1.406760681E1,1.596816979E1
2.993146167E0,-9.048941029E0,-2.961194021E0,1.231020860E1,1.556255890E1
3.003132167E0,-1.076602561E1,-2.964385723E0,1.122472447E1,1.583317181E1
3.013117167E0,-1.186090855E1,-3.041922727E0,1.077506540E1,1.631062476E1
3.023103167E0,-1.257655278E1,-3.270063540E0,1.054220939E1,1.673323562E1
3.033088167E0,-1.319489233E1,-3.546617544E0,1.027333688E1,1.709459360E1
3.043074167E0,-1.381987782E1,-4.069395753E0,9.505711482E0,1.725999871E1
3.053059167E0,-1.460986706E1,-4.998035633E0,8.396640853E0,1.757646590E1
3.063045167E0,-1.537874785E1,-6.076613032E0,7.063038898E0,1.798103529E1
3.073030167E0,-1.591430603E1,-7.205220378E0,5.605126306E0,1.834660127E1
3.083016167E0,-1.615293558E1,-8.118055526E0,4.243905612E0,1.856962273E1
3.093001167E0,-1.600365967E1,-8.790387093E0,2.776587775E0,1.846882421E1
3.102987167E0,-1.543486592E1,-9.290331048E0,1.304207418E0,1.806228928E1
3.112972167E0,-1.462562648E1,-9.592474222E0,-1.295433086E-1,1.749117758E1
3.122958167E0,-1.358979456E1,-9.647126393E0,-1.413504742E0,1.672565573E1
3.132943167E0,-1.244435075E1,-9.562704878E0,-2.401266112E0,1.587681546E1
3.142929167E0,-1.118434594E1,-9.342068381E0,-3.065127402E0,1.489156948E1
3.152914167E0,-9.738447037E0,-9.092286438E0,-3.441644236E0,1.376052101E1
3.162900167E0,-8.189945873E0,-8.892640861E0,-3.675587241E0,1.263583066E1
3.172885167E0,-6.903547320E0,-8.615947108E0,-3.923906795E0,1.171710522E1
3.182871167E0,-5.963744813E0,-8.333970396E0,-4.136367715E0,1.105128285E1
3.192856167E0,-5.446967309E0,-8.282020224E0,-4.352490746E0,1.082614832E1
3.202842167E0,-5.212802694E0,-8.583837708E0,-4.551255147E0,1.102585621E1
3.212827167E0,-4.988848488E0,-9.049512302E0,-4.870081598E0,1.142365865E1
3.222813167E0,-4.666923306E0,-9.607536065E0,-5.230178280E0,1.189284185E1
3.232798167E0,-4.330865988E0,-1.004275894E1,-5.662034333E0,1.231552030E1
3.242783167E0,-3.795811257E0,-1.029954994E1,-6.188450972E0,1.260102526E1
3.252769167E0,-3.139633793E0,-1.042420673E1,-6.737737241E0,1.280306563E1
3.262754167E0,-2.418858337E0,-1.049245894E1,-7.173160679E0,1.293819170E1
3.272740167E0,-1.646538798E0,-1.064094782E1,-7.445853767E0,1.309127949E1
3.282725167E0,-8.296294885E-1,-1.056824003E1,-7.546547499E0,1.301254631E1
3.292711167E0,8.587553468E-2,-9.959748362E0,-7.268269150E0,1.233011348E1
3.302696167E0,6.442488518E-1,-9.781304204E0,-7.107136844E0,1.210786367E1
3.312682167E0,1.101033046E0,-9.376541811E0,-6.929427681E0,1.171105367E1
3.322667167E0,1.475286569E0,-8.795442595E0,-6.791541565E0,1.120987590E1
3.332653167E0,2.084993433E0,-8.518274049E0,-6.539337121E0,1.093942962E1
3.342638167E0,3.069492933E0,-8.232821167E0,-6.124004715E0,1.071002171E1
3.352624167E0,4.057591102E0,-7.898830547E0,-5.623559654E0,1.051094633E1
3.362609167E0,4.729768595E0,-7.709863740E0,-5.246077445E0,1.045629181E1
3.372595167E0,4.970270129E0,-7.535664661E0,-4.999246007E0,1.031902552E1
3.382580167E0,4.739215356E0,-7.467124184E0,-4.920638378E0,1.012080964E1
3.392566167E0,4.369629520E0,-7.517792646E0,-4.999527842E0,1.003026156E1
3.402551167E0,4.227045166E0,-7.776383420E0,-5.306880886E0,1.032003075E1
3.412537167E0,4.235354059E0,-8.173416379E0,-5.806085168E0,1.088363838E1
3.422522167E0,4.227520545E0,-8.491532393E0,-6.321881509E0,1.139930867E1
3.432508167E0,4.403423502E0,-8.453530753E0,-6.631637759E0,1.161167258E1
3.442493167E0,5.187136926E0,-8.088112519E0,-6.709919697E0,1.171951262E1
3.452479542E0,6.403789306E0,-7.584219355E0,-6.354841095E0,1.178613194E1
3.462464542E0,8.034052087E0,-7.051875393E0,-5.552333550E0,1.204588508E1
3.472450542E0,9.733379840E0,-6.496296351E0,-4.412308347E0,1.250635896E1
3.482435542E0,1.067195209E1,-6.035955588E0,-3.304036447E0,1.269803048E1
3.492421542E0,1.105765783E1,-5.765554023E0,-2.290729178E0,1.267915021E1
3.502406542E0,1.090099104E1,-5.658153536E0,-1.423516345E0,1.236417024E1
3.512392542E0,1.068841668E1,-5.659783155E0,-4.904381365E-1,1.210437632E1
3.522377542E0,1.054006113E1,-5.718557612E0,6.863414955E-1,1.201107216E1
3.532363542E0,1.047731583E1,-5.420363647E0,2.300855970E0,1.201866994E1
3.542348542E0,1.097129211E1,-4.493710944E0,4.086688017E0,1.254048275E1
3.552334542E0,1.192088110E1,-3.258543355E0,5.635447043E0,1.358248042E1
3.562319542E0,1.265913301E1,-2.035618959E0,6.815184197E0,1.452047275E1
3.572304542E0,1.285058021E1,-8.035602622E-1,7.403904088E0,1.485264005E1
3.582290542E0,1.219338708E1,1.171706368E-1,7.543709845E0,1.433875781E1
3.592275542E0,1.116870698E1,8.901760179E-1,7.859154266E0,1.368571279E1
3.602261542E0,1.003220823E1,1.370185207E0,8.778337151E0,1.340081388E1
3.612246542E0,8.878227475E0,1.429361660E0,1.060639662E1,1.390545386E1
3.622232542E0,7.258953366E0,1.089069570E0,1.284386292E1,1.479335294E1
3.632217542E0,4.764748393E0,3.806758122E-1,1.510453917E1,1.584281682E1
3.642203542E0,1.957230602E0,-3.412107611E-1,1.695618864E1,1.707218526E1
3.652188542E0,-5.182028360E-1,-7.060881275E-1,1.816079693E1,1.818190418E1
3.662174542E0,-2.754383266E0,-7.563243346E-1,1.841881351E1,1.863897381E1
3.672159542E0,-4.696471333E0,-7.844561662E-1,1.745867029E1,1.809633617E1
3.682145542E0,-6.417510383E0,-9.936362862E-1,1.546545622E1,1.677355325E1
3.692130542E0,-8.256570802E0,-1.163725358E0,1.336459256E1,1.575238244E1
3.702116542E0,-9.871924353E0,-1.248982074E0,1.146632207E1,1.518194284E1
3.712101542E0,-1.077318962E1,-1.206687701E0,9.839540133E0,1.464015914E1
3.722087542E0,-1.107246648E1,-9.930033982E-1,8.546895000E0,1.402265966E1
3.732072542E0,-1.065465720E1,-5.313512506E-1,7.405669363E0,1.298645421E1
3.742058542E0,-9.879171392E0,-1.361516856E-1,6.079367071E0,1.160065811E1
3.752043542E0,-9.069001656E0,6.259809807E-2,4.493451328E0,1.012135438E1
3.762029542E0,-8.387538493E0,1.913421654E-1,2.791190026E0,8.841841186E0
3.772014542E0,-8.317839097E0,2.658137657E-1,1.238571253E0,8.413748449E0
3.782000542E0,-8.440873286E0,-1.516884685E-2,-7.176580131E-2,8.441191992E0
3.791985542E0,-7.946886474E0,-6.882691763E-1,-1.097977876E0,8.051849136E0
3.801971542E0,-6.968126308E0,-1.224481510E0,-2.016739762E0,7.356723352E0
3.811956542E0,-5.924135774E0,-1.300867927E0,-2.822177346E0,6.689718007E0
3.821942542E0,-4.948106843E0,-1.100002621E0,-3.564352149E0,6.196642102E0
3.831927542E0,-3.826127901E0,-8.966081744E-1,-4.109951749E0,5.686375323E0
3.841913542E0,-2.416825553E0,-8.781496840E-1,-4.333966182E0,5.039390388E0
3.851898542E0,-9.001404773E-1,-8.528910280E-1,-4.338076190E0,4.511826793E0
3.861884542E0,4.525931295E-1,-6.254518077E-1,-4.314273344E0,4.382805608E0
3.871869542E0,1.574375386E0,-3.053051659E-1,-4.278258589E0,4.568956736E0
3.881854542E0,2.665853497E0,7.632699497E-3,-4.342456924E0,5.095465166E0
3.891840542E0,3.822034265E0,3.052378864E-1,-4.392139546E0,5.830266365E0
3.901825542E0,4.846507378E0,4.474537924E-1,-4.399452658E0,6.560795101E0
3.911811542E0,5.898969943E0,4.131778162E-1,-4.293145015E0,7.307506854E0
3.921796542E0,6.924463395E0,3.421377640E-1,-4.008425374E0,8.008291050E0
3.931782542E0,7.653979561E0,2.711488384E-1,-3.593784694E0,8.460036244E0
3.941767542E0,8.070115374E0,2.010674006E-1,-3.086215970E0,8.642448685E0
3.951753542E0,8.280244424E0,3.475095280E-2,-2.326429937E0,8.600926206E0
3.961738542E0,8.657720202E0,-2.443943185E-1,-1.289095874E0,8.756575577E0
3.971724542E0,9.287168289E0,-5.159097773E-1,-1.663421756E-1,9.302974118E0
3.981709542E0,9.915462720E0,-5.775069782E-1,9.050571817E-1,9.973416855E0
3.991695542E0,1.039522326E1,-1.925751239E-1,2.136011267E0,1.061415545E1
4.001680542E0,1.065261886E1,4.215725541E-1,3.454474196E0,1.120666783E1
4.011666542E0,1.078901452E1,8.311863828E-1,4.841194013E0,1.185457146E1
4.021651542E0,1.076714242E1,1.025687726E0,6.273323307E0,1.250351857E1
4.031637542E0,1.027497293E1,1.112613749E0,7.430023016E0,1.272863779E1
4.041622542E0,9.210310147E0,1.010512155E0,8.207891563E0,1.237822409E1
4.051608542E0,7.759813580E0,6.904789853E-1,8.828772309E0,1.177449313E1
4.061593542E0,6.205170500E0,2.843424958E-1,9.774836015E0,1.158155476E1
4.071579542E0,4.422958173E0,-2.856981727E-1,1.108043741E1,1.193399663E1
4.081564542E0,2.242231786E0,-1.232326865E0,1.258091364E1,1.283844308E1
4.091550542E0,-3.474551488E-1,-2.384382277E0,1.405934469E1,1.426433234E1
4.101535542E0,-2.917569114E0,-3.220675325E0,1.520158891E1,1.581054283E1
4.111521542E0,-5.066630489E0,-3.535342066E0,1.577374364E1,1.694049517E1
4.121506542E0,-6.709167160E0,-3.620568450E0,1.555292822E1,1.732094155E1
4.131492542E0,-7.925983263E0,-3.593415735E0,1.459923682E1,1.699622203E1
4.141477542E0,-8.677751593E0,-3.300279027E0,1.332929643E1,1.624393295E1
4.151463542E0,-9.067862034E0,-2.928407221E0,1.207107035E1,1.537896063E1
4.161448542E0,-9.475739824E0,-2.794860908E0,1.105766952E1,1.482811343E1
4.171434542E0,-9.738758109E0,-2.899046305E0,1.038638227E1,1.453013474E1
4.181419542E0,-9.818417652E0,-3.250089451E0,9.825532544E0,1.426553526E1
4.191404542E0,-9.856073720E0,-3.640406883E0,9.214618376E0,1.397511872E1
4.201390542E0,-9.989957417E0,-4.146952345E0,8.373995757E0,1.367919105E1
4.211375542E0,-1.032126884E1,-4.927965524E0,7.320887659E0,1.357972131E1
4.221361542E0,-1.079864254E1,-5.898426737E0,6.038828909E0,1.370655221E1
4.231346542E0,-1.116035949E1,-6.812389812E0,4.579841600E0,1.385414119E1
4.241332542E0,-1.122149798E1,-7.517248271E0,3.007594308E0,1.383750924E1
4.251317542E0,-1.112495460E1,-8.054310935E0,1.448775147E0,1.381070197E1
4.261303542E0,-1.087863479E1,-8.428201784E0,-5.727640092E-2,1.376163366E1
4.271288542E0,-1.039843806E1,-8.582064248E0,-1.412488496E0,1.355634407E1
4.281274542E0,-9.812660483E0,-8.468512489E0,-2.473340646E0,1.319550770E1
4.291259542E0,-9.163667493E0,-8.262893397E0,-3.277140425E0,1.276666983E1
4.301245542E0,-8.359306966E0,-8.084708855E0,-3.893813515E0,1.226386211E1
4.311230542E0,-7.515311673E0,-7.883396237E0,-4.278390736E0,1.170181495E1
4.321216542E0,-6.802745415E0,-7.661931190E0,-4.513548793E0,1.119618942E1
4.331201542E0,-6.185536135E0,-7.545112592E0,-4.722872681E0,1.083951603E1
4.341187542E0,-5.541483457E0,-7.470889791E0,-4.931293175E0,1.052805231E1
4.351172542E0,-4.916044221E0,-7.481478513E0,-5.146206416E0,1.032586326E1
4.361158542E0,-4.432167538E0,-7.601083894E0,-5.262646115E0,1.025261087E1
4.371143542E0,-4.161119856E0,-7.856473902E0,-5.376134723E0,1.038951034E1
4.381129542E0,-3.948001417E0,-8.209694844E0,-5.575361640E0,1.068037743E1
4.391114542E0,-3.768183163E0,-8.654374425E0,-5.868418826E0,1.111466331E1
4.401100542E0,-3.477925040E0,-9.071296104E0,-6.219632419E0,1.153551919E1
4.411085542E0,-3.027620730E0,-9.284494942E0,-6.437270463E0,1.169644325E1
4.421071542E0,-2.708425612E0,-9.324627891E0,-6.570152532E0,1.172395662E1
4.431056542E0,-2.425947501E0,-9.241298636E0,-6.757981471E0,1.170286868E1
4.441042542E0,-2.029966748E0,-9.106024472E0,-6.921476637E0,1.161668135E1
4.451027042E0,-1.628633162E0,-9.017447340E0,-7.022909456E0,1.154504481E1
4.461013042E0,-1.303394363E0,-8.976848368E0,-7.022300177E0,1.147150135E1
4.470998042E0,-1.016336858E0,-8.773659963E0,-7.109588581E0,1.133826704E1
4.480984042E0,-5.034749058E-1,-8.534527554E0,-7.125896466E0,1.112969218E1
4.490969042E0,1.833410182E-1,-8.321232237E0,-7.100517796E0,1.094046950E1
4.500954042E0,9.995905790E-1,-8.007329142E0,-6.926790587E0,1.063470400E1
4.510940042E0,1.774693978E0,-7.651795626E0,-6.691140195E0,1.031847237E1
4.520925042E0,2.447079485E0,-7.377204532E0,-6.515029660E0,1.014184185E1
4.530911042E0,2.919829940E0,-7.156694335E0,-6.297853546E0,9.970287858E0
4.540896042E0,3.251014188E0,-6.961440017E0,-6.095049303E0,9.807158935E0
4.550882042E0,3.405781508E0,-6.860859722E0,-5.930889308E0,9.687424415E0
4.560867042E0,3.503700443E0,-6.878235893E0,-5.880247158E0,9.703780317E0
4.570853042E0,3.728845728E0,-6.942127249E0,-5.856237321E0,9.817990465E0
4.580838042E0,4.130155048E0,-7.088922182E0,-5.871710224E0,1.008900289E1
4.590824042E0,4.662366571E0,-7.211837672E0,-5.849459814E0,1.039059405E1
4.600809042E0,5.403009111E0,-7.105477404E0,-5.731744253E0,1.060816708E1
4.610795042E0,6.270109093E0,-6.867256576E0,-5.547061116E0,1.082789767E1
4.620780042E0,6.831998450E0,-6.604704899E0,-5.309004595E0,1.088502914E1
4.630766042E0,6.999500713E0,-6.370558995E0,-4.921801389E0,1.066776270E1
4.640751042E0,7.134809377E0,-6.244027587E0,-4.378526643E0,1.044341328E1
4.650737042E0,7.468902322E0,-6.201764497E0,-3.737307526E0,1.040258873E1
4.660722042E0,8.006556140E0,-5.942721734E0,-3.111401682E0,1.044517608E1
4.670708042E0,8.552111886E0,-5.398178726E0,-2.332927948E0,1.037889705E1
4.680693042E0,8.859232795E0,-4.826175148E0,-1.356284475E0,1.017926716E1
4.690679042E0,9.087895179E0,-4.238104005E0,-2.949475908E-1,1.003186715E1
4.700664042E0,9.253802322E0,-3.695175998E0,8.928692454E-1,1.000421904E1
4.710650042E0,9.573721617E0,-3.077149862E0,2.119738466E0,1.027707585E1
4.720635042E0,1.019322417E1,-2.179627402E0,3.375640866E0,1.095662110E1
4.730621042E0,1.075815642E1,-1.157524020E0,4.740575711E0,1.181316425E1
4.740606042E0,1.100884059E1,-2.361439703E-1,6.198121097E0,1.263594240E1
4.750592042E0,1.055096034E1,4.656256230E-1,7.809128412E0,1.313476524E1
4.760577042E0,9.112093881E0,9.444492888E-1,9.306171740E0,1.305860145E1
4.770563042E0,6.876181181E0,1.475128694E0,1.061540484E1,1.273360484E1
4.780548042E0,4.528208932E0,2.241264364E0,1.179222014E1,1.282904509E1
4.790534042E0,2.531637678E0,2.938699782E0,1.299517015E1,1.356169580E1
4.800519042E0,8.029620190E-1,3.164243554E0,1.414849134E1,1.452022701E1
4.810505042E0,-9.811950924E-1,2.800625386E0,1.513170065E1,1.541994199E1
4.820490042E0,-2.802667526E0,1.931407251E0,1.582797774E1,1.618981651E1
4.830476042E0,-4.514867632E0,8.697481122E-1,1.601945534E1,1.666623655E1
4.840461042E0,-6.165207705E0,-1.519931815E-1,1.522262486E1,1.642440853E1
4.850446042E0,-7.491966664E0,-1.035143550E0,1.345842751E1,1.543795186E1
4.860432042E0,-8.383806215E0,-1.589983505E0,1.089072917E1,1.383561477E1
4.870417042E0,-8.748247379E0,-1.729387996E0,8.064162324E0,1.202303327E1
4.880403042E0,-8.380577382E0,-1.407826511E0,5.454040101E0,1.009765350E1
4.890388042E0,-6.993917792E0,-8.435560213E-1,3.199989338E0,7.737338341E0
4.900374042E0,-4.959002545E0,2.391986288E-2,1.511156752E0,5.184194550E0
4.910359042E0,-3.074497273E0,9.311946742E-1,3.297899795E-1,3.229306184E0
4.920345042E0,-1.636089970E0,1.536884209E0,-4.677714050E-1,2.292948658E0
4.930330042E0,-8.500984709E-1,1.569446768E0,-1.009347535E0,2.050515305E0
4.940316042E0,-5.480638354E-1,1.026683214E0,-1.373095804E0,1.799956799E0
4.950301042E0,-6.901027170E-1,2.517473749E-1,-1.611704303E0,1.771216887E0
4.960287042E0,-1.056555104E0,-3.296288887E-1,-1.673565506E0,2.006435993E0
4.970272042E0,-1.158868587E0,-6.788328666E-1,-1.630934626E0,2.112756071E0
4.980258042E0,-9.945388770E-1,-6.949284241E-1,-1.307170202E0,1.783459287E0
4.990243042E0,-4.809307100E-1,-4.705095830E-1,-9.050940192E-1,1.127771608E0
5.000229042E0,5.563474031E-1,-2.128746832E-1,-7.822691613E-1,9.832512927E-1
5.010214042E0,1.729107769E0,4.641702510E-2,-9.837379003E-1,1.989901624E0
5.020200042E0,2.993581164E0,4.627460886E-1,-1.126711679E0,3.231894387E0
5.030185042E0,4.059957470E0,9.571916143E-1,-1.021774623E0,4.294588901E0
5.040171042E0,4.868394968E0,1.326489256E0,-7.945284337E-1,5.108044513E0
5.050156042E0,5.341297013E0,1.367773961E0,-5.202361321E-1,5.538131907E0
5.060142042E0,5.551460561E0,1.189966711E0,-1.339146870E-1,5.679143270E0
5.070127042E0,5.651272532E0,8.273468817E-1,6.052955782E-1,5.743497787E0
5.080113042E0,5.662834232E0,3.182803202E-1,1.485540685E0,5.863090058E0
5.090098042E0,5.601386427E0,1.722383617E-1,2.194938337E0,6.018550512E0
5.100084042E0,5.713705593E0,3.172444859E-1,2.612832992E0,6.290784681E0
5.110069042E0,6.235145082E0,6.495351733E-1,2.927999085E0,6.918967320E0
5.120055042E0,6.739701905E0,1.042533700E0,3.369158642E0,7.606687074E0
5.130040042E0,6.999253376E0,1.357577440E0,3.990598968E0,8.170522899E0
5.140026042E0,6.906896020E0,1.524382862E0,4.740245928E0,8.514627837E0
5.150011042E0,6.404102717E0,1.522252721E0,5.626889058E0,8.659772828E0
5.159996042E0,5.777862412E0,1.451689399E0,6.835533677E0,9.067282769E0
5.169982042E0,5.036270576E0,1.092448749E0,8.386518738E0,9.843330845E0
5.179967042E0,3.860711258E0,3.912062091E-1,9.962013574E0,1.069111071E1
5.189953042E0,2.255167581E0,-4.441221951E-1,1.134530575E1,1.157579319E1
5.199938042E0,4.909267810E-1,-1.114947665E0,1.224677684E1,1.230721984E1
5.209924042E0,-1.101640060E0,-1.625614829E0,1.245788120E1,1.261170244E1
5.219909042E0,-2.455543476E0,-1.972122144E0,1.218275100E1,1.258325798E1
5.229895042E0,-3.677470337E0,-1.937973820E0,1.179945081E1,1.251025859E1
5.239880042E0,-4.622648481E0,-1.544797246E0,1.153440471E1,1.252189161E1
5.249866042E0,-5.051936436E0,-1.129990432E0,1.132692445E1,1.245384108E1
5.259851042E0,-5.356194549E0,-8.288860150E-1,1.113300271E1,1.238223006E1
5.269837042E0,-5.680157778E0,-6.362846518E-1,1.099015055E1,1.238759297E1
5.279822042E0,-6.085713639E0,-6.242629956E-1,1.074370678E1,1.236336727E1
5.289808042E0,-6.688668576E0,-1.076208546E0,1.038738448E1,1.240138172E1
5.299793042E0,-7.171930425E0,-1.899918533E0,9.816953509E0,1.230523680E1
5.309779042E0,-7.630073220E0,-2.829683416E0,9.009637799E0,1.214078658E1
5.319764042E0,-8.356013814E0,-3.806670122E0,8.098501852E0,1.224334254E1
5.329750042E0,-9.179731548E0,-4.791062910E0,7.078748027E0,1.254314270E1
5.339735042E0,-1.011241332E1,-5.819449564E0,6.074572939E0,1.315398543E1
5.349721042E0,-1.113572868E1,-6.883650999E0,5.027095710E0,1.402357998E1
5.359706042E0,-1.180691302E1,-7.806449218E0,3.819609425E0,1.466060233E1
5.369692042E0,-1.195261160E1,-8.433343241E0,2.505758194E0,1.484132833E1
5.379677042E0,-1.175044529E1,-8.757870727E0,1.296118380E0,1.471234812E1
5.389663042E0,-1.137612175E1,-8.879923752E0,1.154000634E-1,1.443199602E1
5.399648042E0,-1.095114261E1,-9.023234915E0,-1.109416199E0,1.423295813E1
5.409634042E0,-1.039550275E1,-9.266321211E0,-2.310722562E0,1.411632477E1
5.419619042E0,-9.779816673E0,-9.514112762E0,-3.456144161E0,1.407508750E1
5.429605042E0,-9.198911585E0,-9.623084981E0,-4.376385393E0,1.401343955E1
5.439590042E0,-8.568136180E0,-9.582691246E0,-5.095964216E0,1.382786247E1
5.449576417E0,-7.897448266E0,-9.473146584E0,-5.668265710E0,1.357348266E1
5.459561417E0,-7.124465067E0,-9.442870871E0,-6.204068885E0,1.335725584E1
5.469547417E0,-6.123229374E0,-9.403833690E0,-6.727713944E0,1.308388937E1
5.479532417E0,-5.108142212E0,-9.259601591E0,-7.111528687E0,1.274390751E1
5.489518417E0,-4.232053014E0,-8.994118119E0,-7.309368644E0,1.233820503E1
5.499503417E0,-3.414243014E0,-8.726252493E0,-7.342870851E0,1.190471714E1
5.509488417E0,-2.651298900E0,-8.556354041E0,-7.265596973E0,1.153384063E1
5.519474417E0,-2.016649130E0,-8.488691230E0,-7.154586414E0,1.128330002E1
5.529459417E0,-1.496793067E0,-8.417938752E0,-6.981911119E0,1.103853093E1
5.539445417E0,-1.183664217E0,-8.477522464E0,-6.794531246E0,1.092863683E1
5.549430417E0,-1.091980095E0,-8.751730565E0,-6.766922448E0,1.111649440E1
5.559416417E0,-8.442831957E-1,-8.808127545E0,-6.713480067E0,1.110705810E1
5.569401417E0,-5.191632412E-1,-9.204877499E0,-6.803159983E0,1.145784823E1
5.579387417E0,-2.858068579E-1,-9.479852171E0,-6.799379758E0,1.166965500E1
5.589372417E0,-6.623024225E-2,-9.449032082E0,-6.853663554E0,1.167310147E1
5.599358417E0,1.389365682E-1,-9.399162934E0,-6.867194595E0,1.164138861E1
5.609343417E0,5.729986653E-1,-9.292578717E0,-6.783641977E0,1.151946809E1
5.619329417E0,1.334083328E0,-9.104815267E0,-6.778471284E0,1.142913436E1
5.629314417E0,2.168429107E0,-8.955510709E0,-6.772628746E0,1.143554795E1
5.639300417E0,2.991080017E0,-8.761612360E0,-6.711245846E0,1.143473793E1
5.649285417E0,3.759632488E0,-8.512158446E0,-6.559035805E0,1.138475422E1
5.659271417E0,4.235845518E0,-8.116138809E0,-6.317013118E0,1.112289311E1
5.669256417E0,4.350152152E0,-7.660145450E0,-6.022718661E0,1.067121325E1
5.679242417E0,4.372298481E0,-7.301867836E0,-5.654570362E0,1.021804452E1
5.689227417E0,4.381433001E0,-7.191859490E0,-5.203975738E0,9.899553604E0
5.699213417E0,4.429063543E0,-7.149599909E0,-4.786524886E0,9.676993500E0
5.709198417E0,4.491869363E0,-7.039333116E0,-4.396311534E0,9.436983427E0
5.719184417E0,4.740506422E0,-6.831785612E0,-3.988000465E0,9.222247204E0
5.729169417E0,5.064014445E0,-6.493759829E0,-3.599115016E0,8.987034434E0
5.739155417E0,5.405949676E0,-6.098060619E0,-3.168814323E0,8.743684545E0
5.749140417E0,5.970171488E0,-5.618401240E0,-2.572238113E0,8.592193492E0
5.759126417E0,6.529408548E0,-5.104145055E0,-1.856808473E0,8.493127248E0
5.769111417E0,6.843984073E0,-4.643323943E0,-1.102738679E0,8.343656742E0
5.779097417E0,7.073132946E0,-4.280893052E0,-4.886354399E-1,8.282150662E0
5.789082417E0,7.407676127E0,-4.002666451E0,2.572774887E-2,8.419956427E0
5.799068417E0,7.642751153E0,-3.697842036E0,5.069974512E-1,8.505452800E0
5.809053417E0,7.828027782E0,-3.227059315E0,9.789648181E-1,8.523514704E0
5.819039417E0,8.105552425E0,-2.639421451E0,1.507373604E0,8.656714209E0
5.829024417E0,8.234333256E0,-2.141087381E0,2.096034438E0,8.762525875E0
5.839010417E0,8.440110809E0,-1.841275930E0,2.823858420E0,9.088451127E0
5.848995417E0,8.774077454E0,-1.736527301E0,3.791128807E0,9.714557111E0
5.858980417E0,9.043166319E0,-1.455987542E0,4.988484206E0,1.042994398E1
5.868966417E0,9.416839651E0,-1.116288359E0,6.243356912E0,1.135352255E1
5.878951417E0,9.796129820E0,-7.962070231E-1,7.301756739E0,1.224392733E1
5.888937417E0,9.734473854E0,-4.502219374E-1,8.068625504E0,1.265169548E1
5.898922417E0,9.193997585E0,1.301557405E-1,8.484121631E0,1.251106918E1
5.908908417E0,8.358059170E0,8.027632137E-1,8.606956429E0,1.202419564E1
5.918893417E0,7.613979344E0,1.426147300E0,8.641329871E0,1.160513505E1
5.928879417E0,7.142261068E0,1.899470490E0,8.797608404E0,1.148989969E1
5.938864417E0,6.577806537E0,2.010760399E0,9.333116879E0,1.159386764E1
5.948850417E0,5.499598682E0,1.703133560E0,1.003761690E1,1.157151687E1
5.958835417E0,3.724062998E0,1.241523512E0,1.063404109E1,1.133546892E1
5.968821417E0,1.402546622E0,8.178771698E-1,1.112401437E1,1.124187510E1
5.978806417E0,-1.067639598E0,3.841130248E-1,1.151969077E1,1.157543402E1
5.988792417E0,-3.328650594E0,-4.156171650E-2,1.186588453E1,1.232399521E1
5.998777417E0,-5.444349511E0,-3.958947258E-1,1.215150231E1,1.332128682E1
6.008763417E0,-7.554555845E0,-1.056022350E0,1.213784204E1,1.433574925E1
6.018748417E0,-9.513936176E0,-1.954001477E0,1.150734613E1,1.505829068E1
6.028734417E0,-1.093622987E1,-2.638470694E0,1.009326719E1,1.511412233E1
6.038719417E0,-1.174432209E1,-2.831636679E0,8.301926485E0,1.465841911E1
6.048705417E0,-1.208192512E1,-2.555169798E0,6.655359913E0,1.402838632E1
6.058690417E0,-1.156286661E1,-2.008930805E0,5.092488631E0,1.279332356E1
6.068676417E0,-1.023142520E1,-1.292352627E0,3.536684879E0,1.090231062E1
6.078661417E0,-8.616066976E0,-5.048679683E-1,2.091570089E0,8.880662545E0
6.088647417E0,-7.159653611E0,2.195572467E-1,7.552982944E-1,7.202730089E0
6.098632417E0,-5.770656888E0,8.386477954E-1,-3.936520994E-1,5.844550712E0
6.108618417E0,-4.366894777E0,1.305805462E0,-1.429314444E0,4.776802034E0
6.118603417E0,-3.248051112E0,1.575346901E0,-2.284282038E0,4.271943154E0
6.128589417E0,-2.465840715E0,1.518009981E0,-2.898953626E0,4.097396351E0
6.138574417E0,-1.850488218E0,1.254448782E0,-3.216801252E0,3.917366295E0
6.148560417E0,-1.330863412E0,8.974699809E-1,-3.354630066E0,3.718896700E0
6.158545417E0,-6.984598500E-1,5.919474082E-1,-3.251819642E0,3.378250861E0
6.168531417E0,-1.229967660E-1,3.876105369E-1,-3.105066224E0,3.131582090E0
6.178516417E0,4.281866321E-1,1.869013513E-1,-3.004861320E0,3.040964889E0
6.188501417E0,1.254889078E0,-6.373180009E-2,-2.928607780E0,3.186777663E0
6.198487417E0,2.240631696E0,-2.521478726E-1,-2.799056870E0,3.594263250E0
6.208472417E0,3.295080852E0,-1.515706471E-1,-2.566209049E0,4.179229637E0
6.218458417E0,4.470235543E0,2.203583883E-1,-2.255938829E0,5.012067800E0
6.228443417E0,5.692758527E0,6.853093158E-1,-1.967787457E0,6.062123059E0
6.238429417E0,6.904309797E0,1.021650589E0,-1.692957796E0,7.181877874E0
6.248414417E0,7.781736546E0,1.017805094E0,-1.329480838E0,7.959828527E0
6.258400417E0,8.055295606E0,8.170558552E-1,-7.787544000E-1,8.133992008E0
6.268385417E0,7.901660015E0,4.999081407E-1,-1.485233706E-1,7.918850822E0
6.278371417E0,7.436450275E0,-4.325141564E-2,6.098944134E-1,7.461543713E0
6.288356417E0,6.827206657E0,-4.911647992E-1,1.446088352E0,6.995939188E0
6.298342417E0,6.405155801E0,-6.437247951E-1,2.308939746E0,6.838976911E0
6.308327417E0,6.277909863E0,-5.578844534E-1,3.186650085E0,7.062444766E0
6.318313417E0,6.292176484E0,-2.246684441E-1,4.145682914E0,7.538477807E0
6.328298417E0,6.205047709E0,2.279798685E-1,4.920631946E0,7.922576010E0
6.338284417E0,5.965499563E0,3.788723847E-1,5.529436439E0,8.142812576E0
6.348269417E0,5.497100167E0,1.713095315E-1,6.121216178E0,8.229018453E0
6.358255417E0,4.826706952E0,-3.765168339E-3,7.020152494E0,8.519369414E0
6.368240417E0,3.879364753E0,-1.742132588E-1,8.166175187E0,9.042468597E0
6.378226417E0,2.457816873E0,-5.261821657E-1,9.403504491E0,9.733633863E0
6.388211417E0,9.772695641E-1,-8.071158810E-1,1.065287614E1,1.072801295E1
6.398197417E0,-3.918394625E-1,-9.550450283E-1,1.156811274E1,1.161408117E1
6.408182417E0,-1.793644803E0,-1.183919228E0,1.196234605E1,1.215386973E1
6.418168417E0,-3.315974123E0,-1.506181356E0,1.190624084E1,1.245081675E1
6.428153417E0,-4.882926761E0,-1.892644012E0,1.150507975E1,1.264088348E1
6.438139417E0,-6.184356167E0,-2.167548371E0,1.089852351E1,1.271700994E1
6.448124417E0,-7.109840012E0,-2.333136548E0,1.027663354E1,1.271229908E1
6.458110292E0,-7.518222417E0,-2.272985802E0,9.783640167E0,1.254630414E1
6.468095292E0,-7.554892645E0,-2.090856144E0,9.402911584E0,1.224184743E1
6.478081292E0,-7.614128448E0,-2.011720220E0,9.053377896E0,1.199940088E1
6.488066292E0,-7.727881935E0,-2.171189870E0,8.624402182E0,1.178195814E1
6.498052292E0,-8.074917108E0,-2.676014204E0,7.944997823E0,1.163994539E1
6.508037292E0,-8.631822299E0,-3.408618577E0,7.059572668E0,1.166038606E1
6.518023292E0,-9.158333078E0,-4.146972518E0,6.072883678E0,1.174531234E1
6.528008292E0,-9.519990968E0,-4.827376458E0,5.031809735E0,1.180054663E1
6.537993292E0,-9.757801321E0,-5.400015922E0,3.926195980E0,1.182327676E1
6.547979292E0,-1.000489238E1,-5.890785010E0,2.726410478E0,1.192612819E1
6.557964292E0,-1.022983710E1,-6.406141641E0,1.414885855E0,1.215278239E1
6.567950292E0,-1.038468423E1,-6.857864778E0,7.424560547E-2,1.244497844E1
6.577935292E0,-1.052767906E1,-7.164565272E0,-1.159397029E0,1.278699431E1
6.587921292E0,-1.058503089E1,-7.386488156E0,-2.140799552E0,1.308381095E1
6.597906292E0,-1.046412568E1,-7.599832006E0,-2.874723934E0,1.324837388E1
6.607892292E0,-1.014581027E1,-7.804273469E0,-3.418741862E0,1.324884698E1
6.617877292E0,-9.581152259E0,-7.993792838E0,-3.858646021E0,1.306094758E1
6.627863292E0,-8.830628800E0,-8.071874802E0,-4.207019037E0,1.268204152E1
6.637848292E0,-8.069818920E0,-8.053650784E0,-4.512602128E0,1.226160048E1
6.647834292E0,-7.328867939E0,-7.944739961E0,-4.708579747E0,1.178990761E1
6.657819292E0,-6.460949932E0,-7.826194096E0,-4.901838410E0,1.127036858E1
6.667805292E0,-5.520826414E0,-7.682564844E0,-5.178038074E0,1.078486927E1
6.677790292E0,-4.632332055E0,-7.393222395E0,-5.491647053E0,1.030904579E1
6.687776292E0,-3.850390045E0,-7.037035160E0,-5.772234467E0,9.882512742E0
6.697761292E0,-3.174779945E0,-6.769433243E0,-5.927018452E0,9.541174029E0
6.707747292E0,-2.663932102E0,-6.641779169E0,-5.959695616E0,9.312772768E0
6.717732292E0,-2.365404846E0,-6.674301383E0,-5.952554997E0,9.250640520E0
6.727718292E0,-2.366418607E0,-6.881086995E0,-5.969468068E0,9.411899079E0
6.737703292E0,-2.530640436E0,-7.139025219E0,-5.927193283E0,9.617767013E0
6.747689292E0,-2.680999247E0,-7.423891041E0,-5.914503071E0,9.863227754E0
6.757674292E0,-2.717551070E0,-7.809749971E0,-5.821253430E0,1.011257979E1
6.767660292E0,-2.561287155E0,-8.159291260E0,-5.745469422E0,1.030265231E1
6.777645292E0,-2.183912827E0,-8.327992787E0,-5.726567713E0,1.034014105E1
6.787631292E0,-1.856322131E0,-8.470837927E0,-5.850987691E0,1.046112250E1
6.797616292E0,-1.559499046E0,-8.510579697E0,-6.023722043E0,1.054263873E1
6.807602292E0,-1.177479763E0,-8.374750047E0,-6.160991862E0,1.046330338E1
6.817587292E0,-6.817467535E-1,-8.167351062E0,-6.200482787E0,1.027698345E1
6.827573292E0,8.468793092E-3,-7.875582603E0,-6.209278754E0,1.002895885E1
6.837558292E0,8.122994377E-1,-7.603209357E0,-6.256758145E0,9.880063026E0
6.847544292E0,1.656234066E0,-7.345241897E0,-6.215518318E0,9.763624213E0
6.857529292E0,2.534960359E0,-7.035984415E0,-6.104983138E0,9.654114140E0
6.867515292E0,3.416914607E0,-6.765148403E0,-5.949532571E0,9.635324393E0
6.877500292E0,4.278560305E0,-6.587867841E0,-5.830654584E0,9.782771277E0
6.887486292E0,4.989019811E0,-6.467407597E0,-5.715215929E0,9.969020655E0
6.897471292E0,5.539821094E0,-6.127466851E0,-5.525311813E0,9.938034936E0
6.907456292E0,5.921716781E0,-5.668088540E0,-5.317569011E0,9.770900548E0
6.917442292E0,6.139762961E0,-5.308561960E0,-5.159238106E0,9.617445458E0
6.927427292E0,6.369557952E0,-5.143654107E0,-5.043999426E0,9.616151844E0
6.937413292E0,6.487387533E0,-5.133319738E0,-4.993787631E0,9.663078362E0
6.947398292E0,6.412923242E0,-5.225585293E0,-4.999295708E0,9.665675544E0
6.957384292E0,6.381462298E0,-5.378596401E0,-4.894566228E0,9.675181594E0
6.967369292E0,6.518884145E0,-5.403979164E0,-4.682104724E0,9.675791748E0
6.977355292E0,6.794981482E0,-5.211253182E0,-4.361113635E0,9.609799436E0
6.987340292E0,7.293813297E0,-4.887585238E0,-3.917677757E0,9.614385101E0
6.997326292E0,7.919801002E0,-4.589695328E0,-3.427378199E0,9.774224902E0
7.007311292E0,8.242330493E0,-4.327575468E0,-2.939488279E0,9.762403020E0
7.017297292E0,8.447430938E0,-4.192739259E0,-2.364570740E0,9.722620364E0
7.027282292E0,8.688419838E0,-4.096280374E0,-1.345616814E0,9.699424560E0
7.037268292E0,8.637718046E0,-3.805479628E0,3.899683535E-1,9.446900209E0
7.047253292E0,8.526118673E0,-3.432958782E0,2.339388537E0,9.484336790E0
7.057239292E0,8.556244113E0,-3.138952593E0,3.984160599E0,9.946651314E0
7.067224292E0,8.687498901E0,-2.910006033E0,5.198799782E0,1.053414882E1
7.077210292E0,8.984735093E0,-2.330427533E0,6.039168048E0,1.107374859E1
7.087195292E0,9.266241689E0,-1.305407998E0,6.707826979E0,1.151356886E1
7.097181292E0,9.001787912E0,-1.140855819E-1,7.461245393E0,1.169253539E1
7.107166292E0,8.213302576E0,1.234318865E0,8.450662109E0,1.184886376E1
7.117152292E0,7.266546561E0,2.462394658E0,9.526940383E0,1.223228022E1
7.127137292E0,6.384122196E0,3.128806212E0,1.042336357E1,1.261716896E1
7.137123292E0,5.571615914E0,3.314393036E0,1.141153132E1,1.312444864E1
7.147108292E0,4.521016856E0,2.857269995E0,1.250611372E1,1.360170818E1
7.157094292E0,2.372430714E0,1.665192293E0,1.347297538E1,1.378123211E1
7.167079292E0,-1.130301065E0,1.614306606E-1,1.459884623E1,1.464342691E1
7.177065292E0,-4.550650253E0,-1.497839280E0,1.521743721E1,1.595375615E1
7.187050292E0,-7.148676049E0,-3.035368583E0,1.503633491E1,1.692360479E1
7.197036292E0,-8.900421166E0,-3.788163392E0,1.402303816E1,1.703564728E1
7.207021292E0,-9.957538115E0,-3.482603397E0,1.227459321E1,1.618476846E1
7.217007292E0,-1.064228800E1,-2.426402707E0,1.020870526E1,1.494534667E1
7.226992292E0,-1.081240923E1,-1.294890757E0,8.337736003E0,1.371505658E1
7.236978292E0,-1.041656559E1,-5.659240095E-1,6.699696425E0,1.239802569E1
7.246963292E0,-9.989093199E0,-2.545485932E-1,5.259623104E0,1.129205088E1
7.256948292E0,-9.841063918E0,-2.743542820E-1,3.999219518E0,1.062617363E1
7.266934292E0,-9.522849671E0,-5.349432682E-1,2.839807286E0,9.951649892E0
7.276919292E0,-8.693537321E0,-1.090773668E0,1.628722039E0,8.911796330E0
7.286905292E0,-7.604310973E0,-1.595104058E0,5.547779739E-1,7.789587982E0
7.296890292E0,-6.330792081E0,-1.624533679E0,-3.568988407E-1,6.545640903E0
7.306876292E0,-4.594316382E0,-1.110514745E0,-1.046431162E0,4.841074694E0
7.316861292E0,-2.544664398E0,-3.760618474E-1,-1.443267070E0,2.949535429E0
7.326847292E0,-6.499651629E-1,2.537581227E-1,-1.696426365E0,1.834314670E0
7.336832292E0,9.164488734E-1,7.380765633E-1,-1.850501667E0,2.192941397E0
7.346818292E0,2.108321631E0,1.041615833E0,-2.087835472E0,3.144684500E0
7.356803292E0,2.984601887E0,1.137066220E0,-2.424282507E0,4.009727383E0
7.366789292E0,3.679134747E0,1.050228709E0,-2.819983470E0,4.753032674E0
7.376774292E0,4.161516297E0,8.630105849E-1,-3.076258746E0,5.246558209E0
7.386760292E0,4.599198223E0,6.151513526E-1,-3.099332444E0,5.580044541E0
7.396745292E0,5.133502756E0,4.190395403E-1,-2.735358472E0,5.831863395E0
7.406731292E0,5.677379181E0,4.921846998E-1,-2.201625797E0,6.109176400E0
7.416716292E0,6.072753285E0,5.963486074E-1,-1.677566171E0,6.328364116E0
7.426702292E0,6.568775513E0,7.952654752E-1,-1.121759087E0,6.711155069E0
7.436687292E0,7.066109855E0,1.011720482E0,-6.433802480E-1,7.167107154E0
7.446673292E0,7.562039112E0,1.180827075E0,-1.469270808E-1,7.655088221E0
7.456658542E0,7.939445892E0,1.383547556E0,4.842231309E-1,8.073628487E0
7.466644542E0,7.888732406E0,1.609786562E0,1.189702563E0,8.138728644E0
7.476629542E0,7.459010003E0,1.666092618E0,2.012702259E0,7.903395803E0
7.486615542E0,6.761524299E0,1.354366003E0,2.993959186E0,7.517733017E0
7.496600542E0,5.741784507E0,6.808326875E-1,4.281529521E0,7.194658958E0
7.506586542E0,4.703045650E0,-1.038083969E-1,5.903479316E0,7.548541753E0
7.516571542E0,4.037826051E0,-7.383969176E-1,7.541475039E0,8.586216570E0
7.526557542E0,3.551594694E0,-1.154331002E0,8.844594875E0,9.600685571E0
7.536542542E0,2.956198452E0,-1.175243715E0,9.517921053E0,1.003549342E1
7.546528542E0,2.223802532E0,-8.691739887E-1,9.571464007E0,9.864769858E0
7.556513542E0,1.478741543E0,-5.100649005E-1,9.207402327E0,9.339330831E0
7.566499542E0,8.937103674E-1,-3.845650877E-1,8.890577964E0,8.943656135E0
7.576484542E0,4.901238486E-1,-4.735190718E-1,8.661447802E0,8.688217292E0
7.586470542E0,-2.189010429E-1,-6.430851097E-1,8.581715754E0,8.608560937E0
7.596455542E0,-1.534623821E0,-7.522733836E-1,8.841953688E0,9.005616610E0
7.606441542E0,-3.049313315E0,-8.343922649E-1,9.338041404E0,9.858678380E0
7.616426542E0,-4.265313438E0,-1.142125962E0,9.696214938E0,1.065429184E1
7.626411542E0,-5.189883948E0,-1.612344281E0,9.841397209E0,1.124222614E1
7.636397542E0,-5.993842771E0,-1.911399248E0,9.771476789E0,1.162159012E1
7.646382542E0,-6.582705334E0,-2.096137057E0,9.432304367E0,1.169162802E1
7.656368542E0,-7.111509976E0,-2.242404718E0,8.824684521E0,1.155322509E1
7.666353542E0,-7.507779874E0,-2.350613291E0,8.018351728E0,1.123325892E1
7.676339542E0,-7.815479073E0,-2.488686371E0,7.160221376E0,1.088779331E1
7.686324542E0,-8.278191467E0,-2.720380830E0,6.469138958E0,1.085258885E1
7.696310542E0,-8.792049456E0,-3.091602425E0,5.897967145E0,1.102924094E1
7.706295542E0,-9.219122486E0,-3.568424443E0,5.360727895E0,1.124558918E1
7.716281542E0,-9.627511323E0,-4.157187019E0,4.834961466E0,1.154764178E1
7.726266542E0,-9.890812029E0,-4.777039825E0,4.208556855E0,1.176266224E1
7.736252542E0,-9.868571559E0,-5.382533916E0,3.377503788E0,1.173745747E1
7.746237542E0,-9.746303356E0,-5.830169265E0,2.428908239E0,1.161382357E1
7.756223542E0,-9.657856033E0,-5.988880239E0,1.332486307E0,1.144187001E1
7.766208542E0,-9.600190793E0,-6.091677799E0,2.476289982E-1,1.137248969E1
7.776194542E0,-9.475434600E0,-6.344314352E0,-6.902141064E-1,1.142412277E1
7.786179542E0,-9.341966640E0,-6.662038602E0,-1.464851482E0,1.156723342E1
7.796165542E0,-9.140728281E0,-6.997110372E0,-2.088880370E0,1.169939692E1
7.806150542E0,-8.787691526E0,-7.231391346E0,-2.625162431E0,1.167938444E1
7.816136542E0,-8.259928858E0,-7.391384030E0,-3.111397004E0,1.151259197E1
7.826121542E0,-7.585877625E0,-7.553540184E0,-3.587763816E0,1.129041885E1
7.836107542E0,-6.946129668E0,-7.614241884E0,-4.056716943E0,1.107620644E1
7.846092542E0,-6.492645934E0,-7.601972086E0,-4.461382273E0,1.094752769E1
7.856078542E0,-6.154569865E0,-7.617681801E0,-4.845909793E0,1.092660276E1
7.866063542E0,-5.824455950E0,-7.716620783E0,-5.180440110E0,1.096847679E1
7.876049542E0,-5.440310254E0,-7.827361785E0,-5.433020530E0,1.097188590E1
7.886034542E0,-5.111785027E0,-7.973628130E0,-5.697711704E0,1.105319005E1
7.896020542E0,-4.732278804E0,-8.047700073E0,-5.993265066E0,1.109410498E1
7.906005542E0,-4.307615997E0,-8.059940634E0,-6.269895085E0,1.108285987E1
7.915991542E0,-3.894144468E0,-8.045354755E0,-6.566589239E0,1.109108599E1
7.925976542E0,-3.548621970E0,-8.059496246E0,-6.814328749E0,1.113477768E1
7.935962542E0,-3.414121099E0,-8.219079040E0,-6.908605161E0,1.126669022E1
7.945947542E0,-3.402990340E0,-8.463361677E0,-6.885629697E0,1.142894267E1
7.955933542E0,-3.270445948E0,-8.668304831E0,-6.813337061E0,1.150029944E1
7.965918542E0,-3.024649175E0,-8.697259074E0,-6.631406209E0,1.134752688E1
7.975904542E0,-2.748531665E0,-8.580192554E0,-6.408322653E0,1.105625297E1
7.985889542E0,-2.328310841E0,-8.377707569E0,-6.152796990E0,1.065194472E1
7.995875542E0,-1.791961682E0,-8.184787459E0,-5.942649813E0,1.027214482E1
8.005860542E0,-1.313178070E0,-8.110368776E0,-5.838826067E0,1.007940515E1
8.015845542E0,-8.795118660E-1,-8.164835590E0,-5.937412462E0,1.013365423E1
8.025831542E0,-5.238511001E-1,-8.153660392E0,-6.047834791E0,1.016527931E1
8.035816542E0,-2.331005676E-1,-8.006702905E0,-6.199346089E0,1.012884590E1
8.045802542E0,1.334447902E-1,-7.794991599E0,-6.436687496E0,1.010992816E1
8.055787542E0,6.212375732E-1,-7.532621770E0,-6.524747148E0,9.984921241E0
8.065773542E0,1.190673713E0,-7.216020185E0,-6.443086104E0,9.746897442E0
8.075758542E0,1.801337985E0,-6.907555586E0,-6.301900989E0,9.522242319E0
8.085744542E0,2.341478624E0,-6.670380825E0,-6.089496202E0,9.330512660E0
8.095729542E0,2.809194773E0,-6.530282122E0,-5.878220513E0,9.224404386E0
8.105715542E0,3.191951463E0,-6.504125773E0,-5.668793129E0,9.199316374E0
8.115700542E0,3.456194447E0,-6.452728747E0,-5.255148230E0,9.011080471E0
8.125686542E0,3.907236676E0,-6.305679460E0,-4.750951595E0,8.809065385E0
8.135671542E0,4.436419340E0,-6.185770608E0,-4.173725576E0,8.681333985E0
8.145657542E0,4.999934224E0,-6.145727121E0,-3.651087407E0,8.723516685E0
8.155642542E0,5.689826149E0,-6.109587235E0,-3.243484436E0,8.956638269E0
8.165628542E0,6.654438976E0,-5.890244728E0,-2.877044694E0,9.340981062E0
8.175613542E0,7.404894022E0,-5.334241177E0,-2.400024748E0,9.436456072E0
8.185599542E0,7.862004783E0,-4.690091144E0,-1.690789064E0,9.309502769E0
8.195584542E0,8.428616352E0,-4.029505464E0,-1.007351881E0,9.396448569E0
8.205570542E0,9.178650983E0,-3.430770169E0,-6.039893103E-1,9.817465096E0
8.215555542E0,9.604759807E0,-3.027312874E0,-1.905590039E-1,1.007235558E1
8.225541542E0,9.852053175E0,-2.836859120E0,1.997063881E-1,1.025429686E1
8.235526542E0,9.872719574E0,-2.770634140E0,4.268139982E-1,1.026300032E1
8.245512542E0,9.784821305E0,-2.532119197E0,5.686095625E-1,1.012312563E1
8.255497542E0,9.858641818E0,-2.269950074E0,8.199731773E-1,1.014977083E1
8.265483542E0,9.984390868E0,-2.034844057E0,1.363045610E0,1.028039613E1
8.275468542E0,9.941040781E0,-1.936506900E0,2.212650722E0,1.036678224E1
8.285454542E0,1.002279889E1,-2.103048612E0,3.239014825E0,1.074106736E1
8.295439542E0,1.003488625E1,-2.229188548E0,4.335592877E0,1.115641471E1
8.305425542E0,9.827581408E0,-1.978236578E0,5.378033314E0,1.137620405E1
8.315410542E0,9.680190643E0,-1.325333262E0,6.290750349E0,1.162050511E1
8.325396542E0,9.444160182E0,-6.520711838E-1,6.893483092E0,1.171057076E1
8.335381542E0,8.845008273E0,-1.342930019E-1,7.385085409E0,1.152352778E1
8.345367542E0,8.114654201E0,2.860513446E-1,8.070560932E0,1.144829210E1
8.355352542E0,7.334923900E0,6.014484027E-1,8.965459161E0,1.159923734E1
8.365338542E0,6.108478019E0,8.502024052E-1,1.015155809E1,1.187815135E1
8.375323542E0,4.153593612E0,9.042005646E-1,1.156777944E1,1.232409996E1
8.385309542E0,1.621434216E0,6.534193325E-1,1.298791142E1,1.310503143E1
8.395294542E0,-9.742279887E-1,2.583226785E-2,1.422995007E1,1.426328386E1
8.405280542E0,-3.290175330E0,-8.388338099E-1,1.529083146E1,1.566328262E1
8.415265542E0,-5.299075438E0,-1.642620579E0,1.597371842E1,1.690970381E1
8.425251542E0,-7.170715374E0,-2.287697396E0,1.591118829E1,1.760166558E1
8.435236542E0,-8.998349165E0,-2.747042671E0,1.489530591E1,1.761779411E1
8.445221542E0,-1.048683626E1,-3.020685932E0,1.288027237E1,1.688193397E1
8.455206958E0,-1.140683600E1,-3.013972159E0,1.029789401E1,1.566034983E1
8.465191958E0,-1.154298374E1,-2.770112276E0,7.862771938E0,1.423858063E1
8.475177958E0,-1.108620744E1,-2.332908945E0,5.780052195E0,1.271831211E1
8.485162958E0,-1.016357411E1,-1.745197991E0,3.986274952E0,1.105596413E1
8.495148958E0,-8.967752439E0,-1.172439098E0,2.375987429E0,9.350963240E0
8.505133958E0,-7.679479269E0,-7.110676894E-1,8.687260920E-1,7.761101991E0
8.515119958E0,-6.527927449E0,-3.521764100E-1,-4.317426163E-1,6.551661368E0
8.525104958E0,-5.625870473E0,-1.706859990E-1,-1.459275577E0,5.814553938E0
8.535090958E0,-4.825699477E0,-1.651497822E-1,-2.305460068E0,5.350681827E0
8.545075958E0,-4.006244070E0,-3.378351635E-1,-3.092954886E0,5.072523442E0
8.555061958E0,-3.298951416E0,-4.487600604E-1,-3.808444167E0,5.058528740E0
8.565046958E0,-3.019637526E0,-4.639362528E-1,-4.388729450E0,5.347372609E0
8.575032958E0,-3.028900685E0,-4.953110963E-1,-4.897892125E0,5.780044957E0
8.585017958E0,-3.049770859E0,-5.808241402E-1,-5.211216930E0,6.065908082E0
8.595003958E0,-2.931256861E0,-6.737836497E-1,-5.258791630E0,6.058146631E0
8.604988958E0,-2.534780849E0,-6.868453793E-1,-4.991573875E0,5.640273068E0
8.614974958E0,-1.778878245E0,-5.822009402E-1,-4.593958533E0,4.960627052E0
8.624959958E0,-8.040085975E-1,-3.508669626E-1,-4.167549747E0,4.258874070E0
8.634945958E0,1.144195219E-1,5.734693296E-3,-3.765032099E0,3.766774671E0
8.644930958E0,1.048933478E0,3.590699484E-1,-3.473893384E0,3.646522715E0
8.654916958E0,2.017780128E0,6.032301224E-1,-3.206447003E0,3.836225437E0
8.664901958E0,2.850854723E0,8.185745964E-1,-2.891252258E0,4.142073954E0
8.674887958E0,3.700471529E0,9.041138066E-1,-2.599393167E0,4.611697751E0
8.684872958E0,4.591074101E0,8.199865528E-1,-2.371271650E0,5.231946921E0
8.694858958E0,5.372641597E0,7.194572014E-1,-2.079604931E0,5.805829231E0
8.704843958E0,5.950449999E0,5.696145527E-1,-1.607363330E0,6.189986495E0
8.714829958E0,6.265809050E0,3.308353154E-1,-9.246126097E-1,6.342296393E0
8.724814958E0,6.606255580E0,1.122095302E-1,-1.775606436E-1,6.609593902E0
8.734800958E0,7.165093276E0,6.443076164E-2,5.732241851E-1,7.188275102E0
8.744785958E0,7.837707263E0,1.027266620E-1,1.448006823E0,7.971005688E0
8.754771958E0,8.530810479E0,1.365327778E-1,2.307210724E0,8.838359008E0
8.764756958E0,9.033051220E0,2.331053916E-1,3.076420714E0,9.545402919E0
8.774742958E0,9.278177025E0,3.928329045E-1,3.862961267E0,1.005790020E1
8.784727958E0,9.367532421E0,4.839651226E-1,4.652202063E0,1.047033285E1
8.794713958E0,9.286942586E0,5.014034200E-1,5.511412981E0,1.081084553E1
8.804698958E0,8.853318336E0,4.727652195E-1,6.608158849E0,1.105769035E1
8.814684958E0,8.215936162E0,4.161666571E-1,7.970982265E0,1.145475272E1
8.824669958E0,7.420978543E0,2.427199683E-1,9.347557747E0,1.193761582E1
8.834655958E0,6.300692954E0,-1.324865046E-1,1.058859536E1,1.232211978E1
8.844640958E0,4.798171662E0,-6.299703898E-1,1.168477872E1,1.264726721E1
8.854626958E0,3.065716217E0,-1.251129903E0,1.266924869E1,1.309480066E1
8.864611958E0,1.377669497E0,-1.901641707E0,1.338465787E1,1.358908682E1
8.874597958E0,-1.738329339E-1,-2.331598145E0,1.377628566E1,1.397328216E1
8.884582958E0,-1.603828688E0,-2.450733118E0,1.374823540E1,1.405675410E1
8.894567958E0,-3.020657280E0,-2.545363432E0,1.327069563E1,1.384610443E1
8.904553958E0,-4.450815770E0,-2.605764878E0,1.263390578E1,1.364607442E1
8.914538958E0,-5.832279525E0,-2.685967042E0,1.181933251E1,1.345089307E1
8.924524958E0,-6.974396278E0,-2.843230538E0,1.109295864E1,1.340820251E1
8.934509958E0,-7.958848708E0,-2.973853827E0,1.060192701E1,1.358631428E1
8.944495958E0,-8.797517772E0,-3.181099323E0,1.009968510E1,1.376660274E1
8.954480958E0,-9.363741086E0,-3.513196906E0,9.269559399E0,1.363623596E1
8.964466958E0,-9.842221667E0,-3.957605176E0,8.196093636E0,1.340551815E1
8.974451958E0,-1.034518863E1,-4.474346135E0,6.964550151E0,1.324943999E1
8.984437958E0,-1.078754102E1,-5.115701492E0,5.633715683E0,1.320152247E1
8.994422958E0,-1.117123414E1,-5.705577378E0,4.332099751E0,1.327091458E1
9.004408958E0,-1.139329034E1,-6.163783908E0,3.152797045E0,1.333189507E1
9.014393958E0,-1.149656504E1,-6.459499823E0,2.127210622E0,1.335743877E1
9.024379958E0,-1.139524799E1,-6.651804221E0,1.169746016E0,1.324637618E1
9.034364958E0,-1.115130917E1,-6.897278520E0,1.704311335E-1,1.311309246E1
9.044350958E0,-1.083789023E1,-7.163082418E0,-8.209274429E-1,1.301704790E1
9.054335958E0,-1.038988826E1,-7.420793771E0,-1.823063022E0,1.289734535E1
9.064321958E0,-9.867377558E0,-7.659762458E0,-2.751731261E0,1.279097829E1
9.074306958E0,-9.375103396E0,-7.790163553E0,-3.521562225E0,1.268781354E1
9.084292958E0,-9.007000705E0,-7.814370441E0,-4.127300438E0,1.261844111E1
9.094277958E0,-8.532234276E0,-7.841478717E0,-4.598905277E0,1.246746726E1
9.104263958E0,-7.841607941E0,-7.865909554E0,-5.103067998E0,1.222311954E1
9.114248958E0,-7.135853689E0,-7.854727923E0,-5.612676231E0,1.200496952E1
9.124234958E0,-6.527818106E0,-7.829450410E0,-6.101451420E0,1.188025304E1
9.134219958E0,-6.036771274E0,-7.799501556E0,-6.443324670E0,1.178097045E1
9.144205958E0,-5.578857105E0,-7.841279912E0,-6.619833984E0,1.168039037E1
9.154190958E0,-5.203242497E0,-7.937501108E0,-6.684780178E0,1.160878729E1
9.164176958E0,-4.864436696E0,-8.022733047E0,-6.734859826E0,1.154925655E1
9.174161958E0,-4.482039609E0,-8.178294126E0,-6.829730900E0,1.155934246E1
9.184147958E0,-4.002131431E0,-8.418968446E0,-6.926888820E0,1.161369340E1
9.194132958E0,-3.668324122E0,-8.527831907E0,-7.004914650E0,1.162967532E1
9.204118958E0,-3.369538419E0,-8.520455060E0,-7.039959937E0,1.155478167E1
9.214103958E0,-3.046489402E0,-8.479616352E0,-7.060977169E0,1.144737480E1
9.224089958E0,-2.605853171E0,-8.430162356E0,-7.070843176E0,1.130729549E1
9.234074958E0,-2.082326372E0,-8.400062059E0,-7.091989047E0,1.118898719E1
9.244060958E0,-1.532803437E0,-8.341995699E0,-6.979296244E0,1.098403180E1
9.254045958E0,-9.525981148E-1,-8.254641221E0,-6.799799588E0,1.073703028E1
9.264031958E0,-3.299029038E-1,-8.234481191E0,-6.707676705E0,1.062583847E1
9.274016958E0,3.340153237E-1,-8.199998991E0,-6.670666169E0,1.057588468E1
9.284002958E0,8.946806397E-1,-7.955888262E0,-6.589264741E0,1.036894504E1
9.293987958E0,1.128894079E0,-7.533925699E0,-6.518064365E0,1.002594641E1
9.303973958E0,1.156777769E0,-7.139805822E0,-6.458190631E0,9.696555482E0
9.313958958E0,1.268268969E0,-6.882651125E0,-6.193728084E0,9.345676020E0
9.323944958E0,1.584862075E0,-6.851115337E0,-5.795319275E0,9.112370419E0
9.333929958E0,2.074110741E0,-6.921949092E0,-5.382132213E0,9.010142161E0
9.343914958E0,2.666729702E0,-6.897401311E0,-5.116339424E0,8.992359048E0
9.353900958E0,3.237281710E0,-6.806016347E0,-5.023395592E0,9.057392266E0
9.363885958E0,3.822149748E0,-6.686248999E0,-5.108238691E0,9.241691236E0
9.373871958E0,4.308787194E0,-6.464431949E0,-5.155826256E0,9.324005142E0
9.383856958E0,4.674248697E0,-6.106291745E0,-4.999255362E0,9.172129193E0
9.393842958E0,5.025306462E0,-5.613852106E0,-4.740408481E0,8.901714053E0
9.403827958E0,5.451136959E0,-5.092464657E0,-4.250613538E0,8.585790929E0
9.413813958E0,5.900189672E0,-4.670508234E0,-3.656230034E0,8.366235915E0
9.423798958E0,6.366782278E0,-4.380584570E0,-3.132121875E0,8.338802384E0
9.433784958E0,6.890545451E0,-4.183234903E0,-2.576893666E0,8.462827650E0
9.443769958E0,7.361967273E0,-4.115534378E0,-1.908814194E0,8.647528952E0
9.453756417E0,7.648174446E0,-4.052576238E0,-1.222705418E0,8.741450397E0
9.463741417E0,7.652875022E0,-3.931840298E0,-5.105601597E-1,8.618963738E0
9.473727417E0,7.599403405E0,-3.843928287E0,2.489750272E-1,8.519900548E0
9.483712417E0,7.639964370E0,-3.788333253E0,1.058161261E0,8.593033787E0
9.493698417E0,7.765378960E0,-3.567392117E0,1.956226342E0,8.766653775E0
9.503683417E0,7.956553091E0,-3.248186182E0,2.859089649E0,9.057143268E0
9.513669417E0,8.078579219E0,-2.908467338E0,3.725113742E0,9.359438917E0
9.523654417E0,8.117317023E0,-2.668081579E0,4.321882911E0,9.575393822E0
9.533640417E0,8.119034935E0,-2.419637040E0,4.734163654E0,9.704930560E0
9.543625417E0,8.031634263E0,-2.134552971E0,4.933753683E0,9.664646436E0
9.553611417E0,7.698542946E0,-1.558625033E0,5.139384470E0,9.386700603E0
9.563596417E0,7.139930953E0,-6.830954137E-1,5.337844232E0,8.940794953E0
9.573582417E0,6.520935348E0,1.348334673E-1,5.472450060E0,8.514017121E0
9.583567417E0,5.733545195E0,8.380000701E-1,5.722692763E0,8.144016029E0
9.593553417E0,4.465018072E0,1.490128995E0,6.319015204E0,7.879519272E0
9.603538417E0,2.970448701E0,1.691854281E0,7.284157789E0,8.046421012E0
9.613524417E0,1.326349508E0,1.267626067E0,8.461496415E0,8.658117604E0
9.623509417E0,-9.781869192E-2,7.595552867E-1,9.643221622E0,9.673583410E0
9.633495417E0,-1.362535587E0,3.317218995E-1,1.065967645E1,1.075152290E1
9.643480417E0,-2.586304467E0,1.288303138E-1,1.133919073E1,1.163111407E1
9.653466417E0,-3.790144721E0,1.785105237E-1,1.147799779E1,1.208889971E1
9.663451417E0,-4.990026117E0,4.439146189E-1,1.107519246E1,1.215554642E1
9.673437417E0,-5.877322381E0,7.418956722E-1,1.024133273E1,1.183123931E1
9.683422417E0,-6.130679312E0,1.071523684E0,9.151542122E0,1.106725418E1
9.693408417E0,-5.980280739E0,1.333471855E0,8.158574392E0,1.020314858E1
9.703393417E0,-5.976135063E0,1.459190792E0,7.108644256E0,9.400864387E0
9.713379417E0,-5.880017363E0,1.366475879E0,6.051513859E0,8.547671057E0
9.723364417E0,-5.824384614E0,1.161589589E0,5.130856891E0,7.848467299E0
9.733350417E0,-5.969267508E0,7.842741716E-1,4.178191094E0,7.328336877E0
9.743335417E0,-6.187031853E0,4.647484676E-1,3.302523773E0,7.028656881E0
9.753321417E0,-6.508115328E0,2.793608142E-1,2.445109119E0,6.957885181E0
9.763306417E0,-6.499695922E0,9.818790704E-3,1.592411415E0,6.691929289E0
9.773292417E0,-6.080078092E0,-2.996105260E-1,9.078989285E-1,6.154786474E0
9.783277417E0,-5.411229127E0,-4.281429242E-1,4.949352300E-1,5.450657567E0
9.793263417E0,-4.609813258E0,-2.440445088E-1,1.583420151E-1,4.618983459E0
9.803248417E0,-4.008497587E0,1.305361658E-1,-2.120071757E-1,4.016222061E0
9.813234417E0,-3.626510098E0,5.902618021E-1,-3.423281640E-1,3.690145398E0
9.823219417E0,-3.494075342E0,9.086967080E-1,-3.238556403E-1,3.624799950E0
9.833205417E0,-3.210569875E0,8.980889086E-1,-2.379425007E-1,3.342295505E0
9.843190417E0,-2.886577702E0,6.645459261E-1,1.075823361E-1,2.964038811E0
9.853175417E0,-2.506418345E0,3.580618519E-1,5.445020771E-1,2.589753603E0
9.863161417E0,-2.029717072E0,1.491146703E-1,8.756836939E-1,2.215583108E0
9.873146417E0,-1.420882028E0,3.101217002E-3,9.594643539E-1,1.714493279E0
9.883132417E0,-8.624233782E-1,-1.112228125E-2,9.340435839E-1,1.271351724E0
9.893118417E0,-4.056858154E-1,2.176180907E-1,7.582072842E-1,8.870270007E-1
9.903103417E0,1.074501981E-1,5.257062024E-1,2.156564230E-1,5.782907998E-1
9.913088417E0,6.559994164E-1,7.411043977E-1,-5.465374929E-1,1.130607887E0
9.923074417E0,1.224071254E0,8.538610080E-1,-1.257672937E0,1.951709577E0
9.933059417E0,1.730001077E0,9.291495375E-1,-1.696769012E0,2.595235571E0
9.943045417E0,2.205656283E0,9.239256350E-1,-1.911797444E0,3.061621741E0
9.953030417E0,2.691652290E0,7.905086922E-1,-2.054382382E0,3.477122807E0
9.963016417E0,3.167034431E0,5.814163535E-1,-2.270073304E0,3.939718881E0
9.973001417E0,3.751348737E0,4.172214217E-1,-2.481624981E0,4.517206394E0
9.982987417E0,4.382112156E0,3.146948806E-1,-2.501302031E0,5.055536733E0
9.992972417E0,4.980207472E0,2.339233439E-1,-2.333882214E0,5.504924413E0
1.000295842E1,5.703779359E0,3.498382547E-1,-1.950063377E0,6.038065333E0
1.001294342E1,6.631441877E0,6.836981886E-1,-1.353847355E0,6.802673536E0
1.002292942E1,7.393727009E0,1.096635502E0,-3.081985509E-1,7.480962161E0
1.003291442E1,7.982804750E0,1.320779304E0,8.316155684E-1,8.133954395E0
1.004290042E1,8.634041902E0,1.251580284E0,1.867097234E0,8.921837527E0
1.005288542E1,9.198446732E0,1.043479487E0,2.763794067E0,9.661202273E0
1.006287142E1,9.391979045E0,7.780499567E-1,3.421546186E0,1.002604660E1
1.007285642E1,9.312120697E0,3.952630073E-1,3.706992052E0,1.003063382E1
1.008284242E1,8.703748899E0,6.687387452E-2,3.822084551E0,9.506210987E0
1.009282742E1,7.606244062E0,-1.888312979E-1,3.890947210E0,8.545763640E0
1.010281342E1,6.676251429E0,-4.015746380E-1,4.247094684E0,7.922840942E0
1.011279842E1,5.813422254E0,-5.621422496E-1,4.970105238E0,7.669017427E0
1.012278442E1,5.010204273E0,-6.703305034E-1,6.033674004E0,7.871258593E0
1.013276942E1,4.163351738E0,-7.698737951E-1,7.271123761E0,8.414002858E0
1.014275542E1,3.049277354E0,-9.021115007E-1,8.384288025E0,8.967061015E0
1.015274042E1,1.845433154E0,-1.128813314E0,9.237180442E0,9.487114711E0
1.016272642E1,5.672595135E-1,-1.512330581E0,9.799766788E0,9.931986520E0
1.017271142E1,-1.151447082E0,-1.951432795E0,1.043295768E1,1.067616627E1
1.018269742E1,-3.121557418E0,-2.235309706E0,1.111894366E1,1.176314747E1
1.019268242E1,-4.924290549E0,-2.440562909E0,1.145323834E1,1.270360788E1
1.020266842E1,-6.379736200E0,-2.702046300E0,1.141328080E1,1.335159417E1
1.021265342E1,-7.540336586E0,-2.815800957E0,1.132324772E1,1.389249257E1
1.022263942E1,-8.502702913E0,-2.670194178E0,1.128314985E1,1.437829490E1
1.023262442E1,-9.203757173E0,-2.537935130E0,1.124029912E1,1.474769762E1
1.024261042E1,-9.665001916E0,-2.472280838E0,1.121445559E1,1.500961188E1
1.025259542E1,-9.777307048E0,-2.454835086E0,1.100566555E1,1.492469841E1
1.026258142E1,-9.446569235E0,-2.560451295E0,1.058670086E1,1.441776044E1
1.027256642E1,-9.168179204E0,-2.837178378E0,1.003325839E1,1.388421280E1
1.028255242E1,-9.273478203E0,-3.334536986E0,9.167112088E0,1.345928969E1
1.029253742E1,-9.664516597E0,-4.065533960E0,8.009569210E0,1.319411408E1
1.030252342E1,-1.005241036E1,-4.959648077E0,6.689185470E0,1.305351544E1
1.031250842E1,-1.027851751E1,-5.765659858E0,5.361031365E0,1.294725504E1
1.032249442E1,-1.049351495E1,-6.476551473E0,3.988075309E0,1.296010493E1
1.033247942E1,-1.059044074E1,-7.071638982E0,2.693504688E0,1.301616228E1
1.034246542E1,-1.066620662E1,-7.563270535E0,1.441466712E0,1.315480335E1
1.035245042E1,-1.068374242E1,-7.949232377E0,2.976203531E-1,1.331995591E1
1.036243642E1,-1.047836131E1,-8.216177652E0,-7.181942028E-1,1.333482035E1
1.037242142E1,-1.009368702E1,-8.450710641E0,-1.662245881E0,1.326876367E1
1.038240742E1,-9.704124466E0,-8.628332096E0,-2.548343466E0,1.323299667E1
1.039239242E1,-9.430660130E0,-8.727706695E0,-3.319009413E0,1.327124855E1
1.040237842E1,-9.304454412E0,-8.873203547E0,-3.988767035E0,1.346168175E1
1.041236342E1,-9.030734553E0,-9.108934631E0,-4.518862157E0,1.359952102E1
1.042234942E1,-8.467844152E0,-9.241776354E0,-4.994894509E0,1.349310142E1
1.043233442E1,-7.781313207E0,-9.242192091E0,-5.473814215E0,1.326384529E1
1.044232042E1,-7.024807463E0,-9.220581366E0,-5.865885812E0,1.299136856E1
1.045230467E1,-6.236767099E0,-9.069618537E0,-6.115037425E0,1.259162130E1
1.046229067E1,-5.410995823E0,-8.848037131E0,-6.337855518E0,1.215463078E1
1.047227567E1,-4.538688019E0,-8.581527473E0,-6.590878572E0,1.173379662E1
1.048226167E1,-3.671268195E0,-8.386555576E0,-7.010881734E0,1.153104450E1
1.049224667E1,-2.881778892E0,-8.225122722E0,-7.477469662E0,1.148345967E1
1.050223267E1,-2.149709393E0,-8.005772029E0,-7.789592865E0,1.137503377E1
1.051221767E1,-1.480896388E0,-7.740148809E0,-8.053461335E0,1.126770594E1
1.052220267E1,-9.665264748E-1,-7.489062352E0,-8.228085507E0,1.116788339E1
1.053218867E1,-5.707283742E-1,-7.264315263E0,-8.205011809E0,1.097352386E1
1.054217367E1,-2.620837172E-1,-7.186949583E0,-7.977910631E0,1.074094922E1
1.055215967E1,-3.428120211E-2,-7.074371971E0,-7.642640641E0,1.041431082E1
1.056214467E1,2.287034797E-1,-7.044689165E0,-7.214272453E0,1.008591482E1
1.057213067E1,4.206107237E-1,-7.097146876E0,-6.756675203E0,9.808112303E0
1.058211567E1,4.410188585E-1,-7.270354852E0,-6.196690868E0,9.563029594E0
1.059210167E1,2.091688093E-1,-7.585080065E0,-5.756232977E0,9.524253738E0
1.060208667E1,-7.017213812E-2,-7.814007913E0,-5.532457695E0,9.574535600E0
1.061207267E1,-2.594308355E-1,-7.890498265E0,-5.441740483E0,9.588524741E0
1.062205767E1,-2.309789420E-1,-7.904509948E0,-5.686190350E0,9.739989193E0
1.063204367E1,1.256393511E-1,-7.786672180E0,-6.210849316E0,9.961059086E0
1.064202867E1,7.326111708E-1,-7.490710098E0,-6.643936207E0,1.003938968E1
1.065201467E1,1.298398209E0,-7.069328163E0,-6.779643066E0,9.880526235E0
1.066199967E1,1.837967283E0,-6.646481500E0,-6.776962118E0,9.668560162E0
1.067198567E1,2.497155478E0,-6.267510590E0,-6.684655632E0,9.497478371E0
1.068197067E1,3.072966179E0,-5.854693072E0,-6.492532498E0,9.266797200E0
1.069195667E1,3.490136072E0,-5.508333837E0,-6.246575219E0,9.030088230E0
1.070194167E1,3.925217741E0,-5.299399958E0,-5.929525738E0,8.868497601E0
1.071192767E1,4.353656096E0,-5.203604439E0,-5.290818585E0,8.603753940E0
1.072191267E1,4.783279974E0,-5.105605105E0,-4.542342821E0,8.341453656E0
1.073189867E1,5.277343676E0,-5.040015718E0,-3.477136250E0,8.083476431E0
1.074188367E1,5.762260287E0,-5.070492575E0,-2.430504529E0,8.051142207E0
1.075186967E1,6.011934641E0,-5.092596804E0,-1.596850621E0,8.039143751E0
1.076185467E1,6.150611300E0,-5.091510392E0,-1.044583442E0,8.052617711E0
1.077184067E1,6.283750062E0,-5.001753877E0,-5.758911002E-1,8.052000202E0
1.078182567E1,6.629129303E0,-4.633501790E0,-5.967726767E-2,8.088155262E0
1.079181167E1,7.192504438E0,-4.209470775E0,5.520245200E-1,8.352035403E0
1.080179667E1,7.907874436E0,-3.845419620E0,1.253714372E0,8.882202985E0
1.081178267E1,8.761823444E0,-3.413226768E0,2.066118913E0,9.627487440E0
1.082176767E1,9.465650454E0,-2.880161260E0,3.055809279E0,1.035528067E1
1.083175367E1,9.869687208E0,-2.468514062E0,3.952495002E0,1.091450888E1
1.084173867E1,1.002301874E1,-2.340160662E0,4.668001825E0,1.130165907E1
1.085172467E1,9.742138385E0,-2.417386447E0,5.092996169E0,1.125573754E1
1.086170967E1,8.971280649E0,-2.593493911E0,5.304467155E0,1.073999343E1
1.087169567E1,7.922442774E0,-2.890701743E0,5.408808964E0,1.001880584E1
1.088168067E1,6.893753234E0,-2.964990618E0,5.655677240E0,9.396897789E0
1.089166667E1,6.099089729E0,-2.697824903E0,6.077213541E0,9.022731247E0
1.090165167E1,5.536218039E0,-2.287529727E0,6.517022976E0,8.851784617E0
1.091163767E1,4.995948762E0,-1.665319908E0,6.896535339E0,8.677268816E0
1.092162267E1,4.562069573E0,-9.464108104E-1,7.261718515E0,8.627904032E0
1.093160867E1,4.179113493E0,-1.380476452E-2,7.769474350E0,8.822126264E0
1.094159367E1,3.419875637E0,1.015983321E0,8.469319990E0,9.190057267E0
1.095157967E1,2.558393075E0,1.674513047E0,9.470957971E0,9.952306967E0
1.096156467E1,1.665022139E0,1.686890287E0,1.057468483E1,1.083705942E1
1.097155067E1,1.834499226E-1,1.057029094E0,1.172814869E1,1.177711493E1
1.098153567E1,-1.713807506E0,2.828868315E-1,1.260109238E1,1.272024726E1
1.099152167E1,-3.958670831E0,-8.953461260E-2,1.310252620E1,1.368777864E1
1.100150667E1,-6.002948640E0,-2.627117448E-1,1.312204889E1,1.443234481E1
1.101149267E1,-7.535208578E0,-3.205744752E-1,1.231582661E1,1.444166615E1
1.102147767E1,-8.405614575E0,-3.166300897E-1,1.093688476E1,1.379746568E1
1.103146367E1,-8.994101747E0,-3.143099146E-1,9.376827739E0,1.299682867E1
1.104144867E1,-9.342811562E0,-1.996104938E-1,7.912022451E0,1.224451189E1
1.105143467E1,-9.306607357E0,5.067825660E-2,6.600765045E0,1.140989080E1
1.106141967E1,-8.897348455E0,2.901154518E-1,5.486641837E0,1.045706532E1
1.107140567E1,-8.214118263E0,5.141671608E-1,4.474109908E0,9.367698019E0
1.108139067E1,-7.424876297E0,6.628587851E-1,3.416025830E0,8.199841600E0
1.109137667E1,-6.732645485E0,7.194453607E-1,2.046752935E0,7.073564479E0
1.110136167E1,-6.164665668E0,6.428236661E-1,5.434694588E-1,6.221871432E0
1.111134767E1,-5.939382974E0,3.286283570E-1,-6.898439777E-1,5.988334612E0
1.112133267E1,-5.767495299E0,-2.883886959E-1,-1.731245949E0,6.028630242E0
1.113131867E1,-5.258426179E0,-9.027560831E-1,-2.415234525E0,5.856566591E0
1.114130367E1,-4.419530827E0,-1.197472928E0,-2.741628442E0,5.336920522E0
1.115128967E1,-3.262692540E0,-1.064396586E0,-3.024568775E0,4.574507512E0
1.116127467E1,-1.800745516E0,-6.681949541E-1,-3.173955195E0,3.709873379E0
1.117126067E1,-2.353804335E-1,-1.923337070E-1,-3.130561253E0,3.145283765E0
1.118124567E1,1.297476834E0,1.878887267E-1,-3.080399745E0,3.347777008E0
1.119123067E1,2.675299674E0,4.554595077E-1,-2.825554698E0,3.917707373E0
1.120121667E1,4.004040839E0,5.697760820E-1,-2.432887269E0,4.719738159E0
1.121120167E1,5.442582482E0,6.076034743E-1,-1.721915547E0,5.740721140E0
1.122118767E1,6.734172193E0,6.086129960E-1,-8.045552391E-1,6.809316709E0
1.123117267E1,7.543572435E0,5.096370305E-1,1.063871652E-1,7.561516595E0
1.124115867E1,7.757592807E0,3.832722683E-1,7.238233173E-1,7.800709198E0
1.125114367E1,7.515521003E0,2.533597080E-1,9.897476685E-1,7.584645512E0
1.126112967E1,7.083552099E0,6.992875233E-2,1.101622446E0,7.169042641E0
1.127111467E1,6.656120051E0,-2.034869054E-1,1.331957719E0,6.791130422E0
1.128110067E1,6.546912773E0,-5.031730798E-1,1.448196273E0,6.724025762E0
1.129108567E1,6.603820215E0,-4.737627545E-1,1.698918448E0,6.835291981E0
1.130107167E1,6.600538173E0,3.910076961E-2,2.186144709E0,6.953262668E0
1.131105667E1,6.604994920E0,5.478944854E-1,2.734062729E0,7.169466178E0
1.132104267E1,6.583183052E0,7.632138164E-1,3.357156647E0,7.429084411E0
1.133102767E1,6.314156753E0,7.943078475E-1,4.210229743E0,7.630565834E0
1.134101367E1,5.560612038E0,8.332576127E-1,5.456618723E0,7.835139589E0
1.135099867E1,4.363926438E0,7.711989203E-1,6.869421215E0,8.174811897E0
1.136098467E1,2.772920986E0,4.547550644E-1,8.428750838E0,8.884803524E0
1.137096967E1,1.320019020E0,-5.194154754E-2,9.771775582E0,9.860666618E0
1.138095567E1,2.595907934E-3,-7.145929027E-1,1.061893656E1,1.064295370E1
1.139094067E1,-1.315309526E0,-1.353074938E0,1.069733603E1,1.086249736E1
1.140092667E1,-2.683531969E0,-1.700924335E0,1.020143834E1,1.068474762E1
1.141091167E1,-4.033387138E0,-1.931761592E0,9.260582169E0,1.028388529E1
1.142089767E1,-5.472262364E0,-2.076833644E0,8.521784717E0,1.033826427E1
1.143088267E1,-6.935759631E0,-2.171840227E0,8.048431560E0,1.084430275E1
1.144086867E1,-8.061452724E0,-2.459903744E0,7.773944546E0,1.146613973E1
1.145085367E1,-8.740245464E0,-2.748938923E0,7.639637511E0,1.192948521E1
1.146083996E1,-8.952945535E0,-2.709584531E0,7.646505650E0,1.208164437E1
1.147082496E1,-8.749060142E0,-2.393216835E0,7.574930468E0,1.181749177E1
1.148081096E1,-8.456474826E0,-2.201501836E0,7.195319288E0,1.131950513E1
1.149079596E1,-8.342302094E0,-2.287986541E0,6.597028089E0,1.087886328E1
1.150078196E1,-8.526026287E0,-2.557779995E0,5.860746694E0,1.065756607E1
1.151076696E1,-8.869118097E0,-2.863366887E0,5.350882938E0,1.074672387E1
1.152075296E1,-9.235109358E0,-3.235310029E0,5.010758005E0,1.099373329E1
1.153073796E1,-9.613932334E0,-3.787666671E0,4.589795900E0,1.130665026E1
1.154072396E1,-9.887403102E0,-4.523329723E0,3.971518918E0,1.157558700E1
1.155070896E1,-1.018900482E1,-5.203486910E0,3.324774767E0,1.191411862E1
1.156069496E1,-1.042846819E1,-5.689431462E0,2.464633557E0,1.213247698E1
1.157067996E1,-1.028567567E1,-5.937552795E0,1.438346053E0,1.196321431E1
1.158066596E1,-9.985922838E0,-5.818271935E0,5.112045228E-1,1.156858994E1
1.159065096E1,-9.762056340E0,-5.728466889E0,-4.242418081E-1,1.132665255E1
1.160063696E1,-9.528451889E0,-5.761182060E0,-1.230862868E0,1.120257281E1
1.161062196E1,-9.369785938E0,-5.876098559E0,-1.895984818E0,1.122123795E1
1.162060796E1,-9.322449219E0,-6.228542406E0,-2.471613379E0,1.148092647E1
1.163059296E1,-9.295563721E0,-6.715544719E0,-2.978000965E0,1.184797601E1
1.164057896E1,-9.199367083E0,-7.166869660E0,-3.466957417E0,1.216602520E1
1.165056396E1,-9.039981340E0,-7.433458255E0,-3.868237209E0,1.232642784E1
1.166054996E1,-8.748606398E0,-7.592478547E0,-4.274475440E0,1.234726628E1
1.167053496E1,-8.263679262E0,-7.702583372E0,-4.762750692E0,1.225977079E1
1.168052096E1,-7.628716081E0,-7.839338636E0,-5.198559462E0,1.211105114E1
1.169050596E1,-6.934366239E0,-7.910882828E0,-5.630737111E0,1.193200330E1
1.170049196E1,-6.164420085E0,-7.928549021E0,-6.144614396E0,1.177362521E1
1.171047696E1,-5.450794896E0,-8.021204000E0,-6.600932860E0,1.173129120E1
1.172046296E1,-4.879830076E0,-8.111623589E0,-6.877733617E0,1.170104263E1
1.173044796E1,-4.402625065E0,-8.163184921E0,-7.109818962E0,1.168632625E1
1.174043396E1,-3.910961645E0,-8.162863909E0,-7.199673709E0,1.156560719E1
1.175041896E1,-3.414798499E0,-8.155773575E0,-7.148341588E0,1.136997269E1
1.176040496E1,-2.839572812E0,-8.247290686E0,-6.971190834E0,1.116595178E1
1.177038996E1,-2.174732406E0,-8.284283096E0,-6.670048118E0,1.085579796E1
1.178037596E1,-1.498351350E0,-8.275652021E0,-6.454345502E0,1.060141731E1
1.179036096E1,-8.600279932E-1,-8.170744786E0,-6.177378684E0,1.027914033E1
1.180034696E1,-2.532737540E-1,-7.930121337E0,-5.926021501E0,9.902964347E0
1.181033196E1,2.477419225E-1,-7.764146951E0,-5.798297846E0,9.693482958E0
1.182031796E1,7.514900029E-1,-7.686470200E0,-5.821068658E0,9.671163409E0
1.183030296E1,1.267900302E0,-7.607881867E0,-5.932693759E0,9.730585436E0
1.184028896E1,1.780894804E0,-7.500839814E0,-6.056354769E0,9.803755265E0
1.185027396E1,2.225371925E0,-7.187640139E0,-6.132281449E0,9.706664038E0
1.186025996E1,2.401300756E0,-6.962148115E0,-6.236254299E0,9.650317061E0
1.187024496E1,2.520666255E0,-7.037883006E0,-6.382703077E0,9.829773861E0
1.188023096E1,2.801864119E0,-7.174655228E0,-6.617049540E0,1.015438156E1
1.189021596E1,3.219987693E0,-7.259478446E0,-6.877510838E0,1.050564150E1
1.190020196E1,3.697432439E0,-7.161319483E0,-7.086189194E0,1.073170912E1
1.191018696E1,4.302570142E0,-6.809223545E0,-7.028015245E0,1.068974431E1
1.192017296E1,5.001242831E0,-6.381664027E0,-6.646755735E0,1.048415125E1
1.193015796E1,5.722011563E0,-5.867687924E0,-6.007267978E0,1.016161633E1
1.194014396E1,6.318354469E0,-5.386835128E0,-5.297230057E0,9.848870096E0
1.195012896E1,6.770360026E0,-5.069027263E0,-4.507201055E0,9.583719196E0
1.196011496E1,7.069339857E0,-4.732002524E0,-3.562961097E0,9.222911995E0
1.197009996E1,7.359361753E0,-4.417439863E0,-2.558669649E0,8.956604866E0
1.198008596E1,8.066088397E0,-4.194704216E0,-1.511729779E0,9.216433823E0
1.199007096E1,8.839800158E0,-3.917503217E0,-5.358177924E-1,9.683800855E0
1.200005696E1,9.333893974E0,-3.601263868E0,4.616277355E-1,1.001517740E1
1.201004196E1,9.437196733E0,-3.351526363E0,1.531822566E0,1.013113476E1
1.202002796E1,8.859742672E0,-3.161155640E0,2.579017375E0,9.753936426E0
1.203001296E1,7.881131026E0,-2.806162407E0,3.624909423E0,9.117386798E0
1.203999896E1,6.861470756E0,-2.053335438E0,5.026835509E0,8.750145290E0
1.204998396E1,5.950478066E0,-9.118161976E-1,6.629770743E0,8.955080016E0
1.205996896E1,5.690206218E0,1.845363718E-1,8.243866557E0,1.001867438E1
1.206995496E1,6.087813959E0,1.005374425E0,9.551550145E0,1.137120779E1
1.207993996E1,6.810991743E0,1.475967331E0,1.052786033E1,1.262552697E1
1.208992596E1,7.050179116E0,1.358836638E0,1.111201588E1,1.322982840E1
1.209991096E1,6.032782888E0,7.811081236E-1,1.146770669E1,1.298125171E1
1.210989696E1,3.933990026E0,1.433157125E-1,1.162746665E1,1.227578094E1
1.211988196E1,1.592849664E0,-1.426148688E-1,1.131791155E1,1.143033818E1
1.212986796E1,-2.887600124E-1,-2.765988819E-3,1.057806218E1,1.058200310E1
1.213985396E1,-1.167973433E0,5.655020232E-1,9.537740191E0,9.625613872E0
1.214983896E1,-1.321062602E0,1.109489947E0,8.292362779E0,8.469914686E0
1.215982396E1,-1.705099247E0,1.457543924E0,7.156770349E0,7.500077304E0
1.216980996E1,-2.719007611E0,1.597822136E0,6.317309572E0,7.060767535E0
1.217979496E1,-4.116648565E0,1.496019773E0,5.921210997E0,7.365161929E0
1.218978096E1,-5.488829865E0,1.356362681E0,5.842326795E0,8.130175607E0
1.219976596E1,-6.068187194E0,1.035853402E0,5.830360469E0,8.478737600E0
1.220975196E1,-6.207335724E0,6.311815674E-1,5.636134676E0,8.408056913E0
1.221973696E1,-6.285637543E0,2.602924593E-1,5.281733181E0,8.214237450E0
1.222972296E1,-6.140155894E0,9.110320129E-2,4.922751562E0,7.870406415E0
1.223970796E1,-5.846157306E0,9.972989090E-2,4.430306076E0,7.335878491E0
1.224969396E1,-5.248342071E0,1.996380488E-1,3.581723058E0,6.357176253E0
1.225967896E1,-4.522581279E0,3.947223591E-1,2.389557062E0,5.130256341E0
1.226966496E1,-3.916203381E0,7.314046709E-1,1.225486354E0,4.168143294E0
1.227964996E1,-3.218259840E0,9.212927800E-1,1.317588186E-1,3.350124949E0
1.228963596E1,-2.372315231E0,8.700136489E-1,-8.764069945E-1,2.674489208E0
1.229962096E1,-1.769570062E0,4.663811564E-1,-1.683719780E0,2.486725133E0
1.230960696E1,-1.318632791E0,8.879998304E-2,-2.166857668E0,2.538099689E0
1.231959196E1,-7.912720462E-1,-1.012728980E-1,-2.219628789E0,2.358626637E0
1.232957796E1,-7.951332550E-2,-1.345020398E-1,-1.969294285E0,1.975483016E0
1.233956296E1,9.752246466E-1,-1.037731674E-1,-1.426101984E0,1.730779839E0
1.234954896E1,2.325871821E0,7.657060459E-2,-6.906912392E-1,2.427467234E0
1.235953396E1,3.739886440E0,3.951130262E-1,-7.892747104E-2,3.761528205E0
1.236951996E1,5.172351072E0,7.044043487E-1,2.413333011E-1,5.225671522E0
1.237950496E1,6.224556944E0,8.501963387E-1,2.730556154E-1,6.288282940E0
1.238949096E1,6.935371376E0,8.936261675E-1,8.328773975E-2,6.993202463E0
1.239947596E1,7.486235223E0,7.826628982E-1,1.374680400E-3,7.527036663E0
1.240946196E1,7.820889502E0,5.524034927E-1,1.592892641E-1,7.841991793E0
1.241944696E1,7.867928013E0,3.626728930E-1,6.098371106E-1,7.899855957E0
1.242943296E1,7.646850636E0,1.901811276E-1,1.063052457E0,7.722730996E0
1.243941796E1,7.436541492E0,-7.735003844E-2,1.425985039E0,7.572421391E0
1.244940396E1,7.110123017E0,-3.493196797E-1,1.877454407E0,7.362113053E0
1.245938879E1,6.522984797E0,-3.873873925E-1,2.499179492E0,6.996091608E0
1.246937479E1,5.935690457E0,-3.948035623E-1,3.352179497E0,6.828279318E0
1.247935979E1,5.359385374E0,-5.542527477E-1,4.506321634E0,7.024040316E0
1.248934579E1,4.699301678E0,-6.256088054E-1,5.815533099E0,7.503015918E0
1.249933079E1,3.812404194E0,-7.057174140E-1,7.133407799E0,8.118988215E0
1.250931679E1,2.688940643E0,-7.623102754E-1,8.320049345E0,8.776943650E0
1.251930179E1,1.430735317E0,-9.312316579E-1,9.243996542E0,9.400301485E0
1.252928779E1,2.414187070E-1,-1.282621106E0,9.800535697E0,9.887057188E0
1.253927279E1,-8.662715770E-1,-1.699892009E0,1.011369736E1,1.029208111E1
1.254925879E1,-2.194777831E0,-1.992779042E0,1.030369445E1,1.072167605E1
1.255924379E1,-3.779494602E0,-1.947657540E0,1.057248043E1,1.139540661E1
1.256922979E1,-5.314766441E0,-1.843407678E0,1.078482791E1,1.216377439E1
1.257921479E1,-6.667737299E0,-1.847733449E0,1.087129420E1,1.288634460E1
1.258920079E1,-7.667100129E0,-1.812883459E0,1.078191366E1,1.335367489E1
1.259918579E1,-8.253872897E0,-1.736052361E0,1.052782758E1,1.348982762E1
1.260917179E1,-8.786489339E0,-1.687458929E0,1.027485598E1,1.362433771E1
1.261915679E1,-9.365883506E0,-1.707459622E0,1.017822256E1,1.393669282E1
1.262914279E1,-9.880617993E0,-1.981953945E0,9.981289505E0,1.418382507E1
1.263912779E1,-1.027499515E1,-2.412962005E0,9.657742597E0,1.430628893E1
1.264911379E1,-1.051077125E1,-2.784020463E0,9.008023968E0,1.411990007E1
1.265909879E1,-1.069711383E1,-3.326361994E0,7.896777590E0,1.370591204E1
1.266908479E1,-1.100010134E1,-3.978294087E0,6.607443734E0,1.343455865E1
1.267906979E1,-1.141424910E1,-4.686938910E0,5.160735578E0,1.337481479E1
1.268905579E1,-1.194476932E1,-5.551461146E0,3.723269531E0,1.368791331E1
1.269904079E1,-1.227663974E1,-6.296698136E0,2.447119977E0,1.401259030E1
1.270902679E1,-1.231203761E1,-6.726544501E0,1.220548380E0,1.408269894E1
1.271901179E1,-1.202803016E1,-6.970462271E0,6.849428415E-3,1.390183084E1
1.272899779E1,-1.149419574E1,-7.155364679E0,-1.180074538E0,1.359074521E1
1.273898279E1,-1.090533084E1,-7.341376303E0,-2.217995662E0,1.333197478E1
1.274896879E1,-1.034848529E1,-7.592990178E0,-3.130940153E0,1.321164009E1
1.275895379E1,-9.903190584E0,-7.951553721E0,-3.904092920E0,1.328692334E1
1.276893979E1,-9.576386193E0,-8.194159961E0,-4.544184694E0,1.339779999E1
1.277892479E1,-9.115605719E0,-8.287166943E0,-5.098800116E0,1.333301039E1
1.278891079E1,-8.431958621E0,-8.358907017E0,-5.559583513E0,1.311023347E1
1.279889579E1,-7.605989124E0,-8.449192119E0,-6.004352556E0,1.285660016E1
1.280888179E1,-6.823988349E0,-8.556386200E0,-6.360462023E0,1.265835846E1
1.281886679E1,-6.191005036E0,-8.549964788E0,-6.610967851E0,1.245533368E1
1.282885279E1,-5.651600561E0,-8.578282269E0,-6.764850195E0,1.230002901E1
1.283883779E1,-5.121534090E0,-8.727499119E0,-6.862965889E0,1.222700507E1
1.284882379E1,-4.636539419E0,-8.940152412E0,-6.950529698E0,1.223657166E1
1.285880879E1,-4.163449679E0,-9.145188537E0,-6.943345224E0,1.221387856E1
1.286879479E1,-3.707810954E0,-9.335227139E0,-6.916992992E0,1.219586487E1
1.287877979E1,-3.196475746E0,-9.576820056E0,-7.002468760E0,1.228688359E1
1.288876579E1,-2.586729560E0,-9.739144025E0,-7.077141797E0,1.231373348E1
1.289875079E1,-1.908609542E0,-9.733369315E0,-7.157255083E0,1.223141729E1
1.290873679E1,-1.349949601E0,-9.593332593E0,-7.201771690E0,1.207145019E1
1.291872179E1,-8.617014664E-1,-9.328368355E0,-7.156735266E0,1.178897134E1
1.292870779E1,-4.523152771E-1,-9.053562668E0,-7.043783432E0,1.147982888E1
1.293869279E1,-9.287099730E-2,-8.871045924E0,-6.875268431E0,1.122378710E1
1.294867879E1,2.848720343E-1,-8.692843841E0,-6.737677014E0,1.100195336E1
1.295866379E1,8.321598711E-1,-8.604933878E0,-6.731297702E0,1.095663022E1
1.296864979E1,1.426002143E0,-8.574321365E0,-6.787216380E0,1.102809028E1
1.297863479E1,1.948823183E0,-8.466363637E0,-6.829304638E0,1.105063921E1
1.298862079E1,2.408409070E0,-8.314927184E0,-6.929230630E0,1.108840320E1
1.299860579E1,2.839769863E0,-7.996714692E0,-6.905923043E0,1.094091001E1
1.300859179E1,3.244934253E0,-7.593095428E0,-6.795660928E0,1.069419020E1
1.301857679E1,3.707603670E0,-7.318626541E0,-6.619942743E0,1.054192873E1
1.302856279E1,4.279633562E0,-7.136926653E0,-6.221840327E0,1.039049000E1
1.303854779E1,4.956539113E0,-6.890968205E0,-5.590602407E0,1.016403257E1
1.304853379E1,5.551615512E0,-6.635545453E0,-4.964926944E0,9.975038737E0
1.305851879E1,5.992178653E0,-6.286136311E0,-4.339815152E0,9.708538010E0
1.306850479E1,6.319194129E0,-5.888105232E0,-3.763110704E0,9.421411775E0
1.307848979E1,6.647602412E0,-5.539096039E0,-3.186512091E0,9.220957762E0
1.308847579E1,7.005650815E0,-5.120524276E0,-2.730823957E0,9.097049614E0
1.309846079E1,7.377439590E0,-4.668625138E0,-2.280557361E0,9.023503613E0
1.310844679E1,7.640838529E0,-4.199557990E0,-1.819098610E0,8.906616669E0
1.311843179E1,7.769887748E0,-3.802422704E0,-1.135533957E0,8.724620989E0
1.312841779E1,7.745996025E0,-3.407249744E0,-3.568105477E-1,8.469776797E0
1.313840279E1,7.717697840E0,-3.032056720E0,5.143438929E-1,8.307874430E0
1.314838879E1,7.650039707E0,-2.768599893E0,1.452444860E0,8.264251265E0
1.315837379E1,7.388925276E0,-2.590119775E0,2.337810373E0,8.171309229E0
1.316835979E1,6.895627266E0,-2.335174448E0,3.158721444E0,7.936008837E0
1.317834479E1,5.811596754E0,-1.902342788E0,4.011234376E0,7.313245937E0
1.318833079E1,4.717407581E0,-1.251027430E0,5.071318787E0,7.038272384E0
1.319831579E1,4.042767533E0,-5.782617807E-1,6.177643563E0,7.405513892E0
1.320830179E1,3.988556243E0,-8.372061644E-2,7.145941890E0,8.184135602E0
1.321828679E1,4.404096517E0,2.748834185E-1,7.930644078E0,9.075612515E0
1.322827279E1,4.589337478E0,6.670574514E-1,8.460636874E0,9.648282772E0
1.323825779E1,4.444954521E0,1.057417715E0,8.784863228E0,9.901998528E0
1.324824379E1,3.579509594E0,1.337939128E0,8.963125538E0,9.743746171E0
1.325822879E1,2.006750671E0,1.584091997E0,9.300402877E0,9.645407683E0
1.326821479E1,4.128355714E-1,1.674696942E0,9.607722591E0,9.761320425E0
1.327819979E1,-8.066162364E-1,1.702356611E0,9.903120418E0,1.008069649E1
1.328818579E1,-1.969471894E0,1.853863962E0,1.023543289E1,1.058677087E1
1.329817079E1,-3.378786083E0,1.757043134E0,1.047821513E1,1.114882901E1
1.330815679E1,-4.922780213E0,1.343200160E0,1.072908407E1,1.188070691E1
1.331814179E1,-6.377730020E0,8.214949152E-1,1.087201107E1,1.263134667E1
1.332812779E1,-7.421778442E0,3.181903461E-1,1.069652443E1,1.302304401E1
1.333811279E1,-7.795592108E0,-7.773858592E-2,1.011727586E1,1.277249273E1
1.334809879E1,-7.581309196E0,-5.550352514E-2,9.087499908E0,1.183477859E1
1.335808379E1,-6.850031263E0,3.575301938E-1,7.722018932E0,1.032861716E1
1.336806979E1,-5.916620933E0,8.737668304E-1,6.307864564E0,8.692469563E0
1.337805479E1,-4.757151983E0,1.329021539E0,4.904341019E0,6.960557023E0
1.338804079E1,-3.412590883E0,1.700794966E0,3.544227203E0,5.205768581E0
1.339802579E1,-2.243646520E0,1.961370430E0,2.471112272E0,3.871345959E0
1.340801179E1,-1.275060510E0,2.060578676E0,1.575023550E0,2.890062797E0
1.341799679E1,-5.101328013E-1,1.916132569E0,7.036808288E-1,2.104035695E0
1.342798279E1,1.083876073E-1,1.591329680E0,-2.459537709E-1,1.613868421E0
1.343796779E1,5.367661742E-1,1.193004121E0,-1.155112190E0,1.745182205E0
1.344795379E1,6.765982801E-1,7.340628152E-1,-2.018575788E0,2.251950634E0
1.345793904E1,8.713822628E-1,2.494075019E-1,-2.824274742E0,2.966148845E0
1.346792504E1,1.137122865E0,-2.595285206E-1,-3.543419702E0,3.730445905E0
1.347791004E1,1.507570655E0,-6.253391026E-1,-4.038359025E0,4.355704523E0
1.348789604E1,1.955337712E0,-7.973904265E-1,-4.188612002E0,4.690804575E0
1.349788104E1,2.433887289E0,-8.841509738E-1,-4.080988151E0,4.833217828E0
1.350786704E1,3.002057580E0,-8.380608080E-1,-3.771262892E0,4.892557555E0
1.351785204E1,3.718289457E0,-7.201783823E-1,-3.355858566E0,5.060249016E0
1.352783804E1,4.555854567E0,-5.174845786E-1,-3.008977759E0,5.484300164E0
1.353782304E1,5.330319450E0,-3.455842591E-1,-2.637404746E0,5.957150134E0
1.354780904E1,5.986111583E0,-2.975675089E-1,-2.176859331E0,6.376581752E0
1.355779404E1,6.321969802E0,-3.421325746E-1,-1.630725880E0,6.537860795E0
1.356778004E1,6.311249517E0,-4.234132576E-1,-1.041428869E0,6.410594617E0
1.357776504E1,6.235757285E0,-5.537827778E-1,-3.902390796E-1,6.272450145E0
1.358775104E1,6.325984501E0,-5.921852437E-1,2.432511878E-1,6.358296502E0
1.359773604E1,6.574926783E0,-4.641271278E-1,8.063789856E-1,6.640430955E0
1.360772204E1,6.826390970E0,-2.867385386E-1,1.433181208E0,6.981106004E0
1.361770704E1,6.847663726E0,-9.785271540E-2,2.149619492E0,7.177808692E0
1.362769304E1,6.640460622E0,1.025094379E-1,2.927610830E0,7.257901255E0
1.363767804E1,6.188907055E0,1.486278896E-1,3.907664400E0,7.320826582E0
1.364766404E1,5.323091122E0,-3.596505404E-2,5.028430629E0,7.322684424E0
1.365764904E1,4.300938769E0,-2.626268139E-1,6.090384395E0,7.460551535E0
1.366763504E1,3.344022047E0,-4.781183454E-1,6.965189837E0,7.741120724E0
1.367762004E1,2.445024335E0,-5.920604056E-1,7.761637911E0,8.159148398E0
1.368760604E1,1.430862641E0,-5.955662499E-1,8.637049125E0,8.775003398E0
1.369759104E1,3.445566110E-1,-6.413563804E-1,9.739126484E0,9.766301344E0
1.370757704E1,-7.906323608E-1,-7.459510817E-1,1.095316808E1,1.100697204E1
1.371756204E1,-2.034393822E0,-8.775305369E-1,1.208298814E1,1.228443814E1
1.372754804E1,-3.269348425E0,-1.041707050E0,1.298308045E1,1.342885590E1
1.373753304E1,-4.412892483E0,-1.177082518E0,1.346900512E1,1.422227979E1
1.374751904E1,-5.618444510E0,-1.221076895E0,1.335815595E1,1.454298036E1
1.375750404E1,-6.827699577E0,-1.195562716E0,1.291374183E1,1.465645181E1
1.376749004E1,-7.943975145E0,-1.224933719E0,1.236336681E1,1.474652646E1
1.377747504E1,-8.738777813E0,-1.424241400E0,1.178439423E1,1.473996772E1
1.378746104E1,-9.344289739E0,-1.753122430E0,1.115801476E1,1.465914330E1
1.379744604E1,-9.758385458E0,-2.030156052E0,1.059072491E1,1.454342032E1
1.380743204E1,-9.946892674E0,-2.189906369E0,9.980843947E0,1.426021072E1
1.381741704E1,-9.960476925E0,-2.406862189E0,9.279373950E0,1.382428541E1
1.382740304E1,-9.897170291E0,-2.858139476E0,8.443390512E0,1.331967659E1
1.383738804E1,-9.986286535E0,-3.667161988E0,7.402382643E0,1.296029570E1
1.384737404E1,-1.025382238E1,-4.581388481E0,6.110283054E0,1.278536479E1
1.385735904E1,-1.055202804E1,-5.532842442E0,4.658862627E0,1.279307008E1
1.386734504E1,-1.084249783E1,-6.466881348E0,3.154671078E0,1.301277308E1
1.387733004E1,-1.108667405E1,-7.261898024E0,1.698146031E0,1.336163180E1
1.388731604E1,-1.121900940E1,-7.980512642E0,3.148596990E-1,1.377148832E1
1.389730104E1,-1.126099475E1,-8.666810868E0,-9.735976589E-1,1.424329687E1
1.390728704E1,-1.120047607E1,-9.337030420E0,-2.206514069E0,1.474786444E1
1.391727204E1,-1.088402242E1,-9.933860400E0,-3.414652904E0,1.512624808E1
1.392725804E1,-1.025082042E1,-1.038289850E1,-4.538576045E0,1.528013655E1
1.393724304E1,-9.326873222E0,-1.068111117E1,-5.494815075E0,1.520755380E1
1.394722904E1,-8.274923458E0,-1.069369204E1,-6.306795108E0,1.491995550E1
1.395721404E1,-7.164999136E0,-1.046464491E1,-6.920282051E0,1.444770948E1
1.396720004E1,-6.065760015E0,-1.015625808E1,-7.384220606E0,1.394524065E1
1.397718504E1,-4.949506667E0,-9.714433692E0,-7.620307201E0,1.330176379E1
1.398717104E1,-3.821080292E0,-9.133649057E0,-7.667526391E0,1.252258602E1
1.399715604E1,-2.794348692E0,-8.439207999E0,-7.690076178E0,1.175439866E1
1.400714204E1,-1.877281476E0,-7.693293316E0,-7.524280717E0,1.092363255E1
1.401712704E1,-1.100208150E0,-6.965064706E0,-7.260882363E0,1.012141280E1
1.402711304E1,-3.768958066E-1,-6.429146926E0,-6.905838259E0,9.442805870E0
1.403709804E1,1.436933512E-1,-6.104508344E0,-6.523425093E0,8.935364841E0
1.404708404E1,4.946025234E-1,-5.929536847E0,-6.172772833E0,8.573631863E0
1.405706904E1,5.548900212E-1,-5.892355573E0,-5.920283629E0,8.371231413E0
1.406705504E1,3.578333719E-1,-6.020643484E0,-5.843683349E0,8.397906154E0
1.407704004E1,8.882673405E-2,-6.228211454E0,-5.939005244E0,8.606409901E0
1.408702604E1,-6.247976504E-2,-6.420136952E0,-6.172882175E0,8.906544591E0
1.409701104E1,8.281170331E-2,-6.498301361E0,-6.432251213E0,9.143775699E0
1.410699704E1,5.423693052E-1,-6.381966913E0,-6.614750415E0,9.207528941E0
1.411698204E1,1.208892175E0,-6.047936532E0,-6.752795575E0,9.145447210E0
1.412696804E1,1.889872285E0,-5.618545082E0,-6.913489925E0,9.106920942E0
1.413695304E1,2.589428050E0,-5.193942500E0,-7.067307365E0,9.144889814E0
1.414693904E1,3.270555291E0,-4.867028182E0,-7.225892040E0,9.305805231E0
1.415692404E1,3.818769473E0,-4.658581960E0,-7.386122121E0,9.531011811E0
1.416691004E1,4.168840519E0,-4.543630378E0,-7.484804410E0,9.697737125E0
1.417689504E1,4.330362835E0,-4.385601189E0,-7.441930286E0,9.662704924E0
1.418688104E1,4.394462352E0,-4.212114301E0,-7.223547306E0,9.446313669E0
1.419686604E1,4.452796514E0,-4.160901462E0,-6.824637975E0,9.149654708E0
1.420685204E1,4.447817903E0,-4.306540694E0,-6.245853088E0,8.794319623E0
1.421683704E1,4.477943050E0,-4.546968261E0,-5.591590587E0,8.484855899E0
1.422682304E1,4.719200045E0,-4.702831057E0,-5.039042156E0,8.353407381E0
1.423680804E1,4.869202176E0,-4.697505121E0,-4.479202833E0,8.114119928E0
1.424679404E1,5.005557491E0,-4.541055264E0,-3.980768044E0,7.843679171E0
1.425677904E1,5.134967483E0,-4.319939296E0,-3.391341809E0,7.518707724E0
1.426676504E1,5.097702593E0,-4.119850793E0,-2.700023748E0,7.088714307E0
1.427675004E1,5.153270438E0,-3.963609097E0,-1.984725087E0,6.797464744E0
1.428673604E1,5.421515549E0,-3.707214831E0,-1.479492325E0,6.732397061E0
1.429672104E1,5.735145578E0,-3.469314430E0,-1.098253280E0,6.792215963E0
1.430670704E1,6.026407084E0,-3.368276590E0,-6.889288884E-1,6.938118805E0
1.431669204E1,6.249653778E0,-3.056973752E0,-2.002314681E-1,6.960125969E0
1.432667804E1,6.299714130E0,-2.714111153E0,5.295355439E-1,6.879913180E0
1.433666304E1,6.551374199E0,-2.360712455E0,1.632154355E0,7.152439795E0
1.434664904E1,7.005332142E0,-1.913979625E0,2.915509433E0,7.825483478E0
1.435663404E1,7.506093537E0,-1.460407890E0,4.082025447E0,8.668169538E0
1.436662004E1,7.951764806E0,-9.517923684E-1,5.050511470E0,9.468058848E0
1.437660504E1,7.951210490E0,-2.098592741E-1,5.734635701E0,9.805704248E0
1.438659104E1,7.355188596E0,5.527966083E-1,6.047741820E0,9.538320842E0
1.439657604E1,6.447985486E0,1.165057865E0,6.291028091E0,9.083551679E0
1.440656204E1,5.437236373E0,1.504806822E0,6.766169327E0,8.809598760E0
1.441654704E1,4.384139385E0,1.622150939E0,7.695193076E0,9.003779667E0
1.442653304E1,3.231097110E0,1.750316497E0,9.041199315E0,9.759450877E0
1.443651804E1,1.938819766E0,1.877898796E0,1.050120170E1,1.084254413E1
1.444650404E1,4.043688031E-1,2.010780280E0,1.156522655E1,1.174568928E1
1.445648929E1,-1.299856797E0,1.986784330E0,1.200801748E1,1.224048298E1
1.446647529E1,-2.958902205E0,1.375873378E0,1.192791764E1,1.236621806E1
1.447646029E1,-4.447452452E0,4.823568093E-1,1.144909734E1,1.229204341E1
1.448644629E1,-5.592928430E0,-3.178789454E-1,1.093301624E1,1.228465464E1
1.449643129E1,-6.194965355E0,-8.417408994E-1,1.044668694E1,1.217453866E1
1.450641729E1,-6.524352461E0,-1.083606151E0,9.627901917E0,1.168066234E1
1.451640229E1,-6.822418957E0,-8.049449560E-1,8.460135768E0,1.089803808E1
1.452638829E1,-7.074487746E0,-2.272151258E-1,7.172644955E0,1.007704516E1
1.453637329E1,-7.351638166E0,1.594553250E-1,5.865571817E0,9.406218287E0
1.454635929E1,-7.516208636E0,4.171647037E-1,4.624714887E0,8.834897081E0
1.455634429E1,-7.406779164E0,5.545710190E-1,3.627295087E0,8.265905652E0
1.456633029E1,-6.647744499E0,4.872766931E-1,2.864204793E0,7.254902797E0
1.457631529E1,-5.303708771E0,3.879550475E-1,2.230499933E0,5.766711871E0
1.458630129E1,-4.021909346E0,3.474359261E-1,1.690538219E0,4.376572400E0
1.459628629E1,-3.018014631E0,4.224426198E-1,1.028840398E0,3.216423891E0
1.460627229E1,-2.252604747E0,5.915289668E-1,2.372648084E-1,2.341031664E0
1.461625729E1,-1.597240484E0,7.626369886E-1,-5.670670670E-1,1.858590164E0
1.462624329E1,-8.927795637E-1,8.525817834E-1,-1.224282412E0,1.738625454E0
1.463622829E1,-1.041330636E-1,8.136307025E-1,-1.749427282E0,1.932183850E0
1.464621429E1,5.802048104E-1,6.612760900E-1,-2.293616533E0,2.456542385E0
1.465619929E1,1.145513327E0,5.546348267E-1,-2.910183204E0,3.176316554E0
1.466618529E1,1.757658261E0,5.017197543E-1,-3.510023330E0,3.957442236E0
1.467617029E1,2.375511758E0,5.018335558E-1,-3.932682881E0,4.621784036E0
1.468615629E1,2.967392069E0,4.833795604E-1,-4.115608930E0,5.096793929E0
1.469614129E1,3.502616662E0,4.464281908E-1,-4.024472473E0,5.353877127E0
1.470612729E1,4.085070677E0,2.908453305E-1,-3.776714836E0,5.570993483E0
1.471611229E1,4.687337105E0,7.200370990E-2,-3.313012508E0,5.740415103E0
1.472609829E1,5.239981138E0,1.935165256E-2,-2.458995087E0,5.788301447E0
1.473608329E1,5.728165172E0,1.664181894E-1,-1.357807674E0,5.889245532E0
1.474606929E1,6.223903225E0,1.871092929E-1,-2.939880627E-1,6.233651436E0
1.475605429E1,6.444304664E0,7.235198468E-3,6.044641042E-1,6.472595445E0
1.476604029E1,6.331299620E0,-2.633765001E-1,1.364931337E0,6.482110737E0
1.477602529E1,6.153607414E0,-5.699843891E-1,1.884232500E0,6.460812528E0
1.478601129E1,6.108166362E0,-7.523651849E-1,2.349852129E0,6.587682044E0
1.479599629E1,6.296711000E0,-6.545896527E-1,2.914787301E0,6.969436279E0
1.480598229E1,6.456966809E0,-9.627762169E-2,3.934943415E0,7.562107473E0
1.481596729E1,6.547753603E0,4.920521142E-1,5.186329426E0,8.367389404E0
1.482595329E1,6.398177733E0,7.229895043E-1,6.527676018E0,9.168966481E0
1.483593829E1,5.778815508E0,6.807895643E-1,8.203582749E0,1.005768130E1
1.484592429E1,4.832361794E0,2.423691353E-1,9.839467628E0,1.096474288E1
1.485590929E1,3.427744235E0,-5.641322033E-1,1.117714334E1,1.170453796E1
1.486589529E1,1.705348339E0,-1.633531374E0,1.180115702E1,1.203511300E1
1.487588029E1,-4.442250330E-2,-2.450617197E0,1.185817322E1,1.210883026E1
1.488586629E1,-1.743521009E0,-2.728181015E0,1.132276123E1,1.177657671E1
1.489585129E1,-3.199267792E0,-2.609857636E0,1.020539574E1,1.100894062E1
1.490583729E1,-4.107938845E0,-2.104079914E0,8.934240292E0,1.005599142E1
1.491582229E1,-5.115366447E0,-1.277840715E0,7.802328100E0,9.416802778E0
1.492580829E1,-5.961878967E0,-4.577557824E-1,7.098798130E0,9.281512595E0
1.493579329E1,-6.209814359E0,1.568206062E-1,6.915684385E0,9.295863467E0
1.494577929E1,-6.298944052E0,4.107718697E-1,7.047564826E0,9.461162702E0
1.495576429E1,-6.587498297E0,4.656983112E-1,7.397423619E0,9.916344333E0
1.496575029E1,-7.223735586E0,2.749153224E-1,7.779108807E0,1.061943822E1
1.497573529E1,-8.132793433E0,-3.688000441E-1,7.894367368E0,1.134016661E1
1.498572129E1,-9.074258303E0,-1.235634196E0,7.869636569E0,1.207477268E1
1.499570629E1,-9.955699750E0,-2.155025243E0,7.650323297E0,1.273921261E1
1.500569229E1,-1.071252007E1,-3.177647712E0,7.069832193E0,1.322263433E1
1.501567729E1,-1.124574989E1,-3.916979307E0,6.291300572E0,1.346811347E1
1.502566329E1,-1.159801774E1,-4.329926925E0,5.340036353E0,1.348251723E1
1.503564829E1,-1.152980763E1,-4.631359955E0,4.225064129E0,1.312391427E1
1.504563429E1,-1.112737652E1,-4.879283361E0,3.163170006E0,1.255514073E1
1.505561929E1,-1.085195278E1,-5.163142292E0,2.212831401E0,1.221963748E1
1.506560529E1,-1.082969360E1,-5.573520352E0,1.343000185E0,1.225357262E1
1.507559029E1,-1.088700450E1,-6.064896381E0,5.401950181E-1,1.247403887E1
1.508557629E1,-1.072021852E1,-6.608819000E0,-2.906101263E-1,1.259698487E1
1.509556129E1,-1.034538276E1,-7.199511157E0,-1.096723064E0,1.265158910E1
1.510554729E1,-9.853892709E0,-7.604108659E0,-1.811867943E0,1.257793844E1
1.511553229E1,-9.258763685E0,-7.749816595E0,-2.408488008E0,1.231199321E1
1.512551829E1,-8.687867276E0,-7.835205240E0,-2.960542933E0,1.206790344E1
1.513550329E1,-8.092740591E0,-7.836606817E0,-3.473899816E0,1.178867408E1
1.514548929E1,-7.500437526E0,-7.856260478E0,-4.056605846E0,1.159454366E1
1.515547429E1,-7.053448294E0,-7.951583542E0,-4.614264159E0,1.158750393E1
1.516546029E1,-6.784386912E0,-8.048333327E0,-5.110734867E0,1.170141812E1
1.517544529E1,-6.476929203E0,-8.254491532E0,-5.506154580E0,1.184926076E1
1.518543129E1,-6.053437008E0,-8.406758291E0,-5.753744987E0,1.185003232E1
1.519541629E1,-5.580819431E0,-8.501798934E0,-5.891944513E0,1.175334594E1
1.520540229E1,-5.062913999E0,-8.598583801E0,-5.999564272E0,1.164317452E1
1.521538729E1,-4.517149216E0,-8.637803416E0,-6.056193970E0,1.147579062E1
1.522537329E1,-4.078101673E0,-8.698978155E0,-6.113784952E0,1.138777856E1
1.523535829E1,-3.584587024E0,-8.788771507E0,-6.106026281E0,1.128606777E1
1.524534429E1,-3.002291468E0,-8.892404634E0,-6.142324626E0,1.121680730E1
1.525532929E1,-2.558192808E0,-8.884265310E0,-6.156219950E0,1.110736533E1
1.526531529E1,-2.171009630E0,-8.715774867E0,-6.158220867E0,1.089044070E1
1.527530029E1,-1.681256933E0,-8.486612545E0,-6.150335897E0,1.061488808E1
1.528528629E1,-1.020195582E0,-8.190657479E0,-6.176532007E0,1.030908418E1
1.529527129E1,-4.562708820E-1,-7.942377101E0,-6.218943032E0,1.009776161E1
1.530525729E1,-1.257720372E-1,-7.715788724E0,-6.259521539E0,9.936338568E0
1.531524229E1,2.911511399E-3,-7.470407980E0,-6.254477146E0,9.742971222E0
1.532522829E1,8.400482766E-2,-7.373949972E0,-6.191633027E0,9.629045359E0
1.533521329E1,2.935766380E-1,-7.444613573E0,-6.090656875E0,9.623126293E0
1.534519929E1,6.863743861E-1,-7.537811174E0,-5.901638612E0,9.597866711E0
1.535518429E1,1.189715135E0,-7.546793666E0,-5.608883142E0,9.477820786E0
1.536517029E1,1.829560156E0,-7.302225101E0,-5.165258399E0,9.129604379E0
1.537515529E1,2.461583065E0,-6.857419805E0,-4.618995141E0,8.626628175E0
1.538514129E1,3.182487744E0,-6.418040725E0,-3.931417544E0,8.171628901E0
1.539512629E1,3.848773875E0,-6.125767066E0,-3.279224957E0,7.943009430E0
1.540511229E1,4.446854281E0,-5.864473125E0,-2.867583314E0,7.898708255E0
1.541509729E1,4.955916384E0,-5.683204177E0,-2.958630309E0,8.100210506E0
1.542508329E1,5.214197255E0,-5.580062801E0,-3.423845311E0,8.369448644E0
1.543506829E1,5.350972985E0,-5.357900766E0,-3.984915474E0,8.556843100E0
1.544505429E1,5.491112033E0,-5.208601470E0,-4.543070800E0,8.827306097E0
1.545503929E1,5.677637628E0,-4.856586224E0,-4.771309261E0,8.864952952E0
1.546502583E1,6.040762584E0,-4.259351325E0,-4.516571218E0,8.662118786E0
1.547501083E1,6.595648731E0,-3.680700046E0,-3.821292838E0,8.464774892E0
1.548499683E1,7.190602924E0,-3.240413479E0,-2.775924116E0,8.361268122E0
1.549498183E1,7.467979631E0,-2.927234854E0,-1.683992261E0,8.196051098E0
1.550496783E1,7.564711289E0,-2.552391201E0,-5.162389755E-1,8.000378767E0
1.551495283E1,7.356201918E0,-2.267365458E0,6.222618592E-1,7.722814422E0
1.552493883E1,6.930248630E0,-2.173599215E0,1.493149082E0,7.415010034E0
1.553492383E1,6.573127595E0,-2.218725687E0,2.143117973E0,7.260971333E0
1.554490983E1,6.321671594E0,-2.265459704E0,2.452629808E0,7.149212012E0
1.555489483E1,6.005796819E0,-2.333992434E0,2.456320571E0,6.895696256E0
1.556488083E1,5.520858573E0,-2.218521327E0,2.366384547E0,6.403240749E0
1.557486583E1,4.988284816E0,-1.802117419E0,2.424947335E0,5.831893533E0
1.558485183E1,4.695224999E0,-1.299156447E0,2.800126911E0,5.619044045E0
1.559483683E1,4.416853680E0,-8.391149879E-1,3.466911224E0,5.677339503E0
1.560482283E1,4.058231957E0,-4.781078935E-1,4.379639953E0,5.989914848E0
1.561480783E1,3.806562533E0,-2.790774801E-1,5.538024244E0,6.725883963E0
1.562479383E1,3.352940513E0,5.568102468E-2,6.826482772E0,7.605667458E0
1.563477883E1,2.846134558E0,6.905528064E-1,7.877274202E0,8.404093881E0
1.564476483E1,2.367108432E0,1.299424834E0,8.538980209E0,8.955774128E0
1.565474983E1,2.007818957E0,1.717454999E0,8.848707222E0,9.234750031E0
1.566473583E1,1.789898054E0,1.815021932E0,8.850844379E0,9.210618105E0
1.567472083E1,1.249383924E0,1.581290303E0,8.666772276E0,8.897998702E0
1.568470683E1,9.278158972E-2,1.392786157E0,8.632435087E0,8.744563868E0
1.569469183E1,-1.723420767E0,1.353755846E0,8.782464116E0,9.051768334E0
1.570467783E1,-3.730548437E0,1.255358609E0,9.018654791E0,9.840175360E0
1.571466283E1,-5.347716086E0,1.005300824E0,9.312358679E0,1.078557932E1
1.572464883E1,-6.504073148E0,7.257918555E-1,9.457687131E0,1.150119938E1
1.573463383E1,-6.810694120E0,2.326485047E-1,9.306589816E0,1.153482959E1
1.574461983E1,-6.658745450E0,-8.464202799E-2,9.117472150E0,1.129045409E1
1.575460483E1,-6.634570722E0,1.350417379E-1,8.871772733E0,1.107899438E1
1.576459083E1,-6.517167403E0,5.421684168E-1,8.363474277E0,1.061673771E1
1.577457583E1,-6.322705382E0,7.719416629E-1,7.610871549E0,9.924608960E0
1.578456183E1,-6.476084281E0,7.917567804E-1,6.448969572E0,9.173644584E0
1.579454683E1,-6.687869847E0,7.428510341E-1,4.884000310E0,8.314619040E0
1.580453283E1,-6.769098782E0,5.419219932E-1,2.974683255E0,7.413711502E0
1.581451783E1,-6.638581327E0,3.793605541E-1,1.007496307E0,6.725304846E0
1.582450383E1,-6.009122130E0,5.005846271E-1,-2.053249776E-1,6.033431204E0
1.583448883E1,-5.293002520E0,7.972196147E-1,-6.751089942E-1,5.395109539E0
1.584447483E1,-4.471139815E0,1.117113839E0,-5.284415299E-1,4.638780553E0
1.585445983E1,-3.559210108E0,1.284058351E0,7.236514091E-3,3.783759349E0
1.586444583E1,-2.672050669E0,1.199889144E0,3.857180125E-1,2.954381004E0
1.587443083E1,-2.043901248E0,8.609581391E-1,3.752953506E-1,2.249361649E0
1.588441683E1,-1.620883262E0,4.675305728E-1,3.760285914E-2,1.687382992E0
1.589440283E1,-1.423399108E0,1.013323021E-1,-6.019831306E-1,1.548779179E0
1.590438783E1,-1.263748194E0,-1.696141861E-1,-1.442706322E0,1.925416838E0
1.591437383E1,-9.329827528E-1,-2.199401297E-1,-2.345892980E0,2.534175280E0
1.592435883E1,-3.325583803E-1,-1.066576446E-1,-3.192253472E0,3.211300851E0
1.593434483E1,4.109834658E-1,9.267806659E-2,-3.859306757E0,3.882234573E0
1.594432983E1,1.140987948E0,2.544387386E-1,-4.241548015E0,4.399695686E0
1.595431583E1,1.877472826E0,2.577612910E-1,-4.306412932E0,4.704948187E0
1.596430083E1,2.692678184E0,2.978736472E-1,-3.928475810E0,4.772019143E0
1.597428683E1,3.435824502E0,3.800894461E-1,-3.320079453E0,4.792941223E0
1.598427183E1,4.126637363E0,3.515046380E-1,-2.829962329E0,5.016111863E0
1.599425783E1,4.869284622E0,3.862443350E-1,-2.400212443E0,5.442438533E0
1.600424283E1,5.490975208E0,4.850521565E-1,-1.884840025E0,5.825693629E0
1.601422883E1,5.958094649E0,3.176091329E-1,-1.564619014E0,6.168289882E0
1.602421383E1,6.417012200E0,6.977635927E-2,-1.406344827E0,6.569681886E0
1.603419983E1,6.815933810E0,-1.075748809E-2,-1.132829036E0,6.909440719E0
1.604418483E1,7.133120701E0,2.045439358E-1,-6.893791240E-1,7.169274212E0
1.605417083E1,7.694326519E0,6.822170158E-1,-1.579888433E-1,7.726127174E0
1.606415583E1,8.433966554E0,1.271865883E0,6.787412846E-1,8.556291510E0
1.607414183E1,8.941501949E0,1.708759897E0,1.737749807E0,9.267690753E0
1.608412683E1,9.074200416E0,1.762507649E0,2.888142124E0,9.684467529E0
1.609411283E1,8.718106152E0,1.324447993E0,4.094405172E0,9.722329509E0
1.610409783E1,7.975277629E0,5.483707412E-1,5.167200260E0,9.518703812E0
1.611408383E1,6.902131124E0,-4.096322474E-1,6.110590033E0,9.227487371E0
1.612406883E1,5.186248734E0,-1.120152857E0,7.196949492E0,8.941364568E0
1.613405483E1,3.242673135E0,-1.587105213E0,8.325793650E0,9.074837294E0
1.614403983E1,1.791084308E0,-1.746000082E0,9.079112661E0,9.417366193E0
1.615402583E1,7.465752719E-1,-1.809203075E0,9.457334543E0,9.657730948E0
1.616401083E1,-1.910465156E-1,-1.767260705E0,9.621433727E0,9.784257567E0
1.617399683E1,-1.370280078E0,-1.626155697E0,9.865660815E0,1.009224024E1
1.618398183E1,-3.016002604E0,-1.490303535E0,1.031460068E1,1.084934392E1
1.619396783E1,-4.843239662E0,-1.550569617E0,1.088853998E1,1.201755131E1
1.620395283E1,-6.773572487E0,-1.926988948E0,1.138891896E1,1.339037138E1
1.621393883E1,-8.344543331E0,-2.261749646E0,1.179497301E1,1.462423684E1
1.622392383E1,-9.474753399E0,-2.344731722E0,1.208778052E1,1.553651044E1
1.623390983E1,-1.014165056E1,-2.371993342E0,1.209432823E1,1.596095874E1
1.624389483E1,-1.036906749E1,-2.511019227E0,1.180801464E1,1.591389292E1
1.625388083E1,-1.056504979E1,-2.669535489E0,1.123704222E1,1.565304490E1
1.626386583E1,-1.081697006E1,-2.852677300E0,1.049272558E1,1.533759756E1
1.627385183E1,-1.095905389E1,-3.078941741E0,9.741919699E0,1.498284832E1
1.628383683E1,-1.100618479E1,-3.408829077E0,9.048433490E0,1.465026853E1
1.629382283E1,-1.095870306E1,-3.952421035E0,8.168757318E0,1.422826064E1
1.630380783E1,-1.088665483E1,-4.655409846E0,7.059553957E0,1.378511503E1
1.631379383E1,-1.085741408E1,-5.313466605E0,5.891888965E0,1.344733146E1
1.632377883E1,-1.089747335E1,-5.876755201E0,4.764403115E0,1.326614919E1
1.633376483E1,-1.099502596E1,-6.494224098E0,3.597597663E0,1.326681015E1
1.634374983E1,-1.102222487E1,-7.227200646E0,2.318825634E0,1.338278082E1
1.635373583E1,-1.095290613E1,-7.950959644E0,1.057900475E0,1.357582651E1
1.636372083E1,-1.081284075E1,-8.489759517E0,-6.530345857E-2,1.374764730E1
1.637370683E1,-1.050763598E1,-8.871130124E0,-1.018279742E0,1.378928052E1
1.638369183E1,-1.002015478E1,-9.197841545E0,-1.771550807E0,1.371649311E1
1.639367783E1,-9.419849798E0,-9.406409973E0,-2.465138757E0,1.353850169E1
1.640366283E1,-8.856540152E0,-9.604786119E0,-3.153555429E0,1.344005698E1
1.641364883E1,-8.249199802E0,-9.797623783E0,-3.857858986E0,1.337631508E1
1.642363383E1,-7.629312497E0,-9.918683367E0,-4.455097686E0,1.328286808E1
1.643361983E1,-7.014477187E0,-1.005669637E1,-5.004827174E0,1.324342581E1
1.644360483E1,-6.401448081E0,-1.014867190E1,-5.523503854E0,1.320920791E1
1.645359083E1,-5.770853355E0,-1.010481661E1,-5.996074653E0,1.309056830E1
1.646357492E1,-5.133734890E0,-1.004354715E1,-6.489283201E0,1.301302692E1
1.647356092E1,-4.389187871E0,-1.000017484E1,-6.939048690E0,1.293904416E1
1.648354592E1,-3.571777821E0,-9.784165247E0,-7.180525832E0,1.265098564E1
1.649353192E1,-3.007991042E0,-9.084051805E0,-7.188094468E0,1.196815397E1
1.650351692E1,-2.464134205E0,-8.269524139E0,-7.008191430E0,1.111628238E1
1.651350292E1,-2.370832085E0,-8.402928949E0,-7.215506215E0,1.132667602E1
1.652348792E1,-2.216278042E0,-8.352900757E0,-7.246835012E0,1.127827368E1
1.653347392E1,-1.901684830E0,-8.275300604E0,-7.373471085E0,1.124566944E1
