"Time (s)","Linear Acceleration x (m/s^2)","Linear Acceleration y (m/s^2)","Linear Acceleration z (m/s^2)","Absolute acceleration (m/s^2)"
1.629083301E-3,1.917058622E-1,2.449082887E-1,-1.172074378E-2,3.112371818E-1
1.161408331E-2,2.259300540E-1,3.725896977E-1,-3.973943174E-2,4.375462199E-1
2.160008333E-2,3.413537986E-1,4.726507603E-1,-2.511016595E-1,6.348017016E-1
3.158508328E-2,4.060802101E-1,5.376108411E-1,-3.195175910E-1,7.456661749E-1
4.157108330E-2,5.088904142E-1,4.891884403E-1,-4.031789678E-1,8.129133188E-1
5.155708332E-2,6.490888846E-1,2.233250463E-1,-7.834467906E-1,1.041623411E0
6.154208333E-2,1.274792415E0,-6.976853862E-1,-1.227532294E0,1.902287080E0
7.152808330E-2,-1.250460981E0,-6.392272630E-1,-1.407699627E-1,1.411410763E0
8.151308331E-2,-2.589388289E0,-2.331416443E-1,2.403475775E0,3.540618948E0
9.149908333E-2,-1.193060985E0,-6.139177363E-1,2.324881595E0,2.684280896E0
1.014840833E-1,-1.910617183E-1,-5.519863670E-1,5.799712873E-1,8.231404640E-1
1.114700833E-1,-2.149410527E-1,5.976629153E-2,-1.400109941E-1,2.633908582E-1
1.214550833E-1,-1.888461352E-1,4.251862796E-1,1.572842538E-1,4.911054588E-1
1.314410833E-1,3.417692981E-2,2.704995051E-1,1.377609855E-1,3.054768959E-1
1.414270833E-1,7.455402782E-2,9.033056483E-2,-1.703761697E-1,2.067509449E-1
1.514120833E-1,-7.497322750E-2,1.360417579E-1,-4.451572984E-1,4.714799732E-1
1.613980833E-1,-2.555732446E-1,2.455533828E-1,-5.920855486E-1,6.900575658E-1
1.713830833E-1,-1.182811419E-1,3.308071026E-1,-4.772544193E-1,5.926175398E-1
1.813690833E-1,1.485049884E-1,3.474417002E-1,-6.218005139E-1,7.276024641E-1
1.913540833E-1,-4.642040553E-2,2.489668411E-1,-8.150585926E-1,8.534985948E-1
2.013400833E-1,-1.109177615E-1,9.519047812E-2,8.518106818E-2,1.691738494E-1
2.113260833E-1,-2.557918391E-1,-3.905849424E-1,2.395001990E-1,5.247346067E-1
2.213110833E-1,-3.302481088E-1,-4.169367354E-1,1.952034473E-1,5.665725377E-1
2.312970833E-1,2.894560640E-2,3.084143132E-2,2.770416623E-1,2.802518951E-1
2.412829166E-1,4.796920139E-1,1.980064563E-1,3.818085641E-1,6.442738273E-1
2.512689166E-1,5.688892056E-1,2.397368650E-1,3.766004491E-1,7.231435480E-1
2.612539167E-1,3.815933865E-1,2.839061473E-1,2.991143167E-1,5.618590460E-1
2.712399166E-1,2.198251040E-1,1.439819844E-1,-4.505864382E-2,2.666161465E-1
2.812249166E-1,1.038349469E-1,-7.192075253E-2,-5.287134254E-1,5.435919214E-1
2.912109167E-1,8.645235336E-2,-1.977732986E-1,-8.199416023E-1,8.478752964E-1
3.011969167E-1,3.498301417E-2,-1.247417213E-1,-6.665077400E-1,6.789822353E-1
3.111819166E-1,-1.091323416E-1,-1.649587244E-2,-3.135762352E-1,3.324335077E-1
3.211679166E-1,-1.066088295E-1,-2.711017683E-2,-4.023176730E-2,1.171281320E-1
3.311529167E-1,-1.732326807E-1,-1.197940998E-1,-6.630216300E-2,2.208079818E-1
3.411389167E-1,-1.122492182E-1,-2.002006240E-1,-1.405764198E-1,2.691503421E-1
3.511239166E-1,9.894894043E-2,-2.219850107E-1,-6.122736454E-2,2.506332539E-1
3.611099166E-1,3.222176159E-1,-8.722715512E-2,8.673818171E-2,3.449003925E-1
3.710949167E-1,3.908661569E-1,2.739435151E-2,7.147694886E-2,3.982910460E-1
3.810809166E-1,2.042124352E-1,-2.135039167E-1,5.454458177E-2,3.004359375E-1
3.910669166E-1,-8.153561245E-2,-4.743275955E-1,2.018955857E-1,5.219162303E-1
4.010519166E-1,-2.243524204E-1,-5.638171846E-1,1.675946492E-1,6.295329956E-1
4.110379167E-1,-1.652703992E-1,-7.455942553E-1,-3.299390835E-1,8.319164004E-1
4.210229166E-1,-4.921924839E-2,-3.991594456E-1,-8.517340833E-1,9.419138740E-1
4.310089166E-1,5.019891648E-1,1.432297401E-1,-1.256397659E0,1.360530396E0
4.409939167E-1,7.487396188E-1,4.557568386E-1,-1.281439530E0,1.552550347E0
4.509799167E-1,9.654875708E-1,5.940028507E-1,-9.270818889E-1,1.464406523E0
4.609649166E-1,1.318176416E0,3.741414025E-1,-5.110472327E-1,1.462443205E0
4.709509166E-1,1.512190832E0,4.240580593E-1,-1.615831268E-1,1.578814574E0
4.809369167E-1,1.920572653E0,2.678070085E-1,-2.978478098E-1,1.961895315E0
4.909219167E-1,2.050040094E0,2.599210880E-1,-6.197604203E-1,2.157388777E0
5.009079166E-1,2.081921598E0,2.268840272E-1,-8.509335995E-1,2.260522483E0
5.108929166E-1,1.972797644E0,1.907130050E-1,-1.068513756E0,2.251671300E0
5.208789167E-1,2.208180526E0,7.175754212E-2,-1.269777843E0,2.548243738E0
5.308639166E-1,2.804948232E0,-1.351030605E-1,-1.524144588E0,3.195153228E0
5.408499166E-1,3.633825257E0,1.577052534E-1,-1.205368423E0,3.831771129E0
5.508349166E-1,4.996462732E0,8.690550710E-1,-3.650013274E-1,5.084596593E0
5.608209167E-1,6.311027323E0,1.534113944E0,1.799474770E-1,6.497303484E0
5.708069166E-1,7.172753128E0,1.869112185E0,1.559861720E-1,7.413926051E0
5.807919166E-1,7.319474387E0,1.716611246E0,1.069865048E-1,7.518836718E0
5.907779167E-1,6.923094562E0,1.394180572E0,3.882054180E-1,7.072742129E0
6.007629167E-1,6.496844820E0,1.110711065E0,8.821185547E-1,6.649872542E0
6.107489166E-1,6.184799970E0,1.197680066E0,1.916229048E0,6.584688450E0
6.207339166E-1,6.429933962E0,1.534963252E0,3.337744476E0,7.405450771E0
6.307199167E-1,6.991482427E0,2.101513718E0,4.461368825E0,8.555758191E0
6.407049167E-1,7.323504288E0,2.249904210E0,4.988873046E0,9.142463469E0
6.506909166E-1,7.034662945E0,2.138124450E0,5.982238972E0,9.478673010E0
6.606769167E-1,6.770319096E0,1.807540565E0,7.789135028E0,1.047735883E1
6.706619167E-1,6.437155273E0,1.648815704E0,9.077738566E0,1.124992883E1
6.806479166E-1,5.788105565E0,1.482585210E0,9.735640959E0,1.142291249E1
6.906329166E-1,4.902062359E0,8.680305657E-1,9.829104023E0,1.101793893E1
7.006189167E-1,3.779632012E0,2.837326129E-1,9.762338760E0,1.047231495E1
7.106039167E-1,2.592550755E0,-1.065727047E-1,1.013451696E1,1.046141057E1
7.205899166E-1,1.423669104E0,-2.844290346E-1,1.097619208E1,1.107178965E1
7.305759166E-1,3.808330292E-1,-6.465689539E-1,1.154209029E1,1.156645725E1
7.405609167E-1,-1.151413606E0,-1.076160818E0,1.160868306E1,1.171517809E1
7.505469166E-1,-2.716948514E0,-1.758824634E0,1.165056432E1,1.209177085E1
7.605319166E-1,-4.098424840E0,-2.247390492E0,1.140685354E1,1.232737433E1
7.705179167E-1,-5.005836403E0,-2.306598813E0,1.103236160E1,1.233255037E1
7.805029167E-1,-5.441409531E0,-2.185105659E0,1.074747473E1,1.224303220E1
7.904889166E-1,-5.802597889E0,-2.170927330E0,1.064587936E1,1.231737858E1
8.004739166E-1,-6.173204357E0,-2.560234948E0,1.045133431E1,1.240538769E1
8.104599167E-1,-6.812825430E0,-3.176031249E0,9.836025957E0,1.237938494E1
8.204459167E-1,-7.932770126E0,-4.056787987E0,9.005132520E0,1.266802204E1
8.304309166E-1,-8.915440909E0,-4.971082892E0,8.239609784E0,1.311822858E1
8.404169166E-1,-9.768135105E0,-5.743478445E0,7.253306125E0,1.345416136E1
8.504019167E-1,-1.067822732E1,-6.611688813E0,5.970320007E0,1.390624639E1
8.603879166E-1,-1.131789634E1,-7.545061721E0,4.749027277E0,1.440749784E1
8.703729166E-1,-1.197735585E1,-8.289699372E0,3.487310405E0,1.497790048E1
8.803589166E-1,-1.231990913E1,-8.939068923E0,1.892755986E0,1.533850187E1
8.903449167E-1,-1.249840358E1,-9.378735686E0,3.817343044E-1,1.563062686E1
9.003299166E-1,-1.240208239E1,-9.681711504E0,-6.602851331E-1,1.574748113E1
9.103159166E-1,-1.188352675E1,-9.842627463E0,-1.767729067E0,1.553127134E1
9.203009167E-1,-1.128540921E1,-9.826632990E0,-3.235588941E0,1.530987305E1
9.302869167E-1,-1.051913394E1,-9.730528153E0,-4.246459091E0,1.494549336E1
9.402719166E-1,-9.464886222E0,-9.448138043E0,-4.913438117E0,1.424757024E1
9.502579166E-1,-8.422730545E0,-9.066481506E0,-5.495752383E0,1.354056022E1
9.602429167E-1,-7.204088942E0,-8.809015737E0,-5.811960450E0,1.277797089E1
9.702289166E-1,-6.137091953E0,-8.492860295E0,-6.131805485E0,1.214049472E1
9.802149166E-1,-5.631003744E0,-8.475114580E0,-6.547956501E0,1.210006218E1
9.901999166E-1,-5.306734121E0,-8.680350680E0,-7.021156461E0,1.236149477E1
1.000185917E0,-4.923873643E0,-8.912898540E0,-7.118630716E0,1.242413761E1
1.010170917E0,-4.499449401E0,-9.123405905E0,-7.627272404E0,1.271443528E1
1.020156917E0,-3.473013963E0,-9.117403738E0,-8.031568190E0,1.263704730E1
1.030141917E0,-2.538706085E0,-8.919290131E0,-7.750035281E0,1.208560350E1
1.040127917E0,-1.945733952E0,-8.949926618E0,-7.624587947E0,1.191727353E1
1.050112917E0,-1.587073930E0,-9.205275695E0,-7.773277963E0,1.215235593E1
1.060098917E0,-1.370985983E0,-9.427223722E0,-7.778742771E0,1.229882062E1
1.070084917E0,-9.051685712E-1,-9.519552426E0,-7.553257763E0,1.218576675E1
1.080069917E0,-1.765745106E-1,-9.386199072E0,-7.174279252E0,1.181533725E1
1.090055917E0,5.086646385E-1,-9.122728797E0,-6.782452068E0,1.137912899E1
1.100040917E0,9.312724422E-1,-8.870664686E0,-6.609411322E0,1.110136381E1
1.110026917E0,1.289533976E0,-8.774862151E0,-6.665104297E0,1.109435527E1
1.120011917E0,1.691031285E0,-8.579337691E0,-6.503299561E0,1.089759273E1
1.129997917E0,2.183316849E0,-8.404619379E0,-6.300071395E0,1.072825237E1
1.139982917E0,2.369057163E0,-8.340368419E0,-6.236815631E0,1.068045160E1
1.149968917E0,2.633981202E0,-8.179208046E0,-6.017697657E0,1.049047122E1
1.159954917E0,3.016901906E0,-7.963218917E0,-5.909582055E0,1.036521648E1
1.169939917E0,3.446210327E0,-7.809383935E0,-5.629519721E0,1.022518143E1
1.179925917E0,3.994675354E0,-7.577685091E0,-5.178912817E0,1.000998904E1
1.189910917E0,4.594909290E0,-7.173402754E0,-4.723335781E0,9.740677561E0
1.199896917E0,5.118932664E0,-6.922731450E0,-4.753919642E0,9.835010641E0
1.209881917E0,5.550475890E0,-6.912512271E0,-4.988981220E0,1.017253863E1
1.219867917E0,5.743016515E0,-6.944524607E0,-5.062725134E0,1.033633622E1
1.229852917E0,6.016085579E0,-6.946627266E0,-4.585944339E0,1.027033600E1
1.239838458E0,6.414441179E0,-6.791266161E0,-4.171952115E0,1.023091082E1
1.249824458E0,6.969647169E0,-6.496168297E0,-4.036330626E0,1.034737402E1
1.259809458E0,7.577717836E0,-6.089378089E0,-3.875218785E0,1.046516382E1
1.269795458E0,8.024625206E0,-5.531968868E0,-3.086461553E0,1.022367518E1
1.279780458E0,8.954972180E0,-4.905474794E0,-1.741135930E0,1.035793242E1
1.289766458E0,1.016542300E1,-4.363154021E0,-1.110697324E0,1.111784990E1
1.299751458E0,1.075905339E1,-4.109028766E0,-7.719026327E-1,1.154284111E1
1.309737458E0,1.057278332E1,-4.310669705E0,-3.792714572E-1,1.142407402E1
1.319723458E0,1.018583096E1,-4.652911038E0,1.457050127E-1,1.119919476E1
1.329708458E0,9.590647552E0,-4.687818331E0,6.073766023E-1,1.069229010E1
1.339694458E0,9.054974186E0,-4.158397977E0,1.302652059E0,1.004896679E1
1.349679458E0,9.028012090E0,-3.375730036E0,2.388351367E0,9.929993848E0
1.359665458E0,9.165833886E0,-2.688655007E0,3.546452653E0,1.018914633E1
1.369650458E0,9.567011937E0,-2.240754780E0,4.557941439E0,1.083159866E1
1.379636458E0,1.001293814E1,-1.958462171E0,5.317121115E0,1.150505460E1
1.389621458E0,1.000896438E1,-1.935157509E0,6.212759017E0,1.193828200E1
1.399607458E0,8.945623652E0,-1.758635184E0,7.065884153E0,1.153445703E1
1.409593458E0,7.373674568E0,-1.313859709E0,7.291331154E0,1.045278977E1
1.419578458E0,5.794266191E0,-4.830893193E-1,7.352063844E0,9.373352588E0
1.429564458E0,4.772241015E0,3.683545594E-1,8.043871901E0,9.360226736E0
1.439549458E0,3.847961989E0,7.911897466E-1,8.909971424E0,9.737575851E0
1.449535458E0,2.997098849E0,6.081034843E-1,9.427410833E0,9.911027513E0
1.459520458E0,2.211912219E0,2.905298001E-1,1.002646509E1,1.027165836E1
1.469506458E0,8.939203555E-1,3.737482138E-1,1.154147282E1,1.158207133E1
1.479491458E0,-6.653042369E-1,1.015468328E0,1.298271325E1,1.303935002E1
1.489477458E0,-2.266659699E0,1.932111256E0,1.294294282E1,1.328121113E1
1.499463458E0,-3.580017717E0,2.129501269E0,1.262395148E1,1.329343648E1
1.509448458E0,-5.011357929E0,1.711314838E0,1.278864884E1,1.384167063E1
1.519434458E0,-6.630125084E0,1.058534460E0,1.290607262E1,1.454805019E1
1.529419458E0,-8.075258585E0,3.044486585E-1,1.243398948E1,1.482924761E1
1.539405458E0,-8.813519263E0,-2.919707002E-1,1.165353120E1,1.461397133E1
1.549390458E0,-8.856562956E0,-4.416426102E-1,1.039536710E1,1.366372616E1
1.559376458E0,-8.301891986E0,-3.189278993E-1,8.845744438E0,1.213549835E1
1.569362458E0,-7.539871733E0,2.281152315E-2,6.882349994E0,1.020866923E1
1.579347458E0,-6.708981219E0,3.302147066E-1,4.637294002E0,8.162350544E0
1.589333458E0,-5.827695308E0,4.578868331E-1,2.808727580E0,6.485417764E0
1.599318458E0,-4.748420043E0,3.605510116E-1,1.647492186E0,5.039019790E0
1.609304458E0,-4.016603290E0,-1.164429143E-2,6.991960144E-1,4.077022522E0
1.619289458E0,-3.398080725E0,-4.772777351E-1,-3.734973317E-1,3.451702030E0
1.629275458E0,-2.502106901E0,-7.999080914E-1,-1.426439368E0,2.989167303E0
1.639260458E0,-1.462003303E0,-8.034504808E-1,-2.238838062E0,2.792021168E0
1.649246458E0,-3.925815473E-1,-6.806884805E-1,-2.792759419E0,2.901200140E0
1.659232458E0,6.652710539E-1,-5.379633917E-1,-3.408387027E0,3.514127532E0
1.669217458E0,1.787269584E0,-3.138479845E-1,-3.788374184E0,4.200549021E0
1.679203458E0,2.915404475E0,2.438880958E-2,-3.840931882E0,4.822129798E0
1.689188458E0,3.758626474E0,3.620880253E-1,-3.848318084E0,5.391468519E0
1.699174458E0,4.298356639E0,3.747489648E-1,-4.433408609E0,6.186389777E0
1.709159458E0,4.490781489E0,2.289278483E-1,-5.233089024E0,6.899619343E0
1.719145458E0,4.719138941E0,1.940882371E-1,-5.390964432E0,7.167317497E0
1.729131458E0,5.207456000E0,3.393142898E-1,-5.150466698E0,7.332123798E0
1.739116458E0,5.733897783E0,4.433768944E-1,-5.064149516E0,7.662883085E0
1.749102458E0,6.079262990E0,4.793136625E-1,-4.994443688E0,7.882363088E0
1.759087458E0,6.244534541E0,3.461122627E-1,-4.614298072E0,7.772113743E0
1.769073458E0,6.451462240E0,1.443443656E-1,-4.101991934E0,7.646472269E0
1.779058458E0,7.007363464E0,1.793103497E-1,-3.405996686E0,7.793337433E0
1.789044458E0,7.620624704E0,3.890257823E-1,-2.709807310E0,8.097426603E0
1.799029458E0,8.095461300E0,4.967863123E-1,-1.737850379E0,8.294782350E0
1.809015458E0,8.698561249E0,6.511478354E-1,-6.708452046E-1,8.748656731E0
1.819001458E0,9.559222276E0,7.745036204E-1,3.924920118E-1,9.598574705E0
1.828986458E0,1.024730624E1,9.231335565E-1,1.702704520E0,1.042874218E1
1.838972458E0,1.086582588E1,9.315047228E-1,2.844925938E0,1.127064669E1
1.848957458E0,1.122212129E1,7.822574669E-1,3.982212306E0,1.193339633E1
1.858943458E0,1.111398055E1,4.999063866E-1,4.912504317E0,1.216154466E1
1.868928458E0,1.055986097E1,1.943156938E-1,5.560583387E0,1.193601734E1
1.878914458E0,9.619912866E0,-1.748899278E-1,6.521722968E0,1.162351842E1
1.888899458E0,8.463547618E0,-6.197599818E-1,7.359455309E0,1.123286798E1
1.898885458E0,7.203638121E0,-1.024453963E0,7.863870630E0,1.071365341E1
1.908871458E0,5.953763031E0,-1.337991168E0,8.934988736E0,1.081996018E1
1.918856458E0,5.162454659E0,-1.648002502E0,1.041644046E1,1.174176657E1
1.928842458E0,4.384904786E0,-1.800656638E0,1.178671323E1,1.270418683E1
1.938827458E0,3.391356427E0,-2.038296546E0,1.315850277E1,1.374052933E1
1.948813458E0,2.125434677E0,-2.557522425E0,1.413459134E1,1.452050502E1
1.958798458E0,3.492462241E-1,-3.196259691E0,1.459681140E1,1.494673717E1
1.968784458E0,-1.307052381E0,-3.658250831E0,1.460656456E1,1.511432808E1
1.978770458E0,-2.292673962E0,-3.900665575E0,1.433555780E1,1.503262330E1
1.988755458E0,-3.042152815E0,-3.590599716E0,1.373125508E1,1.451531833E1
1.998741458E0,-4.060354204E0,-2.906526063E0,1.274302886E1,1.368645880E1
2.008726458E0,-5.076355578E0,-3.025234773E0,1.188455469E1,1.327268140E1
2.018712458E0,-6.863735967E0,-3.695355508E0,1.138531474E1,1.379825770E1
2.028697458E0,-9.022344384E0,-4.750567433E0,1.141078053E1,1.530282659E1
2.038683458E0,-1.108684011E1,-6.103838838E0,1.141676808E1,1.704457291E1
2.048668458E0,-1.227176199E1,-7.049065222E0,1.162929332E1,1.831736679E1
2.058654458E0,-1.330365288E1,-7.948492119E0,1.134026311E1,1.920331415E1
2.068640458E0,-1.476974748E1,-8.968287460E0,1.082077659E1,2.038785979E1
2.078625458E0,-1.578190870E1,-1.017520540E1,9.752626535E0,2.115932823E1
2.088611458E0,-1.596242043E1,-1.094467676E1,8.901166686E0,2.130294777E1
2.098596458E0,-1.566664136E1,-1.159953333E1,7.545356421E0,2.090275649E1
2.108582458E0,-1.568043027E1,-1.227412193E1,6.225203061E0,2.086343969E1
2.118567458E0,-1.540147364E1,-1.286757689E1,5.354229884E0,2.077131924E1
2.128553458E0,-1.459276279E1,-1.318150922E1,4.066422737E0,2.008075459E1
2.138539458E0,-1.313130386E1,-1.334030323E1,2.609058614E0,1.889978884E1
2.148524458E0,-1.205259197E1,-1.347876296E1,1.310166900E0,1.812894265E1
2.158510458E0,-1.111541194E1,-1.389997649E1,2.790718156E-1,1.779998905E1
2.168495458E0,-9.910837573E0,-1.427003391E1,-8.462862325E-1,1.739467647E1
2.178481458E0,-8.766961977E0,-1.434252184E1,-1.945544649E0,1.692195908E1
2.188466458E0,-7.562424443E0,-1.442910507E1,-3.009606335E0,1.656644400E1
2.198452458E0,-6.421594663E0,-1.446825218E1,-4.101116021E0,1.635195253E1
2.208438458E0,-5.361018502E0,-1.445720913E1,-5.123982319E0,1.624828021E1
2.218423458E0,-4.273451008E0,-1.441794507E1,-5.759220319E0,1.610304761E1
2.228409458E0,-3.273709571E0,-1.434962854E1,-6.471049243E0,1.607804379E1
2.238394333E0,-2.347629164E0,-1.437213682E1,-7.488409803E0,1.637516292E1
2.248380333E0,-1.813333694E0,-1.431503642E1,-8.433012289E0,1.671299324E1
2.258365333E0,-1.087549075E0,-1.410598325E1,-8.875959340E0,1.670162210E1
2.268351333E0,-2.036658302E-2,-1.359575522E1,-9.020729967E0,1.631620495E1
2.278336333E0,1.095804466E0,-1.299198459E1,-9.144839458E0,1.592546827E1
2.288322333E0,2.004605181E0,-1.251847005E1,-9.290615807E0,1.571769946E1
2.298308333E0,2.746344806E0,-1.199391517E1,-9.366260067E0,1.546361014E1
2.308293333E0,3.440897546E0,-1.141997937E1,-8.975944389E0,1.492726641E1
2.318279333E0,4.126768049E0,-1.085741408E1,-8.882715213E0,1.462245823E1
2.328264333E0,4.695733707E0,-1.029959906E1,-9.037705019E0,1.448488066E1
2.338250333E0,4.968860366E0,-9.748808888E0,-9.217943687E0,1.430731749E1
2.348235333E0,5.021007589E0,-9.362534806E0,-9.328402269E0,1.413812803E1
2.358221333E0,4.833266943E0,-9.070613149E0,-9.474178618E0,1.397843170E1
2.368206333E0,4.755795136E0,-8.954983875E0,-9.671960687E0,1.401271377E1
2.378192333E0,5.032787390E0,-8.744175963E0,-9.717547334E0,1.400786523E1
2.388178333E0,5.272099308E0,-8.497847385E0,-9.591459730E0,1.385657032E1
2.398163333E0,5.389749380E0,-8.335115865E0,-9.105597040E0,1.346979778E1
2.408149333E0,5.696112490E0,-8.356043635E0,-8.592209752E0,1.327008783E1
2.418134333E0,6.178475622E0,-8.237963793E0,-8.158243439E0,1.313752429E1
2.428120333E0,6.760488757E0,-7.778626412E0,-7.679063532E0,1.285220813E1
2.438105333E0,7.232025769E0,-7.490696649E0,-7.378825380E0,1.276165338E1
2.448091333E0,7.396938885E0,-7.511812114E0,-6.843843155E0,1.256901807E1
2.458077333E0,7.448614238E0,-7.476048204E0,-6.077443922E0,1.217819672E1
2.468062333E0,7.910084099E0,-7.325439132E0,-5.546983933E0,1.212437708E1
2.478048333E0,8.579638823E0,-6.975485029E0,-4.928627429E0,1.210615389E1
2.488033333E0,9.090880183E0,-6.731150937E0,-4.135998756E0,1.204404339E1
2.498019333E0,9.453627409E0,-6.747337199E0,-3.409019696E0,1.210450518E1
2.508004333E0,9.853826051E0,-6.831165222E0,-2.707647348E0,1.229203239E1
2.517990333E0,1.033034489E1,-6.377837609E0,-1.551908337E0,1.223933240E1
2.527976333E0,1.106283846E1,-5.657046073E0,-2.863094991E-1,1.242861771E1
2.537961333E0,1.161305794E1,-5.095650805E0,6.051599228E-1,1.269625892E1
2.547947333E0,1.175607616E1,-4.812144169E0,1.476831842E0,1.278839671E1
2.557932333E0,1.148404732E1,-4.831878229E0,2.059526762E0,1.262822396E1
2.567918333E0,1.090638100E1,-4.839822257E0,2.518055474E0,1.219481978E1
2.577903333E0,1.081463351E1,-4.333338776E0,2.812279764E0,1.198511745E1
2.587889333E0,1.099706664E1,-3.190961822E0,3.311480538E0,1.191988319E1
2.597874333E0,1.088907441E1,-2.111935356E0,4.863922141E0,1.211156270E1
2.607860333E0,9.956477430E0,-1.399502415E0,5.736479328E0,1.157571790E1
2.617846333E0,9.010807242E0,-1.254590577E0,5.814229170E0,1.079693964E1
2.627831333E0,7.563238961E0,-1.467002526E0,6.655862188E0,1.018111887E1
2.637817333E0,5.812413610E0,-1.481443541E0,8.625514907E0,1.050610938E1
2.647802333E0,4.706711269E0,-9.364858197E-1,1.036005693E1,1.141757051E1
2.657788333E0,4.298500772E0,-1.234585498E-1,9.651400707E0,1.056607243E1
2.667773333E0,3.080448861E0,1.445283190E0,1.120457263E1,1.170984442E1
2.677759333E0,1.095564584E0,1.869060729E0,1.462306891E1,1.478268562E1
2.687745333E0,-1.759802435E0,6.650643548E-1,1.548130100E1,1.559518823E1
2.697730333E0,-5.397783455E0,-8.785732417E-1,1.575141897E1,1.667378652E1
2.707716333E0,-9.537223881E0,-2.347818906E0,1.611395102E1,1.887141517E1
2.717701333E0,-1.278424822E1,-3.612951867E0,1.614956758E1,2.091169426E1
2.727687333E0,-1.386212746E1,-4.329686605E0,1.564516922E1,2.134657077E1
2.737672333E0,-1.347137558E1,-4.252655386E0,1.377816846E1,1.973324515E1
2.747658333E0,-1.217558465E1,-3.442823619E0,1.201769345E1,1.745058314E1
2.757643333E0,-1.058490927E1,-2.453627343E0,1.065054076E1,1.521494692E1
2.767629333E0,-9.184799330E0,-1.501207861E0,8.982947014E0,1.293474008E1
2.777615333E0,-7.802321668E0,-8.610905054E-1,6.677030863E0,1.030535984E1
2.787600333E0,-6.090526482E0,-3.987812769E-1,4.029639072E0,7.313790425E0
2.797586333E0,-4.384470630E0,1.923451822E-1,2.162432495E0,4.892514044E0
2.807571333E0,-2.805115755E0,8.039022513E-1,8.982744116E-1,3.053167232E0
2.817557333E0,-1.245963010E0,1.252822672E0,-2.921725023E-1,1.790908496E0
2.827542333E0,-2.238978176E-1,1.466284050E0,-1.435224810E0,2.063974177E0
2.837528333E0,2.979610996E-1,1.556525152E0,-1.799617442E0,2.397952106E0
2.847514333E0,5.925802962E-1,1.456356939E0,-2.305996258E0,2.791011588E0
2.857499333E0,9.140529037E-1,1.258983006E0,-3.018860139E0,3.396181305E0
2.867485333E0,9.570675802E-1,1.016892636E0,-3.269283521E0,3.555033576E0
2.877470333E0,7.844784587E-1,4.930502339E-1,-3.461361047E0,3.583228333E0
2.887456333E0,9.109896936E-1,2.532926112E-2,-3.398696437E0,3.518761325E0
2.897441333E0,1.171834203E0,-3.187885894E-1,-2.870468330E0,3.116794828E0
2.907427333E0,1.804697357E0,-6.737847461E-1,-2.755277013E0,3.361914611E0
2.917413333E0,2.795951414E0,-6.540465926E-1,-2.852387570E0,4.047373976E0
2.927398333E0,3.982709612E0,-2.667488086E-1,-2.436434190E0,4.676466865E0
2.937384333E0,5.621503188E0,1.203633262E-1,-2.082668288E0,5.996106455E0
2.947369333E0,7.389931582E0,5.238994128E-1,-1.806068090E0,7.625446959E0
2.957355333E0,9.046175880E0,1.020264872E0,-1.145793482E0,9.175351828E0
2.967340333E0,1.030872189E1,1.329053114E0,-8.123484081E-1,1.042573926E1
2.977326333E0,1.120421712E1,1.342634004E0,-7.120879555E-1,1.130682168E1
2.987311333E0,1.183232268E1,1.205464172E0,-2.829964668E-1,1.189693620E1
2.997297333E0,1.235860367E1,1.189763374E0,8.048154402E-1,1.244179848E1
3.007283333E0,1.283108559E1,1.006828701E0,1.604783539E0,1.297018857E1
3.017268333E0,1.282891042E1,8.721793114E-1,2.598861655E0,1.311852588E1
3.027254333E0,1.256522673E1,5.940661468E-1,3.833711155E0,1.315048206E1
3.037239333E0,1.183481009E1,-4.426342249E-2,4.572517962E0,1.268749816E1
3.047225333E0,1.067106565E1,-8.647387294E-1,5.373851386E0,1.197905230E1
3.057210333E0,9.292400962E0,-1.367102701E0,6.952676795E0,1.168577768E1
3.067196333E0,7.611814705E0,-1.516835276E0,9.170752564E0,1.201429211E1
3.077182333E0,6.182131886E0,-1.868947586E0,1.061360390E1,1.242418236E1
3.087167333E0,4.494692692E0,-2.209160958E0,1.140720672E1,1.245821093E1
3.097153333E0,2.770405806E0,-2.587041509E0,1.244926942E1,1.301354069E1
3.107138333E0,1.016941314E0,-2.768668891E0,1.383483968E1,1.414575859E1
3.117124333E0,-1.037483899E0,-2.792607099E0,1.493113414E1,1.522543247E1
3.127109333E0,-2.969457598E0,-2.971647673E0,1.559707821E1,1.615293215E1
3.137095333E0,-4.781496280E0,-3.231029282E0,1.624714592E1,1.724157787E1
3.147081333E0,-6.836830589E0,-3.569653235E0,1.624270671E1,1.798082862E1
3.157066333E0,-8.488035173E0,-4.112601707E0,1.582673111E1,1.842405090E1
3.167052333E0,-9.768173112E0,-4.673511364E0,1.536180496E1,1.879478561E1
3.177037333E0,-1.081188064E1,-5.327070737E0,1.504364276E1,1.927655656E1
3.187023333E0,-1.156657726E1,-6.168020800E0,1.453399593E1,1.957210330E1
3.197008333E0,-1.260320907E1,-6.902394834E0,1.368027789E1,1.984021009E1
3.206994333E0,-1.327980910E1,-7.742008224E0,1.260526612E1,1.987925439E1
3.216980333E0,-1.338805276E1,-8.526913310E0,1.101972577E1,1.932310957E1
3.226965333E0,-1.356587010E1,-9.187676160E0,8.827008204E0,1.861081134E1
3.236951333E0,-1.383277912E1,-9.988238336E0,7.299075206E0,1.855767178E1
3.246936583E0,-1.395422930E1,-1.058786328E1,6.150039443E0,1.856465322E1
3.256922583E0,-1.370517416E1,-1.079618438E1,4.457703205E0,1.800723504E1
3.266907583E0,-1.380616259E1,-1.090220258E1,3.022920445E0,1.784954326E1
3.276893583E0,-1.364278671E1,-1.139561987E1,2.582644987E0,1.796262332E1
3.286878583E0,-1.287959175E1,-1.194820631E1,2.285512877E0,1.771629439E1
3.296864583E0,-1.152167298E1,-1.256073606E1,1.044863523E0,1.707667352E1
3.306850583E0,-1.044504504E1,-1.299494562E1,-8.434310371E-1,1.669368005E1
3.316835583E0,-9.785625882E0,-1.306825801E1,-1.714213595E0,1.641573543E1
3.326821583E0,-9.121368735E0,-1.318665009E1,-2.667753550E0,1.625435380E1
3.336806583E0,-8.354930910E0,-1.344945203E1,-4.165685654E0,1.637209722E1
3.346792583E0,-7.508832958E0,-1.352845259E1,-5.048911087E0,1.627553702E1
3.356777583E0,-6.639321000E0,-1.350455619E1,-5.589997805E0,1.605308995E1
3.366763583E0,-6.077997068E0,-1.376061044E1,-6.362521412E0,1.633334402E1
3.376749583E0,-5.539657956E0,-1.421474965E1,-7.528504161E0,1.701250401E1
3.386734583E0,-4.888308538E0,-1.432082984E1,-8.604923937E0,1.740765474E1
3.396720583E0,-3.986977787E0,-1.417460501E1,-9.172754066E0,1.734804992E1
3.406705583E0,-2.983703755E0,-1.397155460E1,-9.852303436E0,1.735438587E1
3.416691583E0,-2.021584472E0,-1.358097813E1,-1.011179351E1,1.705221800E1
3.426676583E0,-1.209234383E0,-1.331393229E1,-1.024273606E1,1.684151664E1
3.436662583E0,-5.328224466E-1,-1.327626803E1,-1.058924440E1,1.699044701E1
3.446648583E0,-9.501491547E-2,-1.327493720E1,-1.087963233E1,1.716389773E1
3.456633583E0,2.497805542E-1,-1.323601697E1,-1.111227784E1,1.728401731E1
3.466619583E0,5.559427758E-1,-1.319353578E1,-1.129389469E1,1.737614790E1
3.476604583E0,1.018796124E0,-1.301960333E1,-1.096156235E1,1.705004004E1
3.486590583E0,1.627690298E0,-1.267404107E1,-1.049485630E1,1.653549823E1
3.496575583E0,2.313171522E0,-1.239463304E1,-1.023578021E1,1.624034751E1
3.506561583E0,3.085753163E0,-1.210248977E1,-1.002490155E1,1.601532960E1
3.516547583E0,3.664399763E0,-1.179332643E1,-9.732420312E0,1.572356127E1
3.526532583E0,3.886534024E0,-1.147375505E1,-9.213649492E0,1.521984029E1
3.536518583E0,4.182657782E0,-1.120589410E1,-8.781462488E0,1.483848955E1
3.546503583E0,4.726242431E0,-1.070728097E1,-8.620695632E0,1.453614896E1
3.556489583E0,5.296240123E0,-1.007975662E1,-8.554334997E0,1.424178009E1
3.566474583E0,5.718456455E0,-9.473295688E0,-8.243078937E0,1.379827619E1
3.576460583E0,5.741549449E0,-9.054081901E0,-7.877830857E0,1.330421017E1
3.586445583E0,5.567753828E0,-8.971730885E0,-7.702926019E0,1.307007678E1
3.596431583E0,5.620766439E0,-9.044072052E0,-7.545361099E0,1.305069840E1
3.606417583E0,6.060146688E0,-8.914702991E0,-7.084823869E0,1.289930372E1
3.616402583E0,6.805557341E0,-8.504302711E0,-6.383653834E0,1.262496779E1
3.626388583E0,7.556119975E0,-8.222041240E0,-5.761349875E0,1.256543129E1
3.636373583E0,8.328692114E0,-8.061884834E0,-4.757915629E0,1.252991862E1
3.646359583E0,9.412296365E0,-7.605647646E0,-3.351745049E0,1.255672704E1
3.656344583E0,1.098267430E1,-6.835106830E0,-2.053763162E0,1.309792973E1
3.666330583E0,1.278290804E1,-5.833391665E0,-6.029718947E-1,1.406395291E1
3.676316583E0,1.434805213E1,-4.710735323E0,8.759234297E-1,1.512695836E1
3.686301583E0,1.543209434E1,-3.570920034E0,2.182158662E0,1.598945972E1
3.696287583E0,1.624669802E1,-2.804474023E0,3.469333726E0,1.684804284E1
3.706272583E0,1.639442442E1,-2.664341115E0,4.690064539E0,1.725898522E1
3.716258583E0,1.614488747E1,-3.358330476E0,5.867264585E0,1.750315882E1
3.726243583E0,1.490296576E1,-4.053393386E0,6.534861662E0,1.676999712E1
3.736229583E0,1.247673613E1,-3.804396139E0,7.397499633E0,1.499551184E1
3.746214583E0,1.029842143E1,-2.944871811E0,8.976980515E0,1.397554769E1
3.756200583E0,8.258989795E0,-1.749407840E0,1.123590669E1,1.405407198E1
3.766186583E0,6.795650988E0,-9.232921623E-1,1.324501934E1,1.491522303E1
3.776171583E0,5.529983738E0,-5.839288290E-1,1.481481899E1,1.582404988E1
3.786157583E0,3.548081395E0,-6.151743029E-1,1.592862469E1,1.633059722E1
3.796142583E0,2.404921060E-1,-1.454194054E0,1.719119292E1,1.725426413E1
3.806128583E0,-4.035802038E0,-2.276320469E0,1.841054086E1,1.898466086E1
3.816113583E0,-7.355367520E0,-2.390909816E0,1.897301027E1,2.048885062E1
3.826099583E0,-9.313606474E0,-2.009492430E0,1.837049095E1,2.069435341E1
3.836085583E0,-1.027555297E1,-1.486143387E0,1.639354032E1,1.940473589E1
3.846070583E0,-1.117868583E1,-6.406952065E-1,1.411820043E1,1.801935322E1
3.856056583E0,-1.196460073E1,1.651228850E-1,1.176421315E1,1.678021595E1
3.866041583E0,-1.211083492E1,3.589297248E-1,9.172607886E0,1.519664070E1
3.876027583E0,-1.146301137E1,2.285335998E-1,7.567167120E0,1.373735330E1
3.886012583E0,-1.019884101E1,2.121109638E-1,6.765288152E0,1.224052584E1
3.895998583E0,-8.448865845E0,1.785366900E-1,4.937739730E0,9.787567780E0
3.905984583E0,-6.379791749E0,4.454970217E-1,2.978443015E0,7.054880094E0
3.915969583E0,-3.832318056E0,9.804983966E-1,1.714541039E0,4.311344310E0
3.925955583E0,-1.523242070E0,1.386241369E0,1.573824871E-1,2.065599376E0
3.935940583E0,1.872918722E-1,1.168446911E0,-1.729848465E0,2.095882187E0
3.945926583E0,1.180288838E0,8.916917624E-1,-3.233199769E0,3.555527624E0
3.955911583E0,2.092091514E0,8.020995547E-1,-4.081078783E0,4.655686268E0
3.965897583E0,3.103345388E0,7.529237401E-1,-4.588956825E0,5.590721912E0
3.975883583E0,3.925270658E0,5.136891510E-1,-4.937370771E0,6.328448184E0
3.985868583E0,4.637351597E0,1.373595741E-1,-5.373798761E0,7.099409173E0
3.995854583E0,5.808718169E0,-1.270835312E-1,-5.520381441E0,8.014484902E0
4.005839583E0,7.446989881E0,-6.537757203E-2,-5.073670537E0,9.011329826E0
4.015825583E0,9.236873463E0,3.233574575E-1,-4.118374663E0,1.011856716E1
4.025810583E0,1.121299028E1,1.001072848E0,-2.870011663E0,1.161767037E1
4.035796583E0,1.309080955E1,1.742310928E0,-1.828749440E0,1.333226412E1
4.045782583E0,1.423580547E1,2.249439210E0,-7.228672975E-1,1.443054647E1
4.055767583E0,1.454190838E1,2.178795490E0,5.057590109E-1,1.471292090E1
4.065753583E0,1.443889565E1,1.568825355E0,1.635189645E0,1.461563429E1
4.075738583E0,1.386426404E1,7.069179936E-1,3.200663522E0,1.424646613E1
4.085724583E0,1.309809168E1,-2.336111757E-1,5.425268292E0,1.417914369E1
4.095709583E0,1.188475700E1,-1.152611043E0,7.627978163E0,1.416905121E1
4.105695583E0,1.046956125E1,-1.795280270E0,8.775981892E0,1.377870103E1
4.115681583E0,8.725953700E0,-2.118670618E0,9.480646223E0,1.305808891E1
4.125666583E0,6.483090999E0,-2.219590344E0,1.060987103E1,1.263037662E1
4.135652583E0,4.798737381E0,-2.501069897E0,1.197660273E1,1.314238350E1
4.145637583E0,3.457691627E0,-2.798876191E0,1.317908965E1,1.390962772E1
4.155623583E0,2.714789137E0,-2.887916422E0,1.454978809E1,1.508000248E1
4.165608583E0,1.791833921E0,-2.886250550E0,1.543386137E1,1.580332838E1
4.175594583E0,2.485010007E-1,-2.922326117E0,1.581217388E1,1.608187133E1
4.185579583E0,-1.180483258E0,-3.044339966E0,1.610780092E1,1.643541290E1
4.195565583E0,-3.126833069E0,-3.470299686E0,1.635630876E1,1.701025870E1
4.205551583E0,-5.663233012E0,-4.414049647E0,1.681113559E1,1.828032610E1
4.215536583E0,-7.927601187E0,-5.314077054E0,1.729086456E1,1.974994361E1
4.225522583E0,-9.610952593E0,-6.146477319E0,1.713756693E1,2.058751548E1
4.235507583E0,-1.097900810E1,-7.132697362E0,1.635789218E1,2.095219862E1
4.245493208E0,-1.227819627E1,-7.973062704E0,1.522757862E1,2.112351730E1
4.255478208E0,-1.364309778E1,-8.933988277E0,1.344540927E1,2.113597157E1
4.265464208E0,-1.491232482E1,-1.000893631E1,1.181756197E1,2.149909320E1
4.275450208E0,-1.632323457E1,-1.108623902E1,1.019817560E1,2.221160660E1
4.285435208E0,-1.745884337E1,-1.220631995E1,8.184733080E0,2.282094025E1
4.295421208E0,-1.819550717E1,-1.306513209E1,6.034295563E0,2.319885516E1
4.305406208E0,-1.850402732E1,-1.367957739E1,4.238237321E0,2.339855808E1
4.315392208E0,-1.784562382E1,-1.398335662E1,2.930017544E0,2.286013024E1
4.325377208E0,-1.682538643E1,-1.399604741E1,1.633143119E0,2.194652884E1
4.335363208E0,-1.577489204E1,-1.396844388E1,4.557670712E-1,2.107539719E1
4.345349208E0,-1.427993792E1,-1.394706763E1,-7.877877635E-1,1.997643441E1
4.355334208E0,-1.293285287E1,-1.386745077E1,-2.240995685E0,1.909415973E1
4.365320208E0,-1.183418561E1,-1.395830714E1,-3.074187663E0,1.855620966E1
4.375305208E0,-1.087916455E1,-1.413735824E1,-3.130999795E0,1.811144056E1
4.385291208E0,-1.030070418E1,-1.442478865E1,-3.156784261E0,1.800400848E1
4.395276208E0,-9.446435918E0,-1.483878789E1,-3.518137511E0,1.793884247E1
4.405262208E0,-8.705410677E0,-1.516043387E1,-4.408620508E0,1.802938893E1
4.415248208E0,-7.951847252E0,-1.547677993E1,-5.362143506E0,1.820755818E1
4.425233208E0,-6.764628001E0,-1.563233926E1,-6.161201777E0,1.811327221E1
4.435219208E0,-5.426006795E0,-1.547931061E1,-7.172006439E0,1.790218654E1
4.445204208E0,-4.055232043E0,-1.549599505E1,-8.277935359E0,1.803039055E1
4.455190208E0,-2.945056583E0,-1.551308413E1,-8.907764685E0,1.812946246E1
4.465175208E0,-2.221318635E0,-1.553789737E1,-9.678972668E0,1.844025550E1
4.475161208E0,-1.296722982E0,-1.558528087E1,-1.088273603E1,1.905298963E1
4.485147208E0,2.584572010E-1,-1.521250450E1,-1.127884279E1,1.893936081E1
4.495132208E0,1.999470887E0,-1.450843073E1,-1.106008793E1,1.835260176E1
4.505118208E0,3.778717215E0,-1.383519519E1,-1.066800639E1,1.787449832E1
4.515103208E0,5.422177454E0,-1.265951659E1,-1.037129528E1,1.724027652E1
4.525089208E0,6.881634879E0,-1.130863085E1,-9.929423532E0,1.654797516E1
4.535074208E0,7.581596294E0,-1.036136320E1,-9.773413972E0,1.613561497E1
4.545060208E0,7.895621595E0,-9.567530585E0,-1.006387675E1,1.597373147E1
4.555046208E0,7.844332743E0,-9.130651774E0,-1.083274234E1,1.619415526E1
4.565031208E0,7.512062960E0,-9.338141391E0,-1.126446449E1,1.644749631E1
4.575017208E0,6.974669927E0,-9.451931131E0,-1.118021313E1,1.621672557E1
4.585002208E0,6.200236620E0,-9.900672773E0,-1.093852665E1,1.600367523E1
4.594988208E0,4.876619954E0,-1.021236094E1,-1.041003425E1,1.537668857E1
4.604973208E0,4.017974754E0,-1.035938333E1,-9.810984671E0,1.482283254E1
4.614959208E0,4.147421876E0,-1.051616590E1,-9.610108840E0,1.483728564E1
4.624945208E0,4.300758675E0,-1.062566203E1,-9.092406891E0,1.463123651E1
4.634930208E0,4.318727753E0,-1.064451345E1,-8.177400672E0,1.410060132E1
4.644916208E0,4.509158995E0,-1.088840081E1,-8.320341121E0,1.442629070E1
4.654901208E0,5.414984794E0,-1.113059833E1,-8.339695989E0,1.492524066E1
4.664887208E0,6.777146305E0,-1.083224298E1,-7.093499967E0,1.461454556E1
4.674872208E0,8.078987939E0,-1.010399566E1,-5.633920920E0,1.411034512E1
4.684858208E0,9.145511888E0,-9.171564158E0,-4.584200699E0,1.373946407E1
4.694844208E0,1.025095607E1,-8.637480065E0,-3.708440992E0,1.390829597E1
4.704829208E0,1.127928601E1,-7.970799247E0,-2.357679212E0,1.401123067E1
4.714815208E0,1.274123844E1,-6.892352825E0,-6.441263527E-1,1.450029597E1
4.724800208E0,1.471690151E1,-5.972838403E0,1.013906025E0,1.591508700E1
4.734786208E0,1.590484524E1,-4.751138706E0,2.436370456E0,1.677716668E1
4.744771208E0,1.665542424E1,-3.286532515E0,3.849035538E0,1.740745608E1
4.754757208E0,1.659154224E1,-2.367891813E0,5.767967754E0,1.772443617E1
4.764742208E0,1.545831676E1,-2.515737637E0,8.163228191E0,1.766144919E1
4.774728208E0,1.412478790E1,-3.480111898E0,1.093268646E1,1.819737468E1
4.784714208E0,1.262070745E1,-4.087580886E0,1.359186214E1,1.899287473E1
4.794699208E0,1.047569381E1,-3.746100276E0,1.637545722E1,1.979719746E1
4.804685208E0,7.560970826E0,-3.314176981E0,1.887107926E1,2.059780769E1
4.814670208E0,4.554881006E0,-3.148018116E0,1.965781277E1,2.042269723E1
4.824656208E0,1.957467999E0,-2.847532627E0,1.948672091E1,1.979071537E1
4.834642208E0,-6.279409674E-1,-1.832391524E0,1.845075334E1,1.855214994E1
4.844627208E0,-2.195364014E0,-7.918930936E-1,1.770579701E1,1.785894638E1
4.854613208E0,-3.614005535E0,-1.447755978E-1,1.792233578E1,1.828365707E1
4.864598208E0,-5.524099100E0,1.749720812E-1,1.821078361E1,1.903099907E1
4.874584208E0,-7.594947242E0,-1.385743332E-1,1.745193430E1,1.903345573E1
4.884569208E0,-9.808914757E0,-1.999911475E-1,1.570068385E1,1.851394822E1
4.894555208E0,-1.206563828E1,-7.059349304E-1,1.352634058E1,1.813945591E1
4.904541208E0,-1.412580181E1,-1.722384786E0,1.105715029E1,1.802125019E1
4.914526208E0,-1.522282951E1,-2.124653927E0,8.975939126E0,1.779933077E1
4.924512208E0,-1.485659968E1,-1.899408655E0,6.985966163E0,1.652664608E1
4.934497208E0,-1.306616237E1,-1.330056058E0,5.157435409E0,1.411002439E1
4.944483208E0,-1.005798509E1,-8.440827093E-1,3.664390408E0,1.073793727E1
4.954468208E0,-6.922187659E0,-2.988187400E-1,1.960065039E0,7.200543700E0
4.964454208E0,-3.882369052E0,2.561254410E-1,5.591861898E-1,3.930786040E0
4.974439208E0,-1.309739030E0,8.479234529E-1,-8.259519553E-1,1.765385834E0
4.984425208E0,1.147471560E0,1.485399913E0,-2.366734795E0,3.020684934E0
4.994411208E0,3.460920167E0,2.128535163E0,-3.365079040E0,5.275640936E0
5.004396208E0,4.811553308E0,2.389731748E0,-4.629934697E0,7.092119454E0
5.014382208E0,5.293766166E0,1.868085267E0,-5.961725770E0,8.188765288E0
5.024367208E0,5.802135374E0,1.578905224E0,-6.553179819E0,8.893923900E0
5.034353208E0,6.376089876E0,1.364360064E0,-7.221651054E0,9.729760760E0
5.044338208E0,7.028881218E0,9.097817320E-1,-7.746872522E0,1.049985275E1
5.054324208E0,7.876415831E0,7.812966232E-1,-7.652043548E0,1.100918349E1
5.064310208E0,1.002028459E1,1.223440413E0,-6.443145161E0,1.197568492E1
5.074295208E0,1.285361842E1,2.395547827E0,-4.679637784E0,1.388715830E1
5.084281208E0,1.498974195E1,2.758842060E0,-3.545210119E0,1.564838931E1
5.094266208E0,1.588723108E1,2.460880229E0,-2.148209728E0,1.621958224E1
5.104252208E0,1.622442130E1,2.184426212E0,-4.800031954E-1,1.637784990E1
5.114237208E0,1.608208604E1,1.389753645E0,8.394648707E-1,1.616383642E1
5.124223208E0,1.551537156E1,2.032188106E-1,2.902218711E0,1.578578240E1
5.134209208E0,1.477749036E1,-7.191645482E-1,5.262540280E0,1.570304904E1
5.144194208E0,1.418606321E1,-1.156064116E0,7.702492155E0,1.618361082E1
5.154180208E0,1.239602000E1,-1.473317665E0,1.024919021E1,1.615171436E1
5.164165208E0,1.052650026E1,-1.836275683E0,1.267842882E1,1.658076215E1
5.174151208E0,1.013729322E1,-1.868447941E0,1.542157871E1,1.854941782E1
5.184136208E0,9.947948681E0,-1.997499206E0,1.874911336E1,2.131855853E1
5.194122208E0,9.299890661E0,-2.573746694E0,2.228212502E1,2.428178811E1
5.204108208E0,8.899327737E0,-3.201350570E0,2.537718023E1,2.708224429E1
5.214093208E0,7.835587063E0,-4.554315580E0,2.653797883E1,2.804286960E1
5.224079208E0,4.631059116E0,-7.136375846E0,2.679062767E1,2.810893629E1
5.234064208E0,-1.668729566E-1,-1.013943915E1,2.626975770E1,2.815912360E1
5.244050167E0,-5.567245705E0,-1.282864730E1,2.461078567E1,2.830652200E1
5.254035167E0,-1.053805670E1,-1.533770976E1,2.211693884E1,2.890423781E1
5.264021167E0,-1.401931699E1,-1.695039756E1,1.977347772E1,2.957782357E1
5.274007167E0,-1.592233309E1,-1.799355253E1,1.808018254E1,3.006961297E1
5.283992167E0,-1.710507396E1,-1.877733086E1,1.699968608E1,3.056404809E1
5.293978167E0,-1.812519206E1,-1.912605412E1,1.480602244E1,3.022493728E1
5.303963167E0,-1.914277014E1,-1.965559551E1,1.111580371E1,2.960319536E1
5.313949167E0,-2.006622442E1,-2.026330833E1,7.589853147E0,2.951035238E1
5.323934167E0,-2.088491179E1,-2.063423464E1,4.507042011E0,2.970293937E1
5.333920167E0,-2.131483183E1,-2.118228013E1,1.207181645E0,3.007438004E1
5.343906167E0,-2.134712249E1,-2.134479530E1,-1.566549180E0,3.022836419E1
5.353891167E0,-2.043005221E1,-2.102970054E1,-3.468088853E0,2.952393907E1
5.363877167E0,-1.891033747E1,-2.056586432E1,-5.132374828E0,2.840593089E1
5.373862167E0,-1.709778131E1,-1.998033350E1,-6.658681131E0,2.712721671E1
5.383848167E0,-1.493413259E1,-1.931178859E1,-7.964263814E0,2.567884329E1
5.393833167E0,-1.264012722E1,-1.847088179E1,-8.707988130E0,2.401614764E1
5.403819167E0,-1.021920452E1,-1.753278141E1,-8.908596743E0,2.216288927E1
5.413805167E0,-7.943194542E0,-1.666858399E1,-8.867015439E0,2.048316368E1
5.423790167E0,-5.774531254E0,-1.599848839E1,-8.987837040E0,1.923741294E1
5.433776167E0,-4.205418069E0,-1.534701151E1,-9.437047044E0,1.850065297E1
5.443761167E0,-3.019843640E0,-1.491113432E1,-9.687139474E0,1.803613189E1
5.453747167E0,-2.199812429E0,-1.468383668E1,-9.735024662E0,1.775457517E1
5.463732167E0,-1.604173674E0,-1.443528908E1,-9.769316243E0,1.750401337E1
5.473718167E0,-7.349469142E-1,-1.402946542E1,-9.803475677E0,1.713108818E1
5.483704167E0,1.839734311E-1,-1.360734323E1,-9.661522822E0,1.668947750E1
5.493689167E0,8.218979345E-1,-1.321251701E1,-9.461942734E0,1.627189240E1
5.503675167E0,1.550425337E0,-1.294571557E1,-9.559927450E0,1.616748537E1
5.513660167E0,2.150484295E0,-1.251383906E1,-9.518749019E0,1.586906845E1
5.523646167E0,2.595531373E0,-1.195442541E1,-9.618563329E0,1.556154975E1
5.533631167E0,2.641044931E0,-1.165273598E1,-1.019252017E1,1.570505783E1
5.543617167E0,2.324525792E0,-1.176691807E1,-1.040454957E1,1.587823771E1
5.553603167E0,2.266140466E0,-1.226650417E1,-1.068845177E1,1.642697533E1
5.563588167E0,2.373812850E0,-1.254704422E1,-1.083489645E1,1.674688889E1
5.573574167E0,2.892255056E0,-1.241413584E1,-1.043213673E1,1.647135042E1
5.583559167E0,3.881121549E0,-1.198378896E1,-9.585235954E0,1.582880446E1
5.593545167E0,4.973724664E0,-1.133622152E1,-8.775153927E0,1.517402985E1
5.603530167E0,6.148037941E0,-1.050701149E1,-8.488748533E0,1.484097412E1
5.613516167E0,6.775143049E0,-9.859808922E0,-8.378260131E0,1.460526063E1
5.623502167E0,6.620271356E0,-9.710762810E0,-8.341691059E0,1.441217253E1
5.633487167E0,6.385764095E0,-1.002273340E1,-8.142430229E0,1.440598271E1
5.643473167E0,6.419074513E0,-1.036131291E1,-7.634577330E0,1.438221450E1
5.653458167E0,6.864683801E0,-1.032220907E1,-7.141135479E0,1.430621193E1
5.663444167E0,7.253448797E0,-1.006747396E1,-6.534555268E0,1.402379991E1
5.673429167E0,7.406816586E0,-9.889111658E0,-5.443999847E0,1.350157753E1
5.683415167E0,7.573471003E0,-9.455533601E0,-4.346342399E0,1.287071369E1
5.693401167E0,8.253213331E0,-8.955898379E0,-3.110862569E0,1.256984932E1
5.703386167E0,9.564659602E0,-8.219093074E0,-1.899005490E0,1.275313397E1
5.713372167E0,1.162546924E1,-7.177812139E0,-6.981698281E-1,1.368064192E1
5.723357167E0,1.332736100E1,-5.923776755E0,7.788327527E-1,1.460535048E1
5.733343167E0,1.418828983E1,-5.086350224E0,2.166179391E0,1.522730640E1
5.743328167E0,1.425401253E1,-4.824427122E0,2.647732099E0,1.527947825E1
5.753314167E0,1.422715043E1,-4.831289122E0,2.844913074E0,1.529204676E1
5.763300167E0,1.423540085E1,-4.568993261E0,3.577636439E0,1.537276225E1
5.773285167E0,1.408665119E1,-4.111935709E0,4.523780251E0,1.535598726E1
5.783271167E0,1.387816872E1,-3.550502727E0,4.836771179E0,1.511965581E1
5.793256167E0,1.359935827E1,-3.123686974E0,4.953312035E0,1.480659535E1
5.803242167E0,1.302370574E1,-3.180352634E0,5.369023924E0,1.444153634E1
5.813227167E0,1.192851406E1,-3.191619926E0,6.100380794E0,1.377281857E1
5.823213167E0,1.016616794E1,-3.074822085E0,6.441648273E0,1.242176855E1
5.833199167E0,8.143572775E0,-2.884579124E0,7.539502773E0,1.146658957E1
5.843184167E0,6.628827587E0,-2.292342717E0,9.220214161E0,1.158484093E1
5.853170167E0,5.631129459E0,-1.514534981E0,1.041438224E1,1.193577784E1
5.863155167E0,3.872427324E0,-7.051708455E-1,1.128794457E1,1.195452433E1
5.873141167E0,1.388743538E0,-3.058558640E-1,1.243003910E1,1.251111620E1
5.883127167E0,-1.709638149E0,-5.696663006E-1,1.381613093E1,1.393315672E1
5.893112167E0,-5.078426662E0,-1.098427088E0,1.520295015E1,1.606632044E1
5.903098167E0,-7.862929813E0,-1.333043108E0,1.642212268E1,1.825619846E1
5.913083167E0,-9.701352886E0,-1.139866013E0,1.673863012E1,1.938033232E1
5.923069167E0,-1.145735478E1,-4.040594123E-1,1.649079238E1,2.008433409E1
5.933054167E0,-1.335610007E1,6.523153782E-2,1.553719804E1,2.048887960E1
5.943040167E0,-1.493376656E1,-3.033326443E-1,1.375129700E1,2.030289544E1
5.953025167E0,-1.605871355E1,-6.654103638E-1,1.213583995E1,2.013960434E1
5.963011167E0,-1.605607996E1,-9.604751913E-1,1.055319631E1,1.923772774E1
5.972997167E0,-1.463414938E1,-9.233656910E-1,8.576868997E0,1.698745461E1
5.982982167E0,-1.191052451E1,-3.266484167E-1,6.673165854E0,1.365644302E1
5.992968167E0,-8.711989964E0,1.039710957E-1,4.343732201E0,9.735378193E0
6.002953167E0,-5.468026056E0,5.915505284E-1,2.180731357E0,5.916487998E0
6.012939167E0,-2.412902071E0,1.257514477E0,4.578194439E-2,2.721311274E0
6.022924167E0,4.056081205E-1,1.646107127E0,-1.890639294E0,2.539429771E0
6.032910167E0,2.696631486E0,1.621009562E0,-3.427891000E0,4.652948536E0
6.042896167E0,4.231544306E0,1.537621543E0,-4.563244278E0,6.410416957E0
6.052881167E0,5.642927386E0,1.334123966E0,-5.199969226E0,7.788593980E0
6.062867167E0,7.000177236E0,1.158234603E0,-5.693934402E0,9.097520416E0
6.072852167E0,8.673272041E0,1.210008920E0,-6.016861505E0,1.062508315E1
6.082838167E0,1.020339482E1,1.291792317E0,-6.223359434E0,1.202115618E1
6.092824167E0,1.136463197E1,1.060614753E0,-6.360586569E0,1.306663021E1
6.102809167E0,1.207856765E1,7.196989837E-1,-6.201023655E0,1.359641340E1
6.112795167E0,1.257881449E1,1.770962285E-1,-5.437216492E0,1.370478968E1
6.122780167E0,1.310000839E1,-1.594167334E-1,-4.072450631E0,1.371934720E1
6.132766167E0,1.416561082E1,1.072472906E-1,-2.131436405E0,1.432546868E1
6.142751167E0,1.538884015E1,3.375796402E-1,2.688900590E-2,1.539256587E1
6.152737167E0,1.562165756E1,5.089852121E-1,1.890429379E0,1.574385513E1
6.162723167E0,1.542342409E1,2.509651271E-1,4.012490943E0,1.593879160E1
6.172708167E0,1.493866769E1,-1.802386683E-1,6.761758772E0,1.639870910E1
6.182694167E0,1.434204821E1,-5.323708588E-1,9.749226379E0,1.735007725E1
6.192679167E0,1.313980571E1,-9.259706256E-1,1.242892696E1,1.811049809E1
6.202665167E0,1.167920632E1,-1.408202195E0,1.458567830E1,1.873843391E1
6.212650167E0,9.577143407E0,-1.815043566E0,1.632655111E1,1.901505535E1
6.222636167E0,7.218563724E0,-2.557780872E0,1.843879344E1,1.996594623E1
6.232622167E0,4.800765780E0,-3.610457445E0,2.089339259E1,2.173974722E1
6.242607542E0,2.193648148E0,-5.025495912E0,2.257937875E1,2.323566324E1
6.252593542E0,-9.891278636E-1,-6.369505911E0,2.349834588E1,2.436639568E1
6.262578542E0,-4.655890194E0,-7.533943241E0,2.358957413E1,2.519733363E1
6.272564542E0,-8.219829238E0,-8.688699920E0,2.265582057E1,2.561923701E1
6.282549542E0,-1.167332870E1,-9.586047547E0,2.118783732E1,2.602082552E1
6.292535542E0,-1.489996380E1,-1.030074278E1,1.996533656E1,2.695790954E1
6.302521542E0,-1.765394741E1,-1.117089267E1,1.847274588E1,2.788714834E1
6.312506542E0,-1.994334401E1,-1.212475948E1,1.701663131E1,2.888446821E1
6.322492542E0,-2.103476189E1,-1.306768148E1,1.508817983E1,2.899790816E1
6.332477542E0,-2.120114558E1,-1.387242558E1,1.254471236E1,2.827193969E1
6.342463542E0,-2.080066745E1,-1.467418176E1,1.016851852E1,2.741164251E1
6.352448542E0,-2.013610098E1,-1.529122790E1,8.199404914E0,2.658033962E1
6.362434542E0,-1.905630970E1,-1.583172931E1,6.450357701E0,2.560065833E1
6.372420542E0,-1.772236802E1,-1.625335800E1,4.582493312E0,2.447964909E1
6.382405542E0,-1.666480551E1,-1.678397411E1,2.562048755E0,2.379036829E1
6.392391542E0,-1.568170964E1,-1.739000877E1,2.059237325E-1,2.341731895E1
6.402376542E0,-1.443716019E1,-1.763372072E1,-1.915479435E0,2.287025934E1
6.412362542E0,-1.316711806E1,-1.775033408E1,-3.989365790E0,2.245801410E1
6.422348542E0,-1.181794906E1,-1.777421528E1,-5.507584809E0,2.204359633E1
6.432333542E0,-1.058958470E1,-1.759613365E1,-6.830618507E0,2.164302596E1
6.442319542E0,-9.026650273E0,-1.730996507E1,-7.772433041E0,2.101252058E1
6.452304542E0,-7.327655811E0,-1.678304323E1,-8.533730578E0,2.020370356E1
6.462290542E0,-5.604906451E0,-1.603255661E1,-8.886473218E0,1.916839206E1
6.472275542E0,-4.164836054E0,-1.539444646E1,-9.419538726E0,1.852194782E1
6.482261542E0,-3.336769745E0,-1.523496482E1,-1.025604198E1,1.866613464E1
6.492246542E0,-3.200122654E0,-1.515385926E1,-1.096571153E1,1.897701412E1
6.502232542E0,-2.737814303E0,-1.490716523E1,-1.087008850E1,1.865148859E1
6.512218542E0,-1.790112062E0,-1.435851046E1,-1.082728455E1,1.807211705E1
6.522203542E0,-4.866865264E-1,-1.380906515E1,-1.049820325E1,1.735336900E1
6.532189542E0,4.130872575E-1,-1.351659210E1,-1.036802669E1,1.704009626E1
6.542174542E0,6.920587568E-1,-1.333710129E1,-1.046144999E1,1.696464418E1
6.552160542E0,1.138046579E0,-1.306507596E1,-1.012700095E1,1.656947519E1
6.562146542E0,1.590446312E0,-1.277250818E1,-9.809326985E0,1.618299665E1
6.572131542E0,2.078995652E0,-1.261271313E1,-9.536388314E0,1.594821174E1
6.582117542E0,2.568145646E0,-1.227534282E1,-9.153799732E0,1.552647620E1
6.592102542E0,3.128334049E0,-1.215344007E1,-9.156194751E0,1.553475078E1
6.602088542E0,3.517249319E0,-1.218729545E1,-9.541858385E0,1.587287859E1
6.612073542E0,3.434567351E0,-1.182459266E1,-9.364647405E0,1.546977264E1
6.622059542E0,3.664138978E0,-1.135948174E1,-9.181213818E0,1.505850016E1
6.632045542E0,4.252137322E0,-1.095967954E1,-9.525086231E0,1.513018556E1
6.642030542E0,4.803860711E0,-1.075154673E1,-1.009305903E1,1.550943827E1
6.652016542E0,4.839470547E0,-1.083658396E1,-1.058996243E1,1.590595270E1
6.662001542E0,4.756025517E0,-1.105397408E1,-1.070712894E1,1.610753649E1
6.671987542E0,5.161920809E0,-1.112914822E1,-1.060556281E1,1.621669908E1
6.681972542E0,6.096214653E0,-1.103053961E1,-1.026623368E1,1.625522043E1
6.691958542E0,7.095308511E0,-1.075882301E1,-9.809949129E0,1.619662858E1
6.701944542E0,8.248491704E0,-1.047842329E1,-9.275095543E0,1.624384090E1
6.711929542E0,9.391075650E0,-1.026133254E1,-8.530693535E0,1.631747467E1
6.721915542E0,1.027425255E1,-9.847401130E0,-7.355797291E0,1.601996655E1
6.731900542E0,1.100172921E1,-9.515542991E0,-6.005238410E0,1.573678787E1
6.741886542E0,1.175455588E1,-9.187366258E0,-4.454352166E0,1.556979563E1
6.751871542E0,1.293011052E1,-8.636587780E0,-2.406447330E0,1.573433810E1
6.761857542E0,1.381684078E1,-7.778848021E0,-6.557506174E-1,1.586964318E1
6.771843542E0,1.433150101E1,-7.033561329E0,7.770756644E-1,1.598332733E1
6.781828542E0,1.393610878E1,-6.339390997E0,2.066969683E0,1.544912197E1
6.791814542E0,1.341579780E1,-5.299978248E0,3.676960167E0,1.488601478E1
6.801799542E0,1.308956994E1,-4.007766393E0,5.675455447E0,1.481923842E1
6.811785542E0,1.202861605E1,-3.007055487E0,7.749970377E0,1.462162876E1
6.821771542E0,1.007117758E1,-2.392303938E0,1.017348397E1,1.451383864E1
6.831756542E0,8.231920695E0,-1.861996708E0,1.273404520E1,1.527702383E1
6.841742542E0,6.485708213E0,-1.312701522E0,1.580625884E1,1.713550159E1
6.851727542E0,3.978874131E0,-1.166693258E0,1.931658798E1,1.975659848E1
6.861713542E0,1.309990899E0,-1.184186227E0,2.157378162E1,2.164593326E1
6.871698542E0,-9.898630048E-1,-6.903518084E-1,2.258938451E1,2.262159824E1
6.881684542E0,-3.312194775E0,-5.506518862E-1,2.340283746E1,2.364247560E1
6.891670542E0,-5.141038647E0,-8.481709363E-1,2.345845383E1,2.403016289E1
6.901655542E0,-6.556200491E0,-6.114442179E-1,2.175495409E1,2.272962068E1
6.911641542E0,-7.492137403E0,2.043786058E-1,1.928676016E1,2.069185857E1
6.921626542E0,-7.782209001E0,1.108108177E0,1.609935637E1,1.791591349E1
6.931612542E0,-7.660281106E0,2.770586193E0,1.262811470E1,1.502748600E1
6.941597542E0,-6.601735098E0,4.322577560E0,1.001810942E1,1.275265068E1
6.951583542E0,-5.478311309E0,4.541369260E0,8.711052656E0,1.124803840E1
6.961569542E0,-4.766248496E0,4.005656133E0,7.638945200E0,9.854739446E0
6.971554542E0,-4.196306061E0,3.185745521E0,6.552350684E0,8.407809379E0
6.981540542E0,-3.719893641E0,2.327365638E0,5.719425924E0,7.208749712E0
6.991525542E0,-3.024692736E0,1.547151919E0,4.233615097E0,5.428254047E0
7.001511542E0,-2.136884110E0,9.190291035E-1,2.321160427E0,3.286133582E0
7.011496542E0,-1.411632756E0,7.170228593E-1,7.161927009E-1,1.737745897E0
7.021482542E0,-5.789089943E-1,8.069192684E-1,-1.162770288E0,1.529146518E0
7.031468542E0,1.880126146E-1,8.751900427E-1,-3.016761573E0,3.146769255E0
7.041453542E0,7.952473488E-1,6.657218742E-1,-4.184549941E0,4.311155549E0
7.051439542E0,1.398550635E0,4.041460973E-1,-5.128818551E0,5.331421731E0
7.061424542E0,2.214741394E0,3.512520383E-1,-5.994115251E0,6.399833989E0
7.071410542E0,3.233182227E0,4.543619853E-1,-7.069154500E0,7.786710312E0
7.081395542E0,4.414779965E0,8.085314919E-1,-7.707665187E0,8.919198840E0
7.091381542E0,5.709789128E0,1.201212807E0,-7.949963279E0,9.861365028E0
7.101367542E0,6.804459234E0,1.500429012E0,-8.186592495E0,1.075045345E1
7.111352542E0,7.801404240E0,1.465607088E0,-8.538420045E0,1.165823868E1
7.121338542E0,8.969708333E0,1.101123970E0,-8.730387059E0,1.256534121E1
7.131323542E0,1.013600683E1,5.517378603E-1,-7.958232411E0,1.289870196E1
7.141309542E0,1.133790552E1,6.191397384E-2,-6.295093076E0,1.296842827E1
7.151294542E0,1.264739882E1,-8.348201349E-2,-4.567344931E0,1.344709284E1
7.161280542E0,1.363748446E1,-1.045841762E-1,-3.030890785E0,1.397061985E1
7.171266542E0,1.446861938E1,-1.226263449E-1,-1.287351065E0,1.452629536E1
7.181251542E0,1.492895898E1,-4.230621323E-1,5.602258247E-1,1.494545585E1
7.191237542E0,1.524315794E1,-8.640988979E-1,2.640138320E0,1.549422025E1
7.201222542E0,1.571764312E1,-1.135457067E0,4.820625263E0,1.647944161E1
7.211208542E0,1.612946719E1,-1.555954025E0,6.777946789E0,1.756477348E1
7.221194542E0,1.580930758E1,-2.124809756E0,8.929191806E0,1.828057682E1
7.231179542E0,1.402921867E1,-3.211515954E0,1.119303958E1,1.823230502E1
7.241165542E0,1.080779695E1,-5.092257666E0,1.299727047E1,1.765413840E1
7.251150667E0,6.927588147E0,-7.051218166E0,1.450496100E1,1.755292137E1
7.261136667E0,2.805305790E0,-8.239666502E0,1.629797927E1,1.847663316E1
7.271121667E0,-5.088673908E-1,-8.542123672E0,1.853165775E1,2.041198574E1
7.281107667E0,-2.114414576E0,-7.834675482E0,1.988248385E1,2.147477713E1
7.291093667E0,-2.485218972E0,-6.795642802E0,2.005026853E1,2.131596450E1
7.301078667E0,-2.304465310E0,-5.944234409E0,2.094682679E1,2.189552547E1
7.311064667E0,-2.684022258E0,-5.523514963E0,2.174794211E1,2.259836673E1
7.321049667E0,-4.411752861E0,-6.059812227E0,2.204777096E1,2.328710140E1
7.331035667E0,-6.894737320E0,-7.329666084E0,2.273282840E1,2.486046852E1
7.341020667E0,-9.544045828E0,-8.730099961E0,2.310396755E1,2.647823205E1
7.351006667E0,-1.179013385E1,-1.026710258E1,2.199521618E1,2.698536986E1
7.360992667E0,-1.421113724E1,-1.201054582E1,2.007539051E1,2.737208316E1
7.370977667E0,-1.631351182E1,-1.348886577E1,1.782282552E1,2.767188605E1
7.380963667E0,-1.764966374E1,-1.455229304E1,1.521660223E1,2.747407589E1
7.390948667E0,-1.814488782E1,-1.535189510E1,1.244029512E1,2.682682575E1
7.400934667E0,-1.794459964E1,-1.594795559E1,9.627257554E0,2.586561485E1
7.410920667E0,-1.773969917E1,-1.640197200E1,7.030001544E0,2.516232370E1
7.420905667E0,-1.733882927E1,-1.694353293E1,4.620300239E0,2.467925207E1
7.430891667E0,-1.683527056E1,-1.735229423E1,1.825555106E0,2.424584710E1
7.440876667E0,-1.585875748E1,-1.757128182E1,-4.622662514E-1,2.367411717E1
7.450862667E0,-1.464615956E1,-1.769183854E1,-2.485397605E0,2.310169565E1
7.460847667E0,-1.340434076E1,-1.756653271E1,-4.077208511E0,2.246960284E1
7.470833667E0,-1.181675389E1,-1.733875091E1,-5.298445108E0,2.164119859E1
7.480819667E0,-1.051210091E1,-1.706995441E1,-6.448928642E0,2.105887674E1
7.490804667E0,-9.468883379E0,-1.691065287E1,-7.206299774E0,2.067754070E1
7.500790667E0,-8.007989877E0,-1.639606748E1,-7.918853168E0,1.989138422E1
7.510775667E0,-6.305215775E0,-1.548900529E1,-8.611261150E0,1.881007309E1
7.520761667E0,-4.802379026E0,-1.473470512E1,-9.091619271E0,1.796752404E1
7.530746667E0,-3.517279724E0,-1.399766358E1,-9.311393303E0,1.717579366E1
7.540732667E0,-2.374724869E0,-1.333854906E1,-9.681223846E0,1.665179583E1
7.550718667E0,-1.526865736E0,-1.283751051E1,-1.026142844E1,1.650545088E1
7.560703667E0,-1.242490495E0,-1.234297172E1,-1.087268584E1,1.649569734E1
7.570689667E0,-1.111442990E0,-1.204757272E1,-1.142639845E1,1.664157131E1
7.580674667E0,-5.891520005E-1,-1.167310651E1,-1.172421468E1,1.655493055E1
7.590660667E0,4.694731275E-2,-1.126949543E1,-1.200842211E1,1.646833121E1
7.600646667E0,1.640463395E-1,-1.113335588E1,-1.209179054E1,1.643745488E1
7.610631667E0,1.688436145E-1,-1.139039597E1,-1.189024403E1,1.646655798E1
7.620617667E0,2.382277717E-1,-1.174934835E1,-1.196408735E1,1.677031083E1
7.630602667E0,2.507056203E-1,-1.217910935E1,-1.190604321E1,1.703371430E1
7.640588667E0,2.533850703E-1,-1.267336513E1,-1.160483910E1,1.718576964E1
7.650573667E0,4.281582000E-1,-1.278763727E1,-1.121982918E1,1.701738973E1
7.660559667E0,9.322367211E-1,-1.263251882E1,-1.057291312E1,1.649957845E1
7.670545667E0,1.733402110E0,-1.253144853E1,-1.027780064E1,1.629954205E1
7.680530667E0,2.426720503E0,-1.225408235E1,-1.034372098E1,1.621863343E1
7.690516667E0,2.979679408E0,-1.198516656E1,-1.034077281E1,1.610758484E1
7.700501667E0,3.627096866E0,-1.187134817E1,-1.015344791E1,1.603674666E1
7.710487667E0,4.480810525E0,-1.180418354E1,-9.914068744E0,1.605319816E1
7.720472667E0,5.715673766E0,-1.133488601E1,-9.274797335E0,1.572165491E1
7.730458667E0,6.765560047E0,-1.076899482E1,-8.805126754E0,1.546849409E1
7.740444667E0,7.090979233E0,-1.043653033E1,-8.670788729E0,1.530966129E1
7.750429667E0,6.742905010E0,-1.033996356E1,-8.513601539E0,1.499543349E1
7.760415667E0,6.223419076E0,-1.057812767E1,-8.727761659E0,1.505993206E1
7.770400667E0,6.665887824E0,-1.090053612E1,-9.231370649E0,1.576305657E1
7.780386667E0,8.209629940E0,-1.077722887E1,-8.726350726E0,1.611508247E1
7.790371667E0,1.040595757E1,-1.005686477E1,-6.846068020E0,1.600915767E1
7.800357667E0,1.292458140E1,-9.128607588E0,-4.240254026E0,1.638157608E1
7.810343667E0,1.559675661E1,-7.958906595E0,-1.139974918E0,1.754715230E1
7.820328667E0,1.775987791E1,-6.357538415E0,1.787485054E0,1.894799886E1
7.830314667E0,1.893166577E1,-4.719441827E0,3.989941156E0,1.991483694E1
7.840299667E0,1.813916574E1,-3.470583860E0,5.489207595E0,1.926669889E1
7.850285667E0,1.611982864E1,-2.491060633E0,6.979942362E0,1.774186726E1
7.860271667E0,1.357053033E1,-1.033926014E0,8.960780804E0,1.629490377E1
7.870256667E0,1.132606724E1,-4.302180279E-2,1.233889504E1,1.674902925E1
7.880242667E0,9.019543567E0,-5.986375000E-1,1.620473723E1,1.855543160E1
7.890227667E0,6.197555087E0,-2.249734202E0,1.946462779E1,2.055097876E1
7.900213667E0,3.278078903E0,-3.686516272E0,2.188132879E1,2.243053172E1
7.910198667E0,3.904276523E-1,-3.980749625E0,2.328067041E1,2.362177843E1
7.920184667E0,-1.882914245E0,-2.872465739E0,2.419463465E1,2.443720057E1
7.930170667E0,-3.071535950E0,-9.867917548E-1,2.408476547E1,2.429987693E1
7.940155667E0,-3.179345743E0,1.032863575E0,2.248509123E1,2.273223205E1
7.950141667E0,-3.379878050E0,2.392934122E0,2.023871494E1,2.065805634E1
7.960126667E0,-4.237643244E0,2.965390275E0,1.704544639E1,1.781287182E1
7.970112667E0,-5.402852406E0,3.266356697E0,1.354480375E1,1.494394890E1
7.980097667E0,-6.327032906E0,3.212307667E0,1.115516833E1,1.322074304E1
7.990083667E0,-6.995400646E0,2.973071762E0,9.096676528E0,1.185429499E1
8.000069667E0,-7.412249234E0,2.827005976E0,7.034236098E0,1.060254116E1
8.010054667E0,-7.475273448E0,2.638982033E0,4.785415084E0,9.259813002E0
8.020040667E0,-7.265916231E0,2.343266556E0,3.083189451E0,8.233498285E0
8.030025667E0,-6.973661867E0,1.810572639E0,1.600984603E0,7.380601928E0
8.040011667E0,-6.176852435E0,9.972129549E-1,-6.264122128E-3,6.256834577E0
8.049997667E0,-5.269924729E0,4.299390426E-1,-1.071288260E0,5.394869115E0
8.059982667E0,-4.209260859E0,1.747479866E-1,-1.818812097E0,4.588735260E0
8.069968667E0,-3.162380632E0,1.009953015E-2,-2.341270171E0,3.934755300E0
8.079953667E0,-2.134911113E0,-1.977591191E-1,-3.252037743E0,3.895215477E0
8.089939667E0,-1.071492474E0,-2.963744576E-1,-4.342006688E0,4.482070506E0
8.099924667E0,-2.804605293E-1,-6.124817332E-1,-5.254552984E0,5.297557837E0
8.109910667E0,3.235097775E-1,-9.419360094E-1,-6.256399711E0,6.335174770E0
8.119896667E0,1.284473357E0,-9.192567795E-1,-7.000536840E0,7.176518716E0
8.129881667E0,2.353569497E0,-6.447888422E-1,-7.426882476E0,7.817520409E0
8.139867667E0,3.517235286E0,-4.657672718E-1,-7.560080295E0,8.351209330E0
8.149852667E0,4.664646108E0,-3.282740888E-1,-7.586026729E0,8.911480726E0
8.159838667E0,5.700649345E0,-2.321354847E-1,-7.843810587E0,9.699312056E0
8.169823667E0,6.779755917E0,-1.462072885E-1,-7.610021363E0,1.019308060E1
8.179809667E0,8.171641164E0,-2.311559299E-1,-6.838730350E0,1.065820741E1
8.189795667E0,9.364900004E0,-2.607174057E-1,-5.653147150E0,1.094200157E1
8.199780667E0,1.028386888E1,-3.833453585E-1,-4.414467723E0,1.119787650E1
8.209766667E0,1.110516996E1,-6.296414839E-1,-2.948545616E0,1.150717904E1
8.219751667E0,1.200406593E1,-5.904579762E-1,-1.164510419E0,1.207486331E1
8.229737667E0,1.283503363E1,-3.752725464E-1,6.924898428E-1,1.285917804E1
8.239723667E0,1.388892174E1,-3.767893142E-1,2.271129311E0,1.407842838E1
8.249708042E0,1.473320823E1,-6.306204540E-1,3.930570282E0,1.526153628E1
8.259694042E0,1.464022698E1,-1.200678079E0,5.751741731E0,1.577531003E1
8.269679042E0,1.414404044E1,-1.807499781E0,7.625370305E0,1.616994767E1
8.279665042E0,1.305875746E1,-2.070561043E0,9.991151419E0,1.657231052E1
8.289650042E0,1.169098262E1,-2.684788243E0,1.274481811E1,1.750192992E1
8.299636042E0,1.044253074E1,-3.533410438E0,1.550775380E1,1.902687220E1
8.309622042E0,9.154106126E0,-4.430013423E0,1.780318122E1,2.050307146E1
8.319607042E0,7.759217749E0,-4.913863209E0,2.060131949E1,2.255583908E1
8.329593042E0,5.866714947E0,-5.441615353E0,2.339302115E1,2.472373274E1
8.339578042E0,2.707433340E0,-6.490194197E0,2.491376500E1,2.588722662E1
8.349564042E0,-4.609092589E-1,-7.594791121E0,2.554559173E1,2.665465337E1
8.359549042E0,-3.535871531E0,-8.084286686E0,2.562980567E1,2.710618043E1
8.369535042E0,-6.874309487E0,-8.577136799E0,2.555317440E1,2.781704744E1
8.379521042E0,-9.852357230E0,-9.374554342E0,2.449108147E1,2.801364460E1
8.389506042E0,-1.229448544E1,-1.028617151E1,2.223970932E1,2.741467430E1
8.399492042E0,-1.463276476E1,-1.126590407E1,2.005674725E1,2.726373982E1
8.409477042E0,-1.663714117E1,-1.227749226E1,1.764716347E1,2.718370212E1
8.419463042E0,-1.837222640E1,-1.310842137E1,1.548078177E1,2.736830316E1
8.429449042E0,-1.972674209E1,-1.391228254E1,1.333392509E1,2.757697440E1
8.439434042E0,-2.030661748E1,-1.488573402E1,1.113671686E1,2.753125957E1
8.449420042E0,-2.041962779E1,-1.548742187E1,8.877921665E0,2.712266448E1
8.459405042E0,-2.004032827E1,-1.573069410E1,6.906075656E0,2.639627578E1
8.469391042E0,-1.906006595E1,-1.589258245E1,4.693562343E0,2.525648073E1
8.479376042E0,-1.809115425E1,-1.588080265E1,2.557590837E0,2.420807770E1
8.489362042E0,-1.721600382E1,-1.604251793E1,9.338061869E-1,2.355048117E1
8.499348042E0,-1.644887369E1,-1.650699267E1,-7.822352475E-1,2.331647796E1
8.509333042E0,-1.592755114E1,-1.685732275E1,-2.283252928E0,2.330385075E1
8.519319042E0,-1.479905723E1,-1.687677761E1,-3.349409087E0,2.269485093E1
8.529304042E0,-1.333677151E1,-1.660156203E1,-4.139857918E0,2.169377237E1
8.539290042E0,-1.192066943E1,-1.678893956E1,-4.960551472E0,2.117965822E1
8.549276042E0,-1.059911099E1,-1.687966847E1,-5.486895021E0,2.067293831E1
8.559261042E0,-9.141363873E0,-1.659720936E1,-6.179213541E0,1.993024265E1
8.569247042E0,-7.592701326E0,-1.631495725E1,-7.202966861E0,1.938323180E1
8.579232042E0,-6.261458722E0,-1.603554688E1,-8.026580515E0,1.899396282E1
8.589218042E0,-5.300412111E0,-1.566457379E1,-8.531425606E0,1.860802148E1
8.599203042E0,-4.548900474E0,-1.542524725E1,-9.040697624E0,1.844898268E1
8.609189042E0,-3.904632618E0,-1.541408726E1,-9.701168114E0,1.862667186E1
8.619175042E0,-3.281430235E0,-1.551017221E1,-1.013783935E1,1.881778449E1
8.629160042E0,-2.638660436E0,-1.551108672E1,-1.040550149E1,1.886347798E1
8.639146042E0,-1.994541100E0,-1.549689669E1,-1.050808504E1,1.882954733E1
8.649131042E0,-1.378839963E0,-1.525446762E1,-1.054521954E1,1.859574245E1
8.659117042E0,-7.808134970E-1,-1.477768683E1,-1.077434853E1,1.830508902E1
8.669102042E0,-1.357923742E-1,-1.437993934E1,-1.088208816E1,1.803388305E1
8.679088042E0,5.288087350E-1,-1.386711865E1,-1.098627385E1,1.769957150E1
8.689074042E0,9.750265722E-1,-1.328130599E1,-1.115030579E1,1.736873872E1
8.699059042E0,1.145803276E0,-1.274327093E1,-1.113118773E1,1.695898463E1
8.709045042E0,1.115054669E0,-1.226581186E1,-1.088901243E1,1.643971044E1
8.719030042E0,1.315129578E0,-1.197714535E1,-1.049174675E1,1.597680589E1
8.729016042E0,1.539899033E0,-1.189726186E1,-1.017835588E1,1.573261126E1
8.739002042E0,1.388304559E0,-1.190930596E1,-1.000818202E1,1.561802373E1
8.748987042E0,1.169728621E0,-1.195666957E1,-9.778389952E0,1.549022667E1
8.758973042E0,1.373386119E0,-1.173372109E1,-9.322980146E0,1.504939729E1
8.768958042E0,1.966996914E0,-1.110835552E1,-8.721315104E0,1.425924179E1
8.778944042E0,2.848915201E0,-1.019803760E1,-8.066525769E0,1.331109037E1
8.788929042E0,3.932821460E0,-9.613827084E0,-7.893466312E0,1.304605558E1
8.798915042E0,4.782044457E0,-9.353014369E0,-8.090306979E0,1.325895524E1
8.808901042E0,5.699691571E0,-9.319820895E0,-7.997478923E0,1.353902562E1
8.818886042E0,7.114892006E0,-9.045011115E0,-7.621960208E0,1.380319498E1
8.828872042E0,8.738386050E0,-8.680514402E0,-6.665767372E0,1.400511248E1
8.838857042E0,1.019654305E1,-8.152002121E0,-5.171711971E0,1.404176747E1
8.848843042E0,1.160375970E1,-7.537227037E0,-3.892634717E0,1.437392207E1
8.858828042E0,1.301351872E1,-6.954791733E0,-2.792913201E0,1.501736201E1
8.868814042E0,1.465281252E1,-6.355428155E0,-1.586898075E0,1.605037779E1
8.878800042E0,1.619219846E1,-5.344338734E0,-9.196149945E-2,1.705161882E1
8.888785042E0,1.730902835E1,-4.250562083E0,1.502119296E0,1.788647821E1
8.898771042E0,1.745486141E1,-3.462183750E0,2.794905347E0,1.801306190E1
8.908756042E0,1.656858373E1,-2.896603630E0,3.775589247E0,1.723842666E1
8.918742042E0,1.527053694E1,-2.685753911E0,4.799259537E0,1.623069514E1
8.928728042E0,1.335562410E1,-2.360238246E0,6.352962969E0,1.497676728E1
8.938713042E0,1.096991919E1,-1.938183443E0,8.674375411E0,1.411879849E1
8.948699042E0,8.369512696E0,-2.126912561E0,1.150451023E1,1.438493154E1
8.958684042E0,5.775950958E0,-2.610894932E0,1.471695180E1,1.602395245E1
8.968670042E0,3.370048881E0,-2.905573259E0,1.824858352E1,1.878324748E1
8.978655042E0,1.183297816E0,-2.944100563E0,2.090402751E1,2.114346915E1
8.988641042E0,-6.446458778E-1,-2.238980003E0,2.209185194E1,2.221437647E1
8.998627042E0,-2.220189830E0,-1.182875208E0,2.262218505E1,2.276162764E1
9.008612042E0,-3.853534093E0,-7.514359161E-2,2.250750244E1,2.283512727E1
9.018598042E0,-5.225098220E0,8.096123497E-1,2.135050920E1,2.199548514E1
9.028583042E0,-6.908985815E0,9.873881708E-1,1.974657117E1,2.094364088E1
9.038569042E0,-9.082269573E0,6.249181031E-1,1.806262686E1,2.022712615E1
9.048555042E0,-1.077071273E1,2.905832291E-1,1.565374942E1,1.900348816E1
9.058540042E0,-1.149595108E1,3.778315803E-1,1.268628514E1,1.712429498E1
9.068526042E0,-1.121862115E1,5.849585237E-1,9.784096835E0,1.489725437E1
9.078511042E0,-1.004246424E1,9.071045843E-1,7.107850204E0,1.233675246E1
9.088497042E0,-8.429737848E0,1.379011725E0,4.994162437E0,9.894635515E0
9.098482042E0,-6.407650223E0,1.529642432E0,3.151661516E0,7.302791087E0
9.108468042E0,-4.663745052E0,1.589888634E0,1.633176448E0,5.190908310E0
9.118454042E0,-3.462084932E0,1.574324223E0,4.301977819E-1,3.827479454E0
9.128439042E0,-2.655630518E0,1.170689465E0,-1.061531011E0,3.090264609E0
9.138425042E0,-2.050196799E0,6.406499637E-1,-2.501897278E0,3.297458003E0
9.148410042E0,-1.580562910E0,5.126801408E-1,-3.617477027E0,3.980849166E0
9.158396042E0,-1.051629775E0,5.089688399E-1,-4.202598542E0,4.361973059E0
9.168381042E0,-4.622741452E-1,1.797047444E-1,-4.570097215E0,4.596931557E0
9.178367042E0,1.995517293E-1,-1.531724187E-1,-5.024362137E0,5.030655779E0
9.188353042E0,8.193554190E-1,-4.401871651E-1,-5.497017721E0,5.575151286E0
9.198338042E0,1.763386632E0,-7.780622359E-1,-5.684242058E0,6.002126376E0
9.208324042E0,3.207482545E0,-6.106622989E-1,-5.476419734E0,6.375894120E0
9.218309042E0,5.242042866E0,-1.559373477E-1,-5.085441567E0,7.305138314E0
9.228295042E0,7.100740575E0,2.115683421E-1,-4.805020798E0,8.576333876E0
9.238281042E0,8.895677905E0,5.030331852E-1,-4.518906596E0,9.990327552E0
9.248266167E0,1.088584558E1,6.255893634E-1,-4.393163393E0,1.175554680E1
9.258252167E0,1.271077679E1,1.081950512E0,-3.860439947E0,1.332807038E1
9.268237167E0,1.409949401E1,1.319723443E0,-2.879692313E0,1.445095254E1
9.278223167E0,1.517685636E1,1.327011413E0,-1.705053347E0,1.532987721E1
9.288208167E0,1.581088165E1,1.259907012E0,-5.169119900E-1,1.586942161E1
9.298194167E0,1.563417762E1,1.027654583E0,6.108258748E-1,1.567981799E1
9.308180167E0,1.456366236E1,2.742871852E-1,1.785301704E0,1.467524436E1
9.318165167E0,1.303568317E1,-7.891349620E-1,3.707472693E0,1.357560767E1
9.328151167E0,1.193944134E1,-1.480301726E0,6.022922144E0,1.345426117E1
9.338136167E0,1.120624727E1,-1.479865524E0,8.566721154E0,1.418304238E1
9.348122167E0,1.043884465E1,-1.262405527E0,1.096423101E1,1.519136291E1
9.358108167E0,9.693796529E0,-1.189945077E0,1.359216853E1,1.673716541E1
9.368093167E0,8.387691105E0,-1.748057864E0,1.661885809E1,1.869747343E1
9.378079167E0,6.539155857E0,-3.095734652E0,1.935668818E1,2.066459556E1
9.388064167E0,3.734751708E0,-4.695163018E0,2.162506404E1,2.244184308E1
9.398050167E0,2.133111048E-1,-5.587331475E0,2.341054876E1,2.406901677E1
9.408035167E0,-3.568462450E0,-6.172495674E0,2.407183611E1,2.510551574E1
9.418021167E0,-7.208246312E0,-6.714445442E0,2.355674319E1,2.553356109E1
9.428007167E0,-1.032891232E1,-7.094027971E0,2.206946413E1,2.537859156E1
9.437992167E0,-1.304119593E1,-7.402268037E0,2.065007124E1,2.552041938E1
9.447978167E0,-1.503609049E1,-7.975819666E0,1.909561702E1,2.558007635E1
9.457963167E0,-1.595793795E1,-8.670220964E0,1.734076469E1,2.511036908E1
9.467949167E0,-1.654673035E1,-9.359196045E0,1.537076991E1,2.444686899E1
9.477935167E0,-1.675668048E1,-1.003194276E1,1.307431573E1,2.350242430E1
9.487920167E0,-1.633424253E1,-1.064075837E1,1.060794028E1,2.219372918E1
9.497906167E0,-1.593916021E1,-1.145512582E1,9.021294224E0,2.160232592E1
9.507891167E0,-1.578337401E1,-1.266049190E1,7.696059633E0,2.164791639E1
9.517877167E0,-1.582837535E1,-1.348773025E1,5.993832246E0,2.164214311E1
9.527862167E0,-1.543466127E1,-1.446909652E1,3.905385740E0,2.151361337E1
9.537848167E0,-1.486561375E1,-1.526942714E1,2.001373279E0,2.140437741E1
9.547834167E0,-1.379034588E1,-1.554523212E1,5.988782591E-1,2.078909657E1
9.557819167E0,-1.245763211E1,-1.562717734E1,-6.266858625E-1,1.999484945E1
9.567805167E0,-1.134555718E1,-1.566290148E1,-1.879546541E0,1.943143963E1
9.577790167E0,-1.044929363E1,-1.578565325E1,-3.058345217E0,1.917623689E1
9.587776167E0,-9.635916111E0,-1.590518905E1,-4.175858640E0,1.905947831E1
9.597762167E0,-8.703663529E0,-1.587478587E1,-5.056147016E0,1.879699997E1
9.607747167E0,-7.717306076E0,-1.566433288E1,-5.859378446E0,1.841902423E1
9.617733167E0,-6.799471559E0,-1.542843515E1,-6.528003463E0,1.807994065E1
9.627718167E0,-5.975272599E0,-1.527418561E1,-7.252627848E0,1.793335549E1
9.637704167E0,-5.046031918E0,-1.511018758E1,-7.582310824E0,1.764289217E1
9.647689167E0,-4.283540964E0,-1.483150343E1,-7.957904382E0,1.736808739E1
9.657675167E0,-3.524472677E0,-1.452088063E1,-8.656244949E0,1.726871328E1
9.667661167E0,-2.763689986E0,-1.425749981E1,-9.590061661E0,1.740355038E1
9.677646167E0,-2.254018604E0,-1.385079322E1,-1.027420811E1,1.739207938E1
9.687632167E0,-1.616839620E0,-1.363607878E1,-1.094813012E1,1.756184410E1
9.697617167E0,-1.092130514E0,-1.355108834E1,-1.151587605E1,1.781685004E1
9.707603167E0,-5.488057740E-1,-1.340129904E1,-1.185304872E1,1.789946278E1
9.717588167E0,1.857331872E-1,-1.317195487E1,-1.241455567E1,1.810127301E1
9.727574167E0,8.988485350E-1,-1.295159086E1,-1.258908571E1,1.808415642E1
9.737560167E0,1.304385904E0,-1.284363605E1,-1.163900204E1,1.738179444E1
9.747545167E0,1.666483651E0,-1.266469956E1,-1.042138721E1,1.648566329E1
9.757531167E0,2.182498824E0,-1.232189836E1,-9.767390755E0,1.587433156E1
9.767516167E0,2.765524258E0,-1.175093178E1,-9.479078584E0,1.534879321E1
9.777502167E0,3.410605169E0,-1.124151534E1,-9.461051618E0,1.508361337E1
9.787488167E0,4.010963358E0,-1.082632794E1,-9.430387650E0,1.490736110E1
9.797473167E0,4.173395793E0,-1.057488597E1,-9.351138582E0,1.472036815E1
9.807459167E0,4.242894921E0,-1.048540252E1,-9.455801404E0,1.474306629E1
9.817444167E0,4.507633165E0,-1.041134754E1,-9.597150825E0,1.486002080E1
9.827430167E0,5.096998588E0,-1.015927056E1,-9.283654697E0,1.467570842E1
9.837415167E0,5.830780299E0,-1.007163133E1,-8.884127315E0,1.464115687E1
9.847401167E0,6.800892432E0,-1.002795613E1,-8.238802868E0,1.465230067E1
9.857387167E0,8.781084173E0,-9.362440665E0,-6.674538195E0,1.446762574E1
9.867372167E0,1.124348234E1,-8.174365967E0,-5.242802419E0,1.485675373E1
9.877358167E0,1.340208959E1,-7.114681506E0,-3.982207044E0,1.568734111E1
9.887343167E0,1.454554769E1,-6.410300181E0,-2.604093744E0,1.610733405E1
9.897329167E0,1.493156216E1,-6.261284475E0,-1.969790713E0,1.631058881E1
9.907315167E0,1.519213280E1,-6.539582119E0,-1.764804289E0,1.663374785E1
9.917300167E0,1.496406449E1,-6.557523715E0,-1.001943206E0,1.636851348E1
9.927286167E0,1.441590673E1,-6.164727064E0,3.516223133E-2,1.567875834E1
9.937271167E0,1.441208032E1,-5.199766327E0,1.407794352E0,1.538595183E1
9.947257167E0,1.445336867E1,-3.977294213E0,3.002720069E0,1.528839636E1
9.957242167E0,1.449822968E1,-2.688393344E0,4.664458412E0,1.546555188E1
9.967228167E0,1.414991105E1,-1.360290110E0,6.581708969E0,1.566490551E1
9.977214167E0,1.271842845E1,-4.432149996E-1,8.500383323E0,1.530396610E1
9.987199167E0,9.560115731E0,-2.496727279E-1,9.755607446E0,1.366126004E1
9.997185167E0,5.232504303E0,-1.171334559E0,1.083718505E1,1.209114162E1
1.000717017E1,2.583355424E-1,-2.184454571E0,1.293091159E1,1.311667083E1
1.001715617E1,-4.177793484E0,-2.688840948E0,1.568225811E1,1.645044204E1
1.002714217E1,-6.188353908E0,-3.263173766E0,1.847714767E1,1.975725216E1
1.003712717E1,-7.325593498E0,-3.167022736E0,2.169126622E1,2.311288349E1
1.004711317E1,-9.026960760E0,-2.818728366E0,2.420094965E1,2.598301780E1
1.005709817E1,-1.035948390E1,-2.653741867E0,2.492732118E1,2.712439113E1
1.006708417E1,-1.137593113E1,-1.452433604E0,2.321390690E1,2.589221594E1
1.007706917E1,-1.123211418E1,-9.935369566E-2,1.965171530E1,2.263537440E1
1.008705517E1,-9.991731462E0,9.700437212E-1,1.595257255E1,1.884834882E1
1.009704117E1,-8.681598476E0,2.372300613E0,1.327621073E1,1.603919367E1
1.010702617E1,-7.364052975E0,3.647922310E0,1.182530486E1,1.440050167E1
1.011701217E1,-6.048963888E0,3.847868141E0,9.138189420E0,1.161475610E1
1.012699717E1,-5.245471673E0,4.062557727E0,5.955962169E0,8.915875376E0
1.013698317E1,-4.213861156E0,4.195148020E0,3.915607257E0,7.119541625E0
1.014696917E1,-3.130019217E0,3.799761636E0,2.953313436E0,5.740842189E0
1.015695417E1,-2.503159984E0,3.055869213E0,2.000098586E0,4.427701538E0
1.016694017E1,-2.109876990E0,2.090245402E0,4.950726396E-1,3.010947305E0
1.017692517E1,-1.737111876E0,1.287450614E0,-7.253821850E-1,2.280628437E0
1.018691117E1,-1.180310473E0,5.960538346E-1,-2.252022364E0,2.611516363E0
1.019689617E1,-5.466284171E-1,-7.547330149E-2,-4.130136922E0,4.166836911E0
1.020688217E1,1.499720183E-1,-6.043273524E-1,-5.539882489E0,5.574764672E0
1.021686817E1,8.889618436E-1,-7.562217890E-1,-5.978351743E0,6.091207935E0
1.022685317E1,2.314600435E0,-6.587227571E-1,-6.104930513E0,6.562123697E0
1.023683917E1,3.795367454E0,-5.441601612E-1,-6.880137992E0,7.876371193E0
1.024682404E1,5.418286716E0,-3.347112154E-1,-7.528894170E0,9.281923829E0
1.025681004E1,7.134961989E0,1.729333764E-1,-7.433435451E0,1.030502553E1
1.026679504E1,8.555587471E0,5.028251705E-1,-7.393207777E0,1.131858787E1
1.027678104E1,9.895259421E0,6.844256553E-1,-7.404282988E0,1.237772209E1
1.028676704E1,1.132017793E1,9.417182006E-1,-6.266057557E0,1.297292329E1
1.029675204E1,1.247815233E1,1.097922035E0,-4.632717386E0,1.335559017E1
1.030673804E1,1.323202566E1,6.915073644E-1,-3.687311493E0,1.375357959E1
1.031672304E1,1.344345396E1,1.708255282E-1,-2.610476564E0,1.369562790E1
1.032670904E1,1.376921638E1,-1.936536428E-1,-9.744297177E-1,1.380501121E1
1.033669504E1,1.411770458E1,-2.545518091E-1,8.929318106E-1,1.414820506E1
1.034668004E1,1.447030923E1,7.217890710E-2,2.990533302E0,1.477627654E1
1.035666604E1,1.463037676E1,-4.290555283E-2,4.972430091E0,1.545234047E1
1.036665104E1,1.376598988E1,-6.485328144E-1,7.155512613E0,1.552818190E1
1.037663704E1,1.269591317E1,-1.307150029E0,9.682800840E0,1.602034595E1
1.038662304E1,1.143030907E1,-1.966737882E0,1.236120919E1,1.695050193E1
1.039660804E1,9.175128036E0,-2.813977795E0,1.512212759E1,1.791033747E1
1.040659404E1,6.161397659E0,-3.652629611E0,1.773254568E1,1.912453138E1
1.041657904E1,3.111524181E0,-4.616826116E0,1.942156889E1,2.020381163E1
1.042656504E1,3.821168585E-1,-5.307084954E0,2.074984579E1,2.142118727E1
1.043655004E1,-1.626852100E0,-5.234225138E0,2.270706791E1,2.335925285E1
1.044653604E1,-2.701303411E0,-5.000956317E0,2.471340197E1,2.535860487E1
1.045652204E1,-3.908991718E0,-5.287243597E0,2.544533537E1,2.628117679E1
1.046650704E1,-6.032291138E0,-6.063722845E0,2.555207278E1,2.694560622E1
1.047649304E1,-8.509337164E0,-7.531403210E0,2.484465792E1,2.732010030E1
1.048647804E1,-1.126954923E1,-9.253826296E0,2.383439705E1,2.794126919E1
1.049646404E1,-1.379806303E1,-1.081173329E1,2.216853233E1,2.826170458E1
1.050645004E1,-1.573906264E1,-1.228793188E1,1.943383869E1,2.786369410E1
1.051643504E1,-1.700816805E1,-1.351374568E1,1.678935121E1,2.745507998E1
1.052642104E1,-1.826172338E1,-1.450184443E1,1.411546276E1,2.725876596E1
1.053640604E1,-1.879506546E1,-1.563577625E1,1.091035477E1,2.677251998E1
1.054639204E1,-1.866869544E1,-1.625497768E1,7.729809178E0,2.593249773E1
1.055637704E1,-1.798717438E1,-1.653567911E1,5.659318301E0,2.507977292E1
1.056636304E1,-1.701060634E1,-1.673287646E1,3.540510712E0,2.412229464E1
1.057634904E1,-1.594362280E1,-1.686892714E1,1.049651223E0,2.323492153E1
1.058633404E1,-1.463176489E1,-1.700938895E1,-8.012398678E-1,2.245105435E1
1.059632004E1,-1.313095887E1,-1.684571252E1,-1.795379380E0,2.143416661E1
1.060630504E1,-1.153147057E1,-1.658662356E1,-2.822082036E0,2.039742733E1
1.061629104E1,-1.007560626E1,-1.667891835E1,-4.357642727E0,1.996730350E1
1.062627704E1,-9.285360330E0,-1.674767226E1,-5.428174358E0,1.990395738E1
1.063626204E1,-8.621279769E0,-1.673613921E1,-6.062605442E0,1.977827104E1
1.064624804E1,-7.761373032E0,-1.677289247E1,-6.723529676E0,1.966658802E1
1.065623304E1,-7.249987246E0,-1.680330266E1,-7.732929837E0,1.986734757E1
1.066621904E1,-6.568360360E0,-1.680243728E1,-8.718614860E0,2.003695339E1
1.067620404E1,-5.947847403E0,-1.662350312E1,-9.569910986E0,2.008235397E1
1.068619004E1,-4.848638104E0,-1.628448156E1,-1.006901762E1,1.975041131E1
1.069617604E1,-3.692982708E0,-1.574752590E1,-1.022290815E1,1.913453799E1
1.070616104E1,-2.786350578E0,-1.539352260E1,-1.070088529E1,1.895344912E1
1.071614704E1,-2.015560963E0,-1.514305361E1,-1.151355120E1,1.912946470E1
1.072613204E1,-1.150222163E0,-1.458080640E1,-1.194685560E1,1.888518692E1
1.073611804E1,-9.736021539E-2,-1.418440611E1,-1.188690761E1,1.850690218E1
1.074610404E1,3.711639272E-1,-1.415402749E1,-1.209258108E1,1.862001004E1
1.075608904E1,1.039701894E0,-1.416165226E1,-1.224591496E1,1.875088819E1
1.076607504E1,2.018731616E0,-1.367993290E1,-1.183762494E1,1.820289004E1
1.077606004E1,3.141059637E0,-1.280740203E1,-1.122992382E1,1.732070989E1
1.078604604E1,4.318962227E0,-1.186028173E1,-1.058083376E1,1.647039042E1
1.079603104E1,5.423815259E0,-1.096264291E1,-1.003191587E1,1.581886998E1
1.080601704E1,5.983692589E0,-1.029440206E1,-1.008801405E1,1.560600264E1
1.081600304E1,6.514362493E0,-1.006302773E1,-1.019477720E1,1.573642043E1
1.082598804E1,6.816744234E0,-1.007938590E1,-1.024385405E1,1.590592870E1
1.083597404E1,6.960184035E0,-9.825585169E0,-9.609820572E0,1.540567873E1
1.084595904E1,7.411506053E0,-9.066895489E0,-8.435281593E0,1.443235917E1
1.085594504E1,7.671017178E0,-8.322715675E0,-7.527212511E0,1.359305076E1
1.086593104E1,7.489509664E0,-7.943662904E0,-6.506670481E0,1.270949630E1
1.087591604E1,7.235774419E0,-7.801674381E0,-5.823988173E0,1.213018519E1
1.088590204E1,7.179652258E0,-8.006642679E0,-5.766064485E0,1.220250930E1
1.089588704E1,7.463895936E0,-8.234855998E0,-5.139350556E0,1.224481605E1
1.090587304E1,8.690089803E0,-7.552598197E0,-3.869907174E0,1.214642259E1
1.091585804E1,1.027528868E1,-6.393978263E0,-2.136876655E0,1.228945716E1
1.092584404E1,1.158792778E1,-5.270170312E0,-6.216935098E-1,1.274524492E1
1.093583004E1,1.213254446E1,-4.558911784E0,-2.147085893E-1,1.296257735E1
1.094581504E1,1.279344238E1,-4.072788600E0,5.008830178E-1,1.343542552E1
1.095580104E1,1.396908824E1,-3.174665632E0,2.015348125E0,1.446635947E1
1.096578604E1,1.465612088E1,-2.404136510E0,2.985416404E0,1.514907465E1
1.097577204E1,1.451423234E1,-1.793827967E0,3.724065921E0,1.509136926E1
1.098575804E1,1.389423219E1,-1.941674377E0,4.539140301E0,1.474529017E1
1.099574304E1,1.246011718E1,-2.214293790E0,5.491504966E0,1.379544287E1
1.100572904E1,1.134052507E1,-1.487170012E0,6.090138227E0,1.295796925E1
1.101571404E1,1.086955407E1,-3.135017928E-1,6.724606149E0,1.278537512E1
1.102570004E1,9.635820801E0,5.942965636E-1,8.199824744E0,1.266646584E1
1.103568504E1,7.604081177E0,7.520459269E-1,9.567290849E0,1.224420997E1
1.104567104E1,5.438537963E0,2.941326351E-1,1.082163731E1,1.211495122E1
1.105565704E1,2.713256582E0,-2.979036507E-1,1.192196518E1,1.223044405E1
1.106564204E1,3.414795868E-1,-8.766071885E-1,1.332428653E1,1.335745710E1
1.107562804E1,-1.984044178E0,-1.706306990E0,1.493808063E1,1.516555861E1
1.108561304E1,-4.306701200E0,-2.211373544E0,1.596792968E1,1.668570125E1
1.109559904E1,-6.665249308E0,-1.821035647E0,1.687686999E1,1.823651447E1
1.110558504E1,-8.747489580E0,-1.220727159E0,1.709893789E1,1.924532218E1
1.111557004E1,-1.007855911E1,-5.125325717E-1,1.666884360E1,1.948564575E1
1.112555604E1,-1.187594408E1,-2.521274073E-1,1.554795107E1,1.956630774E1
1.113554104E1,-1.409743112E1,-4.679963766E-1,1.468299234E1,2.036042359E1
1.114552704E1,-1.517283465E1,-8.443260996E-1,1.326268495E1,2.016994323E1
1.115551304E1,-1.482098078E1,-7.516616186E-1,1.092809990E1,1.842959126E1
1.116549804E1,-1.359956643E1,-3.638216516E-1,8.346432567E0,1.596068639E1
1.117548404E1,-1.209227703E1,3.766571671E-2,5.634959970E0,1.334081543E1
1.118546904E1,-9.892697171E0,5.703571491E-1,3.451740038E0,1.049310602E1
1.119545504E1,-7.823236574E0,1.051462545E0,1.593512446E0,8.052818506E0
1.120544004E1,-6.339340126E0,9.171015689E-1,-6.572217768E-1,6.438963347E0
1.121542604E1,-5.204543502E0,5.075639002E-1,-3.240435698E0,6.151854817E0
1.122541204E1,-3.959846414E0,3.736432198E-1,-4.890603570E0,6.303808068E0
1.123539704E1,-2.522732077E0,4.566495623E-1,-5.495274666E0,6.063888984E0
1.124538304E1,-1.130326427E0,6.333518346E-1,-5.693345003E0,5.838916826E0
1.125536817E1,-2.666406900E-1,5.747050656E-1,-6.105496523E0,6.138279154E0
1.126535417E1,3.269012357E-1,3.144539753E-1,-6.461472089E0,6.477373486E0
1.127534017E1,9.382867621E-1,2.422241244E-1,-6.490045677E0,6.561992645E0
1.128532517E1,1.851181113E0,2.160786650E-1,-6.449245561E0,6.713146044E0
1.129531117E1,2.775213387E0,1.408061423E-1,-6.597642632E0,7.158947130E0
1.130529617E1,3.546338047E0,6.571685672E-2,-6.266724139E0,7.200879369E0
1.131528217E1,4.414244360E0,-6.875887066E-3,-5.624947198E0,7.150218984E0
1.132526717E1,5.352931802E0,-1.574640557E-2,-5.005821201E0,7.328872541E0
1.133525317E1,6.098417299E0,-2.946085985E-1,-4.827924342E0,7.783722839E0
1.134523917E1,7.327237151E0,-4.044906445E-1,-4.133269275E0,8.422347170E0
1.135522417E1,9.083435508E0,2.030460253E-2,-2.772323400E0,9.497104292E0
1.136521017E1,1.116471684E1,2.102240673E-1,-1.477799556E0,1.126405734E1
1.137519517E1,1.310509430E1,4.472057243E-1,1.802012461E-1,1.311396058E1
1.138518117E1,1.469867340E1,7.484074970E-1,1.679194620E0,1.481319710E1
1.139516717E1,1.556295035E1,6.382120402E-1,3.018455511E0,1.586580637E1
1.140515217E1,1.539676663E1,3.893867017E-1,4.508300332E0,1.604795366E1
1.141513817E1,1.499979098E1,2.520502241E-1,5.983730596E0,1.615123186E1
1.142512317E1,1.443081129E1,2.801307464E-1,7.374446400E0,1.620830797E1
1.143510917E1,1.323356815E1,1.617912877E-1,9.013565374E0,1.601242840E1
1.144509417E1,1.149182762E1,-5.901691237E-1,1.079955705E1,1.578102766E1
1.145508017E1,9.762755082E0,-1.212573655E0,1.348095098E1,1.668885140E1
1.146506617E1,7.996211831E0,-1.659399310E0,1.615720639E1,1.810382081E1
1.147505117E1,6.043463413E0,-2.503948773E0,1.887187682E1,1.997350606E1
1.148503717E1,3.776486210E0,-3.652488400E0,2.148433559E1,2.211739577E1
1.149502217E1,1.639078335E0,-4.487053889E0,2.322138432E1,2.370765531E1
1.150500817E1,3.713732576E-1,-4.916093338E0,2.392916405E1,2.443175769E1
1.151499417E1,-8.536698040E-1,-4.800924239E0,2.427959470E1,2.476441690E1
1.152497917E1,-2.460915020E0,-4.801147018E0,2.406064454E1,2.465809666E1
1.153496517E1,-4.474223344E0,-5.623495334E0,2.339650141E1,2.447526614E1
1.154495017E1,-7.312569995E0,-7.065463738E0,2.211431695E1,2.434003845E1
1.155493617E1,-1.084473498E1,-8.305948200E0,2.038475500E1,2.453844511E1
1.156492217E1,-1.366441088E1,-9.754501153E0,1.829389944E1,2.483008607E1
1.157490717E1,-1.598187061E1,-1.088402943E1,1.656953917E1,2.546432628E1
1.158489317E1,-1.779196860E1,-1.191160157E1,1.502252846E1,2.615562578E1
1.159487817E1,-1.932676915E1,-1.315571248E1,1.319035255E1,2.684366177E1
1.160486417E1,-2.053315031E1,-1.407474509E1,1.167230544E1,2.749457083E1
1.161484917E1,-2.136146220E1,-1.511791760E1,9.898687059E0,2.797941217E1
1.162483517E1,-2.199411223E1,-1.609620472E1,7.980461186E0,2.839923485E1
1.163482117E1,-2.214165853E1,-1.697420274E1,6.035374374E0,2.854474286E1
1.164480617E1,-2.195035400E1,-1.785477003E1,3.884639234E0,2.856048452E1
1.165479217E1,-2.123517638E1,-1.849438643E1,2.365561259E0,2.825899725E1
1.166477717E1,-1.989395375E1,-1.875649021E1,1.129623007E0,2.736514880E1
1.167476317E1,-1.812745494E1,-1.878497200E1,2.751816630E-2,2.610518249E1
1.168474817E1,-1.631803873E1,-1.887165931E1,-1.472306682E0,2.499171062E1
1.169473417E1,-1.444288696E1,-1.849312694E1,-3.153459535E0,2.367566334E1
1.170472017E1,-1.233049142E1,-1.788877978E1,-3.876480614E0,2.206981112E1
1.171470517E1,-1.016835714E1,-1.753602311E1,-4.963579161E0,2.086970798E1
1.172469117E1,-8.330123513E0,-1.690578331E1,-6.181181129E0,1.983440110E1
1.173467617E1,-6.967463234E0,-1.645960918E1,-6.914513188E0,1.916441418E1
1.174466217E1,-6.011419501E0,-1.650701138E1,-7.754489105E0,1.920288235E1
1.175464817E1,-5.176554635E0,-1.639186567E1,-8.605714481E0,1.922363909E1
1.176463317E1,-4.366827826E0,-1.607718841E1,-9.530429417E0,1.919307837E1
1.177461917E1,-3.587080861E0,-1.567951459E1,-9.897155088E0,1.888565609E1
1.178460417E1,-2.903822603E0,-1.528892761E1,-1.018401949E1,1.859832643E1
1.179459017E1,-2.268574662E0,-1.494313730E1,-1.080650354E1,1.858021265E1
1.180457617E1,-1.674923229E0,-1.482249287E1,-1.128973615E1,1.870747993E1
1.181456117E1,-1.118130597E0,-1.469243443E1,-1.130846596E1,1.857415537E1
1.182454717E1,-6.476732737E-1,-1.457243202E1,-1.151981240E1,1.858712816E1
1.183453217E1,-2.916045915E-1,-1.457553455E1,-1.183391196E1,1.877691969E1
1.184451817E1,1.510449824E-1,-1.438829969E1,-1.170870670E1,1.855100523E1
1.185450317E1,7.269926544E-1,-1.398109725E1,-1.186216453E1,1.834967428E1
1.186448917E1,1.037133943E0,-1.390470689E1,-1.239303792E1,1.865486289E1
1.187447517E1,1.043867450E0,-1.398800398E1,-1.278501421E1,1.897921239E1
1.188446017E1,1.364525979E0,-1.385266199E1,-1.273154844E1,1.886400013E1
1.189444617E1,2.015979770E0,-1.344652609E1,-1.243732707E1,1.842716318E1
1.190443117E1,2.951297608E0,-1.297673505E1,-1.207211466E1,1.796779793E1
1.191441717E1,3.860608932E0,-1.248924918E1,-1.167235807E1,1.752511310E1
1.192440317E1,4.745630044E0,-1.201739174E1,-1.081212505E1,1.684757421E1
1.193438817E1,5.453265345E0,-1.178510876E1,-1.019289907E1,1.650824287E1
1.194437417E1,6.035058625E0,-1.154051622E1,-9.649041356E0,1.620831411E1
1.195435917E1,6.166965963E0,-1.152515324E1,-8.745329618E0,1.572709180E1
1.196434517E1,6.576597918E0,-1.173551033E1,-7.680881431E0,1.549095809E1
1.197433117E1,8.418759116E0,-1.134011226E1,-5.884088194E0,1.530020081E1
1.198431617E1,1.172074611E1,-9.868079224E0,-2.976253817E0,1.560810571E1
1.199430217E1,1.522641151E1,-7.895542073E0,-4.065101266E-2,1.715181753E1
1.200428717E1,1.740148101E1,-5.991284614E0,2.457378917E0,1.856733001E1
1.201427317E1,1.899392342E1,-4.667658008E0,4.271989204E0,2.002014110E1
1.202425817E1,1.960500891E1,-3.416425779E0,5.413608944E0,2.062366362E1
1.203424417E1,1.980419431E1,-2.692681984E0,6.340484426E0,2.096803260E1
1.204423017E1,1.933848931E1,-1.927120072E0,7.467451628E0,2.081955318E1
1.205421517E1,1.852187068E1,-1.124540242E0,8.689645414E0,2.048985656E1
1.206420117E1,1.713078650E1,-1.779410049E-2,9.552324901E0,1.961405297E1
1.207418617E1,1.522310433E1,9.936935158E-1,1.030314247E1,1.840883150E1
1.208417217E1,1.189465634E1,9.582314685E-1,1.133960004E1,1.646170058E1
1.209415817E1,7.387668709E0,2.103084864E-1,1.234169820E1,1.438538818E1
1.210414317E1,3.690815145E0,-6.905726869E-1,1.354899269E1,1.405966607E1
1.211412917E1,1.924305515E-1,-1.038219186E0,1.536177222E1,1.539801852E1
1.212411417E1,-2.520047035E0,-1.288929521E0,1.712305181E1,1.735542796E1
1.213410017E1,-4.719538599E0,-1.331334698E0,1.777237107E1,1.843647662E1
1.214408517E1,-7.018970772E0,-1.036126102E0,1.825877755E1,1.958883523E1
1.215407117E1,-9.387766711E0,-1.033466496E0,1.874288023E1,2.098794359E1
1.216405717E1,-1.114368674E1,-1.051808700E0,1.788231159E1,2.109656663E1
1.217404217E1,-1.242014561E1,-8.649291294E-1,1.525157910E1,1.968803658E1
1.218402817E1,-1.351140679E1,-9.026745875E-1,1.171681211E1,1.790688753E1
1.219401317E1,-1.393161811E1,-5.717031781E-1,8.538011325E0,1.634975428E1
1.220399917E1,-1.330081347E1,1.731941622E-1,6.155363333E0,1.465708474E1
1.221398517E1,-1.177399554E1,1.227064371E0,4.396926661E0,1.262796983E1
1.222397017E1,-1.000807209E1,2.211281451E0,4.030317349E0,1.101338870E1
1.223395617E1,-8.337137833E0,2.537913203E0,4.340722055E0,9.736053545E0
1.224394117E1,-6.943852177E0,2.409638447E0,4.119858102E0,8.425952248E0
1.225392704E1,-5.765421292E0,1.787197079E0,3.739777390E0,7.100710598E0
1.226391204E1,-4.718976389E0,1.365236854E0,3.308710127E0,5.922851723E0
1.227389804E1,-3.516464623E0,1.291651984E0,2.363501285E0,4.429449922E0
1.228388404E1,-2.466777731E0,1.357063616E0,1.098391859E0,3.022098395E0
1.229386904E1,-1.567073529E0,1.342354068E0,1.336071235E-1,2.067724535E0
1.230385504E1,-1.121100106E0,1.461046553E0,-4.223660213E-1,1.889422010E0
1.231384004E1,-9.837735683E-1,1.317770912E0,-9.334728956E-1,1.890952738E0
1.232382604E1,-1.067985022E0,8.605971466E-1,-1.168757837E0,1.802002868E0
1.233381204E1,-1.261315606E0,4.321096022E-1,-9.538399172E-1,1.639343269E0
1.234379704E1,-9.385750298E-1,6.182209946E-2,-8.429141432E-1,1.263031794E0
1.235378304E1,-4.528924339E-1,1.311969012E-4,-3.757613736E-1,5.884795526E-1
1.236376804E1,2.395589635E-1,8.061877817E-2,-2.346668905E-1,3.449006145E-1
1.237375404E1,5.003530408E-1,-1.270409927E-2,-8.461529160E-1,9.831018852E-1
1.238373904E1,1.591050768E-1,-1.166026164E-1,-1.185742244E0,1.202037963E0
1.239372504E1,1.709730973E-1,4.929129705E-3,-1.035100427E0,1.049137260E0
1.240371104E1,4.273083072E-1,2.905164977E-1,-9.863837653E-1,1.113528247E0
1.241369604E1,3.351192049E-1,1.902131411E-1,-1.304774013E0,1.360485629E0
1.242368204E1,1.283117388E-1,-2.502120057E-1,-2.090120564E0,2.108950906E0
1.243366704E1,7.739842415E-2,-5.703961793E-1,-2.875170076E0,2.932225313E0
1.244365304E1,4.210377531E-1,-1.001762308E0,-3.787908745E0,3.940691966E0
1.245363904E1,1.815734122E0,-9.228696278E-1,-4.304231921E0,4.761826454E0
1.246362404E1,3.544624813E0,-1.599900529E-1,-4.254839906E0,5.540182714E0
1.247361004E1,5.148316677E0,2.585257231E-1,-4.116003032E0,6.596474901E0
1.248359504E1,6.849686278E0,5.955481967E-1,-3.777569114E0,7.844928818E0
1.249358104E1,8.840087256E0,1.084161344E0,-3.494615332E0,9.567386521E0
1.250356604E1,1.120462408E1,1.091111052E0,-3.544000915E0,1.180229074E1
1.251355204E1,1.355766762E1,9.777490358E-1,-3.083878253E0,1.393831588E1
1.252353804E1,1.578920134E1,1.020718177E0,-1.606997294E0,1.590355888E1
1.253352304E1,1.724519546E1,8.338677697E-1,2.032340133E-1,1.726654007E1
1.254350904E1,1.758043622E1,2.858358747E-1,1.857524757E0,1.768060627E1
1.255349404E1,1.746141380E1,-5.615491958E-1,3.446988591E0,1.780724684E1
1.256348004E1,1.663343169E1,-6.435008468E-1,5.218407835E0,1.744468181E1
1.257346604E1,1.505586578E1,-7.789703085E-1,7.340410343E0,1.676805036E1
1.258345104E1,1.210012282E1,-1.211468385E0,1.080005289E1,1.626412526E1
1.259343704E1,8.441488997E0,-1.776652356E0,1.518931561E1,1.746798611E1
1.260342204E1,5.756609538E0,-2.153245204E0,1.994497421E1,2.087048190E1
1.261340804E1,4.032114199E0,-2.340428610E0,2.511254928E1,2.554164604E1
1.262339404E1,1.983987460E0,-2.532351916E0,2.875538802E1,2.893477756E1
1.263337904E1,-3.393485691E-1,-2.771829895E0,3.003236846E1,3.016191894E1
1.264336504E1,-3.099835305E0,-3.068521126E0,2.948582688E1,2.980669031E1
1.265335004E1,-5.950495023E0,-4.019592679E0,2.794032592E1,2.884835054E1
1.266333604E1,-8.827647305E0,-5.073672876E0,2.650790309E1,2.839609903E1
1.267332104E1,-1.160967241E1,-5.919703000E0,2.448132364E1,2.773378056E1
1.268330704E1,-1.406966854E1,-7.319567358E0,2.203730444E1,2.715095626E1
1.269329304E1,-1.646694158E1,-8.617696010E0,2.062655374E1,2.776471806E1
1.270327804E1,-1.822402053E1,-9.978631361E0,1.911880474E1,2.823502617E1
1.271326404E1,-1.984307362E1,-1.165897847E1,1.716100257E1,2.870852415E1
1.272324904E1,-2.127763418E1,-1.339544364E1,1.458922639E1,2.906924756E1
1.273323504E1,-2.224035485E1,-1.504286741E1,1.111790754E1,2.906078306E1
1.274322104E1,-2.301830584E1,-1.666893716E1,7.386392847E0,2.936417322E1
1.275320604E1,-2.351363985E1,-1.788702444E1,4.210511579E0,2.984234090E1
1.276319204E1,-2.344402056E1,-1.861301357E1,1.779129968E0,2.998719190E1
1.277317704E1,-2.297534752E1,-1.948068190E1,-8.295690429E-1,3.013389696E1
1.278316304E1,-2.243520746E1,-2.011447330E1,-3.368856341E0,3.031962670E1
1.279314804E1,-2.098309824E1,-2.021022730E1,-4.712682738E0,2.951191417E1
1.280313404E1,-1.900917880E1,-2.010262216E1,-5.545822091E0,2.821737832E1
1.281312004E1,-1.693458201E1,-2.024656424E1,-6.663328498E0,2.722321396E1
1.282310504E1,-1.528344058E1,-2.070021462E1,-8.218577349E0,2.701161703E1
1.283309104E1,-1.348886694E1,-2.114802948E1,-9.148907366E0,2.670002225E1
1.284307604E1,-1.129992668E1,-2.086530725E1,-9.309918051E0,2.548968347E1
1.285306204E1,-8.707785816E0,-2.021358828E1,-9.278102181E0,2.388509714E1
1.286304804E1,-5.987018486E0,-1.945868468E1,-1.000011637E1,2.268230868E1
1.287303304E1,-4.061259938E0,-1.886141382E1,-1.123563538E1,2.232680599E1
1.288301904E1,-3.644721836E0,-1.833566610E1,-1.136482142E1,2.187783843E1
1.289300404E1,-3.065105767E0,-1.794051010E1,-1.084540507E1,2.118677859E1
1.290299004E1,-1.944140878E0,-1.737422246E1,-1.090928824E1,2.060717981E1
1.291297504E1,-2.378565466E-1,-1.656262425E1,-1.061136441E1,1.967176028E1
1.292296104E1,1.057548765E0,-1.547294884E1,-1.049855174E1,1.872832464E1
1.293294704E1,1.346267025E0,-1.496325640E1,-1.120281262E1,1.874071737E1
1.294293204E1,1.157575914E0,-1.527265597E1,-1.248320199E1,1.975915824E1
1.295291804E1,1.301518722E0,-1.499821574E1,-1.277373961E1,1.974357743E1
1.296290304E1,1.880367929E0,-1.458802654E1,-1.264849809E1,1.939924756E1
1.297288904E1,2.497094960E0,-1.456386351E1,-1.273255767E1,1.950537434E1
1.298287504E1,3.089457666E0,-1.398367354E1,-1.215715656E1,1.878521573E1
1.299286004E1,4.825795079E0,-1.305615895E1,-1.133393643E1,1.795020055E1
1.300284604E1,6.991650826E0,-1.197249798E1,-1.052269490E1,1.740548756E1
1.301283104E1,8.665540853E0,-1.104656683E1,-9.561648286E0,1.698656395E1
1.302281704E1,9.630405110E0,-1.038594606E1,-8.907587514E0,1.673193634E1
1.303280304E1,9.144351216E0,-1.026198977E1,-9.191249979E0,1.653501344E1
1.304278804E1,8.041256441E0,-1.107060824E1,-9.594492681E0,1.671150687E1
1.305277404E1,7.104229608E0,-1.169725785E1,-9.329188719E0,1.656290076E1
1.306275904E1,7.322199190E0,-1.152269507E1,-7.791031280E0,1.571900986E1
1.307274504E1,8.884350094E0,-1.076039240E1,-5.268558819E0,1.491561039E1
1.308273004E1,1.091057930E1,-9.757286181E0,-2.998815299E0,1.494116018E1
1.309271604E1,1.281255810E1,-8.633646630E0,-1.096683303E0,1.548884158E1
1.310270204E1,1.416382274E1,-7.426735711E0,4.567570049E-1,1.599934077E1
1.311268704E1,1.486702293E1,-6.442034190E0,1.681863289E0,1.628977714E1
1.312267304E1,1.560400131E1,-5.211906901E0,3.225403091E0,1.676460723E1
1.313265804E1,1.708171316E1,-4.281842932E0,5.360517395E0,1.840799419E1
1.314264404E1,1.716130780E1,-3.222848443E0,7.030473999E0,1.882351726E1
1.315263004E1,1.634447750E1,-1.902506803E0,8.010573177E0,1.830111361E1
1.316261504E1,1.419815174E1,-1.547118005E0,8.969391414E0,1.686508433E1
1.317260104E1,1.070366271E1,-1.371693788E0,1.052117345E1,1.507133140E1
1.318258604E1,8.648982707E0,-1.374416252E0,1.303641524E1,1.570484143E1
1.319257204E1,8.160678805E0,-1.172843725E0,1.695180089E1,1.885035263E1
1.320255704E1,8.395221149E0,-9.169685447E-1,1.974147707E1,2.147199307E1
1.321254304E1,7.219726735E0,-8.474289246E-1,2.064742596E1,2.188969594E1
1.322252904E1,3.815419895E0,1.227897745E-1,2.021547109E1,2.057274356E1
1.323251404E1,-1.054808468E-2,8.149394555E-1,1.866320958E1,1.868099648E1
1.324250004E1,-3.931537119E0,9.607326150E-1,1.723818465E1,1.770691959E1
1.325248554E1,-6.991478918E0,2.072396484E-1,1.645163474E1,1.787680093E1
1.326247154E1,-9.265446467E0,-1.171778216E0,1.552192395E1,1.811495751E1
1.327245754E1,-1.047888873E1,-1.847799668E0,1.341459795E1,1.712229280E1
1.328244254E1,-1.152294416E1,-1.220237747E0,1.298161865E1,1.740085185E1
1.329242854E1,-1.302679774E1,-5.632960515E-1,1.228073630E1,1.791176278E1
1.330241354E1,-1.377947356E1,-1.684293392E-1,9.774473487E0,1.689504638E1
1.331239954E1,-1.370013620E1,-1.219729185E-3,7.933928459E0,1.583164408E1
1.332238554E1,-1.299238922E1,1.218942735E-1,6.995279608E0,1.475638752E1
1.333237054E1,-1.198103024E1,3.140861124E-2,6.055833782E0,1.342457429E1
1.334235654E1,-1.020029814E1,1.653928801E-2,5.406346117E0,1.154447634E1
1.335234154E1,-8.575207803E0,1.316040136E-2,4.830801172E0,9.842306743E0
1.336232754E1,-6.694768977E0,1.222192325E-1,4.505198969E0,8.070420493E0
1.337231254E1,-5.210519357E0,1.900334124E-1,3.186079981E0,6.110378901E0
1.338229854E1,-4.483192680E0,-2.872034653E-1,1.040310881E0,4.611263294E0
1.339228454E1,-3.845027856E0,-5.307637516E-1,-1.099171878E0,4.034120498E0
1.340226954E1,-3.155712174E0,-5.214345190E-1,-2.560622034E0,4.097218384E0
1.341225554E1,-2.118094082E0,-5.123025569E-1,-3.651200259E0,4.252063003E0
1.342224054E1,-9.206496593E-1,-1.856330171E-1,-4.572612103E0,4.668065644E0
1.343222654E1,4.312442873E-1,3.861906867E-1,-4.744507964E0,4.779693578E0
1.344221154E1,1.800400238E0,8.139932299E-1,-4.581370647E0,4.989286823E0
1.345219754E1,2.949348731E0,7.189794838E-1,-5.138064753E0,5.967855465E0
1.346218354E1,3.784608285E0,4.873141153E-1,-5.612049410E0,6.786444835E0
1.347216854E1,4.441253234E0,2.000971283E-1,-6.239282572E0,7.661162846E0
1.348215454E1,5.723562244E0,3.700442585E-1,-5.924491285E0,8.245950188E0
1.349213954E1,7.326640735E0,7.719460483E-1,-5.406084162E0,9.137905182E0
1.350212554E1,8.942777227E0,1.230691691E0,-5.171553512E0,1.040350096E1
1.351211154E1,1.031601453E1,1.507755573E0,-5.029068561E0,1.157518956E1
1.352209654E1,1.152211152E1,1.670762789E0,-4.039855912E0,1.232359274E1
1.353208254E1,1.276902558E1,1.809332298E0,-2.629864177E0,1.316198630E1
1.354206754E1,1.338273881E1,1.620189051E0,-1.146453048E0,1.352911916E1
1.355205354E1,1.364394680E1,1.344496196E0,7.718383133E-1,1.373174019E1
1.356203954E1,1.345742997E1,7.590111302E-1,2.464081580E0,1.370219754E1
1.357202454E1,1.322447924E1,2.340380225E-1,4.444421255E0,1.395329729E1
1.358201054E1,1.279430660E1,-3.255979644E-1,6.669570401E0,1.443202913E1
1.359199554E1,1.165417907E1,-1.074806676E0,9.103960989E0,1.482758257E1
1.360198154E1,1.021874493E1,-2.067805835E0,1.141867895E1,1.546236715E1
1.361196654E1,8.232023606E0,-2.729907113E0,1.387011944E1,1.635844793E1
1.362195254E1,6.439847916E0,-3.095963278E0,1.661835523E1,1.808939912E1
1.363193854E1,4.668394173E0,-3.542940230E0,1.904960060E1,1.993072033E1
1.364192354E1,2.549921629E0,-4.373790398E0,2.022205739E1,2.084619265E1
1.365190954E1,3.826526827E-1,-5.218049401E0,2.042889212E1,2.108824544E1
1.366189454E1,-2.632850350E0,-5.756297296E0,1.997921083E1,2.095795135E1
1.367188054E1,-5.772233298E0,-6.401870250E0,1.899950517E1,2.086345649E1
1.368186654E1,-8.666726668E0,-6.556026244E0,1.800156789E1,2.102736497E1
1.369185154E1,-1.059177624E1,-5.954831902E0,1.756468733E1,2.135799587E1
1.370183754E1,-1.173691016E1,-5.762748529E0,1.741244922E1,2.177516288E1
1.371182254E1,-1.263504014E1,-5.876789700E0,1.706930888E1,2.203502217E1
1.372180854E1,-1.347254269E1,-6.526253976E0,1.503980347E1,2.122020466E1
1.373179454E1,-1.415542731E1,-7.444415352E0,1.299798851E1,2.060929760E1
1.374177954E1,-1.416973662E1,-7.708312474E0,1.241808739E1,2.035702364E1
1.375176554E1,-1.458372182E1,-8.402608522E0,1.154378130E1,2.040949923E1
1.376175054E1,-1.556058340E1,-9.797040231E0,1.066203054E1,2.125541456E1
1.377173654E1,-1.684520381E1,-1.156969850E1,9.349984927E0,2.247311801E1
1.378172154E1,-1.765666403E1,-1.247639115E1,8.353360932E0,2.317750546E1
1.379170754E1,-1.705535391E1,-1.289356426E1,7.495868511E0,2.265650328E1
1.380169354E1,-1.689451104E1,-1.348165733E1,6.307316095E0,2.251581275E1
1.381167854E1,-1.648833304E1,-1.436814200E1,4.744064745E0,2.237889142E1
1.382166454E1,-1.669919065E1,-1.578164908E1,2.142247322E0,2.307623539E1
1.383164954E1,-1.796402994E1,-1.749064754E1,-7.801343429E-1,2.508461147E1
1.384163554E1,-1.818306430E1,-1.847440649E1,-3.052181082E0,2.610063853E1
1.385162154E1,-1.764630861E1,-1.888086633E1,-4.732208930E0,2.627304935E1
1.386160654E1,-1.677054422E1,-1.951470100E1,-6.208322150E0,2.646918912E1
1.387159254E1,-1.560874574E1,-2.019126829E1,-7.869012671E0,2.670658382E1
1.388157754E1,-1.421712830E1,-2.054710645E1,-9.027159566E0,2.656689538E1
1.389156354E1,-1.217977710E1,-2.052543199E1,-9.808378567E0,2.580396517E1
1.390154854E1,-9.495654271E0,-2.038266871E1,-1.019582268E1,2.468958148E1
1.391153454E1,-7.030183977E0,-2.017170117E1,-1.107462060E1,2.406175879E1
1.392152054E1,-4.985261806E0,-1.979886867E1,-1.204117587E1,2.370312115E1
1.393150554E1,-3.347495001E0,-1.930352296E1,-1.288917534E1,2.345128061E1
1.394149154E1,-2.099587499E0,-1.885698397E1,-1.407706760E1,2.362536654E1
1.395147654E1,-7.803186764E-1,-1.788345881E1,-1.468047219E1,2.315044838E1
1.396146254E1,5.220610482E-1,-1.662840075E1,-1.436900154E1,2.198282203E1
1.397144854E1,1.598048862E0,-1.575886482E1,-1.376292828E1,2.098365496E1
1.398143354E1,2.844477164E0,-1.454841516E1,-1.324654897E1,1.988010296E1
1.399141954E1,4.245339350E0,-1.318093620E1,-1.275043611E1,1.882375112E1
1.400140454E1,5.482828867E0,-1.274527887E1,-1.249816501E1,1.867371614E1
1.401139054E1,6.204647174E0,-1.190268574E1,-1.156300227E1,1.771650631E1
1.402137554E1,6.762081538E0,-1.092223865E1,-1.011845466E1,1.635249732E1
1.403136154E1,7.195641469E0,-1.017556324E1,-9.115928485E0,1.544083857E1
1.404134754E1,7.541927029E0,-9.665423500E0,-8.277389229E0,1.479243885E1
1.405133254E1,7.220838291E0,-9.405103705E0,-8.228059779E0,1.443251361E1
1.406131854E1,6.603481661E0,-9.472930237E0,-8.328651769E0,1.423758468E1
1.407130354E1,6.060122715E0,-9.702450408E0,-8.311082055E0,1.413989803E1
1.408128954E1,5.849924083E0,-9.353556991E0,-7.886239153E0,1.356109908E1
1.409127554E1,5.987513745E0,-8.605351369E0,-7.454722239E0,1.286371940E1
1.410126054E1,5.929017030E0,-8.301764517E0,-7.116289490E0,1.243841281E1
1.411124654E1,5.485324459E0,-8.445172743E0,-6.274517893E0,1.186504538E1
1.412123154E1,5.811748781E0,-8.589661535E0,-5.175017402E0,1.159049241E1
1.413121754E1,6.868721303E0,-8.648803782E0,-4.451727351E0,1.190793918E1
1.414120254E1,7.934321977E0,-8.768202757E0,-3.715751181E0,1.239522697E1
1.415118854E1,8.479599395E0,-9.223624842E0,-3.274962922E0,1.295006731E1
1.416117454E1,9.024473355E0,-9.342715083E0,-2.308246851E0,1.319300754E1
1.417115954E1,1.009497341E1,-8.476879855E0,-6.087004119E-1,1.319607883E1
1.418114554E1,1.163035050E1,-6.969506836E0,1.224153188E0,1.361387635E1
1.419113054E1,1.243369244E1,-4.900353218E0,2.485719202E0,1.359371065E1
1.420111654E1,1.306564781E1,-2.993532924E0,3.108996137E0,1.376002359E1
1.421110254E1,1.317739746E1,-1.607026969E0,3.394173031E0,1.370207101E1
1.422108754E1,1.298735126E1,-4.635470109E-1,3.276719425E0,1.340235273E1
1.423107354E1,1.257725094E1,-2.407766461E-1,3.193422915E0,1.297856558E1
1.424105854E1,1.193578098E1,-9.164184679E-1,4.693353598E0,1.285808144E1
1.425104429E1,1.159858608E1,-1.892344342E0,7.641957101E0,1.401811951E1
1.426103029E1,1.026197340E1,-2.723647961E0,1.061914940E1,1.501641402E1
1.427101529E1,8.334267434E0,-3.080843256E0,1.334994763E1,1.603660533E1
1.428100129E1,6.000852413E0,-3.524333513E0,1.531032841E1,1.681776776E1
1.429098629E1,3.268676873E0,-3.454089450E0,1.763869904E1,1.826851626E1
1.430097229E1,1.216766109E0,-3.555000990E0,2.052252241E1,2.086366406E1
1.431095729E1,3.148860115E-1,-3.229702549E0,2.179102673E1,2.203131811E1
1.432094329E1,2.143063009E-1,-2.511052848E0,2.093217600E1,2.108334190E1
1.433092929E1,7.468356192E-2,-1.747295094E0,1.989099973E1,1.996773618E1
1.434091429E1,-4.258585632E-2,-3.050942641E-1,1.842424908E1,1.842682420E1
1.435090029E1,-1.253106554E0,4.230521920E-1,1.548334870E1,1.553973410E1
1.436088529E1,-3.628750167E0,2.957328719E-1,1.247860841E1,1.299888278E1
1.437087129E1,-6.655661044E0,8.245334208E-2,1.069574792E1,1.259776354E1
1.438085729E1,-9.875470104E0,-8.530114076E-1,1.012133149E1,1.416664708E1
1.439084229E1,-1.245982014E1,-1.926623936E0,9.676333235E0,1.589309355E1
1.440082829E1,-1.427005963E1,-3.058538175E0,9.042867526E0,1.716865489E1
1.441081329E1,-1.487443369E1,-3.879812942E0,8.846805122E0,1.773605613E1
1.442079929E1,-1.379242631E1,-3.773801753E0,8.701198928E0,1.673868173E1
1.443078429E1,-1.256109041E1,-2.921194096E0,8.308625055E0,1.534104356E1
1.444077029E1,-1.139153969E1,-2.668326869E0,6.610177308E0,1.343806492E1
1.445075629E1,-1.028685447E1,-2.282518371E0,3.934385591E0,1.124760663E1
1.446074129E1,-9.245508631E0,-1.545387083E0,1.935973341E0,9.571606128E0
1.447072729E1,-7.190564332E0,-6.347548740E-1,9.270193237E-1,7.277808323E0
1.448071229E1,-4.683068638E0,2.456019147E-1,-3.335263503E-1,4.701350018E0
1.449069829E1,-2.544079092E0,8.170937160E-1,-1.667497265E0,3.149686920E0
1.450068429E1,-1.407143118E0,9.731556094E-1,-3.178674483E0,3.609855269E0
1.451066929E1,-8.503116019E-1,9.572728175E-1,-4.353277196E0,4.537667178E0
1.452065529E1,-3.770522927E-1,8.695330077E-1,-4.993284770E0,5.082435330E0
1.453064029E1,3.631068295E-1,8.778949647E-1,-5.044479482E0,5.133158812E0
1.454062629E1,9.654239823E-1,6.334831776E-1,-5.671933084E0,5.788278614E0
1.455061129E1,1.328253215E0,3.069240772E-1,-6.265699123E0,6.412288553E0
1.456059729E1,1.824001793E0,1.914671496E-1,-6.660718301E0,6.908604092E0
1.457058329E1,2.767508803E0,3.603310832E-1,-6.831679777E0,7.379755554E0
1.458056829E1,3.409297439E0,3.686711861E-1,-6.909522005E0,7.713671098E0
1.459055429E1,3.949639807E0,4.036173628E-1,-6.722202943E0,7.807084858E0
1.460053929E1,4.663382524E0,3.466181199E-1,-6.589149551E0,8.079862158E0
1.461052529E1,5.665147390E0,1.503974032E-1,-6.495627429E0,8.620306841E0
1.462051129E1,6.681516262E0,4.368717939E-1,-5.805550733E0,8.862163158E0
1.463049629E1,8.181859758E0,8.934352559E-1,-4.454610613E0,9.358665042E0
1.464048229E1,9.971104825E0,1.159073678E0,-3.288522030E0,1.056317946E1
1.465046729E1,1.141545480E1,1.465100866E0,-2.243280777E0,1.172567429E1
1.466045329E1,1.304574857E1,2.048448920E0,-6.228535974E-1,1.322027403E1
1.467043929E1,1.501611290E1,2.734938058E0,1.357910001E0,1.532342821E1
1.468042429E1,1.618862815E1,2.886805451E0,3.368235367E0,1.678542036E1
1.469041029E1,1.607094124E1,2.546356582E0,5.503499944E0,1.717694955E1
1.470039529E1,1.489453525E1,1.780731082E0,7.622274204E0,1.682608830E1
1.471038129E1,1.330724775E1,7.759394042E-1,9.455911916E0,1.634316967E1
1.472036629E1,1.130081078E1,-3.444034870E-1,1.121002106E1,1.592141672E1
1.473035229E1,8.431869158E0,-1.488323521E0,1.260949950E1,1.524175194E1
1.474033829E1,5.746873924E0,-2.102801421E0,1.508850610E1,1.628224033E1
1.475032329E1,3.557372328E0,-2.700425452E0,1.742402905E1,1.798732842E1
1.476030929E1,1.636682000E0,-3.345661021E0,1.955411240E1,1.990566471E1
1.477029429E1,1.359243751E-2,-3.725758398E0,2.178343705E1,2.209976448E1
1.478028029E1,-1.593464352E0,-3.874381464E0,2.295520503E1,2.333433947E1
1.479026629E1,-3.639561376E0,-4.310529372E0,2.290695381E1,2.359143072E1
1.480025129E1,-5.587454267E0,-4.887029752E0,2.305622153E1,2.422172694E1
1.481023729E1,-6.881537231E0,-5.415882341E0,2.329984928E1,2.489116937E1
1.482022229E1,-7.586241907E0,-6.369752664E0,2.281040458E1,2.486844130E1
1.483020829E1,-8.852778638E0,-7.328452787E0,2.210548531E1,2.491446148E1
1.484019329E1,-1.047404489E1,-8.389880303E0,2.071509929E1,2.468220101E1
1.485017929E1,-1.164914696E1,-9.722509866E0,1.862133533E1,2.402049026E1
1.486016529E1,-1.354905117E1,-1.095526489E1,1.646730762E1,2.397429533E1
1.487015029E1,-1.525391331E1,-1.239948623E1,1.400283252E1,2.413521180E1
1.488013629E1,-1.643588234E1,-1.369054677E1,1.230281304E1,2.467647682E1
1.489012129E1,-1.760052608E1,-1.500723214E1,1.118229941E1,2.569123109E1
1.490010729E1,-1.848643772E1,-1.678346657E1,9.244614592E0,2.662510148E1
1.491009329E1,-1.962451405E1,-1.869955470E1,6.449988157E0,2.786390577E1
1.492007829E1,-1.970841224E1,-1.974945502E1,3.995120035E0,2.818551881E1
1.493006429E1,-1.895011959E1,-1.999628704E1,1.601109733E0,2.759568952E1
1.494004929E1,-1.814021824E1,-2.018982988E1,-4.937049758E-1,2.714664791E1
1.495003529E1,-1.717079549E1,-2.034155109E1,-2.379532596E0,2.672596292E1
1.496002029E1,-1.651092083E1,-2.094069423E1,-4.671180956E0,2.707292214E1
1.497000629E1,-1.601021089E1,-2.162721348E1,-7.114553452E0,2.783307540E1
1.497999229E1,-1.464673493E1,-2.159914918E1,-8.710200716E0,2.751213707E1
1.498997729E1,-1.237277849E1,-2.079573006E1,-9.413409090E0,2.596459718E1
1.499996329E1,-9.983175817E0,-1.995650258E1,-9.988747044E0,2.444792143E1
1.500994829E1,-7.786910747E0,-1.934485576E1,-1.105669420E1,2.360317585E1
1.501993429E1,-6.080105574E0,-1.855171838E1,-1.155428524E1,2.268557793E1
1.502992029E1,-4.570551251E0,-1.767156039E1,-1.148181251E1,2.156399787E1
1.503990529E1,-3.125770337E0,-1.666428628E1,-1.177140171E1,2.064060987E1
1.504989129E1,-1.923375077E0,-1.546854238E1,-1.158195426E1,1.941949638E1
1.505987629E1,-1.432531728E0,-1.500152409E1,-1.149016350E1,1.895050737E1
1.506986229E1,-1.417200183E0,-1.481038095E1,-1.150597554E1,1.880806512E1
1.507984729E1,-8.735678789E-1,-1.432124850E1,-1.070562036E1,1.790172022E1
1.508983329E1,-1.455295962E-1,-1.420101571E1,-1.006083853E1,1.740432412E1
1.509981929E1,8.344583385E-1,-1.399555625E1,-9.537571206E0,1.695692130E1
1.510980429E1,1.901595368E0,-1.310210988E1,-9.033539463E0,1.602766931E1
1.511979029E1,2.480798185E0,-1.230142375E1,-8.871624214E0,1.536831487E1
1.512977529E1,2.757590171E0,-1.193712584E1,-9.038084503E0,1.522452785E1
1.513976129E1,2.198120976E0,-1.165947080E1,-9.614004255E0,1.527102069E1
1.514974729E1,1.743520424E0,-1.175923015E1,-1.036197482E1,1.576990423E1
1.515973229E1,1.662344699E0,-1.186518170E1,-1.003611651E1,1.562912541E1
1.516971829E1,2.165782658E0,-1.194031608E1,-9.091125181E0,1.516279393E1
1.517970329E1,2.762286070E0,-1.160067237E1,-8.758679981E0,1.479595549E1
1.518968929E1,3.869084179E0,-1.078583948E1,-8.690669847E0,1.438165109E1
1.519967529E1,5.172665652E0,-1.037973749E1,-8.623429205E0,1.445195321E1
1.520966029E1,6.725677359E0,-9.930576603E0,-7.888279831E0,1.435534905E1
1.521964629E1,8.790969476E0,-8.964746386E0,-7.119715374E0,1.443392424E1
1.522963129E1,1.125093871E1,-7.887663535E0,-6.215504285E0,1.508082728E1
1.523961729E1,1.344784639E1,-6.591654498E0,-4.896280047E0,1.575652372E1
1.524960229E1,1.439145485E1,-5.846991119E0,-4.181569616E0,1.608685184E1
1.525958879E1,1.356132213E1,-6.535445799E0,-4.143367417E0,1.561374405E1
1.526957479E1,1.188976690E1,-7.928401671E0,-3.941143802E0,1.482426135E1
1.527955979E1,1.028755146E1,-8.999412773E0,-3.121845978E0,1.402030911E1
1.528954579E1,9.777447381E0,-9.296032668E0,-2.188295315E0,1.366760173E1
1.529953079E1,1.030985157E1,-8.524949815E0,-7.706279397E-1,1.340006254E1
1.530951679E1,1.135692768E1,-7.265229183E0,1.199732292E0,1.353523989E1
1.531950179E1,1.249507651E1,-5.878961356E0,3.204174190E0,1.417588995E1
1.532948779E1,1.371942967E1,-4.414372414E0,5.279183795E0,1.534859003E1
1.533947379E1,1.446971749E1,-2.577547385E0,7.285880379E0,1.640428382E1
1.534945879E1,1.403531614E1,-1.279832130E0,9.604241744E0,1.705489751E1
1.535944479E1,1.192887776E1,-1.023912219E0,1.268704645E1,1.744441654E1
1.536942979E1,9.075476278E0,-1.222948662E0,1.544481437E1,1.795556081E1
1.537941579E1,6.283764680E0,-1.118126650E0,1.669992389E1,1.787801342E1
1.538940179E1,3.865433469E0,-1.433561862E0,1.858955454E1,1.904122406E1
1.539938679E1,1.071909235E0,-2.066982693E0,2.044485034E1,2.057700931E1
1.540937279E1,-1.558716250E0,-2.606996886E0,2.127359259E1,2.148934086E1
1.541935779E1,-4.763125498E0,-3.091819941E0,2.235570170E1,2.306564792E1
1.542934379E1,-7.332932339E0,-2.464404931E0,2.303084695E1,2.429537198E1
1.543932979E1,-7.638349954E0,-6.906032386E-1,2.209783014E1,2.339092601E1
1.544931479E1,-7.709466714E0,8.700510710E-1,1.987695238E1,2.133743429E1
1.545930079E1,-7.780590491E0,1.475618399E0,1.683876720E1,1.860803909E1
1.546928579E1,-7.694955679E0,1.735928400E0,1.339052730E1,1.554130019E1
1.547927179E1,-7.815890132E0,2.067640797E0,1.077585595E1,1.347153846E1
1.548925679E1,-7.571092941E0,1.926338007E0,8.130121256E0,1.127524271E1
1.549924279E1,-7.810407783E0,1.348876052E0,6.161063198E0,1.003895593E1
1.550922879E1,-8.472351186E0,4.466785978E-1,4.816507654E0,9.755972651E0
1.551921379E1,-8.580208926E0,-3.906711888E-1,3.025360488E0,9.106339291E0
1.552919979E1,-8.158271506E0,-8.059796208E-1,1.388643551E0,8.314765663E0
1.553918479E1,-7.260523928E0,-9.163417232E-1,3.853706878E-1,7.328260396E0
1.554917079E1,-6.222087080E0,-7.334320468E-1,5.090667808E-1,6.285812532E0
1.555915679E1,-5.001463856E0,-7.638901931E-1,-1.876313031E-1,5.062941283E0
1.556914179E1,-3.981353935E0,-1.000615596E0,-2.134251840E0,4.626817658E0
1.557912779E1,-3.306516836E0,-7.494937634E-1,-3.441306267E0,4.830878110E0
1.558911279E1,-2.460503669E0,-2.135334451E-1,-3.586407847E0,4.354537413E0
1.559909879E1,-1.156013246E0,2.115116242E-1,-3.416522259E0,3.612994345E0
1.560908379E1,-1.544827066E-1,5.164040132E-1,-3.301646690E0,3.345356316E0
1.561906979E1,8.415754232E-1,5.414736579E-1,-2.583052538E0,2.770126952E0
1.562905579E1,1.817769100E0,5.900045246E-1,-1.866744062E0,2.671539487E0
1.563904079E1,2.545437107E0,6.767219487E-1,-2.108795986E0,3.374051448E0
1.564902679E1,3.067630010E0,6.092316315E-1,-2.691203223E0,4.126026157E0
1.565901179E1,3.724681048E0,6.369820784E-1,-3.572846400E0,5.200406376E0
1.566899779E1,4.676727917E0,9.176300110E-1,-4.053548922E0,6.256603528E0
1.567898379E1,5.961521702E0,1.213161154E0,-4.421573845E0,7.520759021E0
1.568896879E1,7.506079504E0,1.868017878E0,-4.320731594E0,8.859991073E0
1.569895479E1,8.881097288E0,2.224523347E0,-3.928937155E0,9.962878115E0
1.570893979E1,1.012727460E1,2.070479328E0,-3.957844620E0,1.106856402E1
1.571892579E1,1.070185241E1,2.408512128E0,-3.756868801E0,1.159502648E1
1.572891079E1,1.123734978E1,2.084869911E0,-3.096513501E0,1.184116162E1
1.573889679E1,1.187727842E1,1.581590558E0,-1.183598070E0,1.204043503E1
1.574888279E1,1.195390969E1,1.245497864E0,7.202839977E-1,1.204018400E1
1.575886779E1,1.157290277E1,2.793049733E-1,2.176900846E0,1.177917600E1
1.576885379E1,1.121126769E1,-4.633001854E-1,4.457503231E0,1.207379416E1
1.577883879E1,1.096442514E1,-7.850905891E-1,7.088877159E0,1.308002925E1
1.578882479E1,9.954239116E0,-1.331714036E0,9.474234166E0,1.380657277E1
1.579881079E1,8.342282798E0,-2.146719419E0,1.163977621E1,1.448055513E1
1.580879579E1,6.374094222E0,-2.899109162E0,1.326730308E1,1.500184129E1
1.581878179E1,3.951811463E0,-3.502062346E0,1.506906879E1,1.596740707E1
1.582876679E1,1.141545480E0,-4.239451788E0,1.669947716E1,1.726698049E1
1.583875279E1,-1.246620238E0,-4.552621057E0,1.858587080E1,1.917589669E1
1.584873779E1,-3.216854462E0,-4.310983408E0,2.086992888E1,2.155195263E1
1.585872379E1,-4.731669525E0,-4.361512415E0,2.215457152E1,2.307025198E1
1.586870979E1,-5.710099615E0,-4.033474846E0,2.250344213E1,2.356436005E1
1.587869479E1,-6.559601231E0,-3.547660103E0,2.203774883E1,2.326535265E1
1.588868079E1,-8.110467594E0,-3.738828094E0,2.068298872E1,2.252874925E1
1.589866579E1,-9.197742142E0,-4.475274965E0,1.932443377E1,2.186458980E1
1.590865179E1,-1.015137097E1,-5.258844255E0,1.888185919E1,2.207329568E1
1.591863779E1,-1.152797043E1,-6.315637853E0,1.829107289E1,2.252431423E1
1.592862279E1,-1.277426586E1,-7.802906390E0,1.629719458E1,2.212839279E1
1.593860879E1,-1.402254115E1,-9.227653574E0,1.413278806E1,2.194349446E1
1.594859379E1,-1.512765204E1,-1.040780529E1,1.228870488E1,2.209480787E1
1.595857979E1,-1.565681921E1,-1.205279546E1,1.040108567E1,2.232909424E1
1.596856579E1,-1.620750998E1,-1.392130947E1,9.073544943E0,2.321239874E1
1.597855079E1,-1.682176466E1,-1.544446822E1,7.474120377E0,2.402843816E1
1.598853679E1,-1.757105260E1,-1.677457763E1,5.454097989E0,2.489729964E1
1.599852179E1,-1.842640553E1,-1.827626307E1,3.609885002E0,2.620277623E1
1.600850779E1,-1.887546818E1,-1.928503523E1,1.876373842E0,2.705026177E1
1.601849279E1,-1.841994085E1,-1.973258931E1,-7.095888555E-2,2.699396853E1
1.602847879E1,-1.782614207E1,-2.023185498E1,-1.892985781E0,2.703114301E1
1.603846479E1,-1.726060872E1,-2.054374547E1,-4.206526701E0,2.716006182E1
1.604844979E1,-1.632249899E1,-2.040400403E1,-6.659904953E0,2.696482315E1
1.605843579E1,-1.471901353E1,-2.015555116E1,-8.317530949E0,2.630735492E1
1.606842079E1,-1.253905693E1,-1.972906227E1,-9.202427516E0,2.512266942E1
1.607840679E1,-1.003006347E1,-1.912683648E1,-9.791958416E0,2.371329788E1
1.608839179E1,-7.978974239E0,-1.863722104E1,-1.032017892E1,2.274898088E1
1.609837779E1,-5.889867582E0,-1.823202303E1,-1.023381555E1,2.172160640E1
1.610836379E1,-4.067106276E0,-1.726151621E1,-9.553983171E0,2.014397900E1
1.611834879E1,-2.488259817E0,-1.635458032E1,-9.211643313E0,1.893457438E1
1.612833479E1,-1.438589882E0,-1.575477762E1,-9.305085327E0,1.835394158E1
1.613831979E1,-5.398867236E-1,-1.523871289E1,-9.545349757E0,1.798954002E1
1.614830579E1,4.980263606E-2,-1.491750779E1,-9.760686337E0,1.782710063E1
1.615829179E1,1.309076102E-1,-1.517303345E1,-1.039077119E1,1.839038354E1
1.616827679E1,2.317492761E-1,-1.501396814E1,-1.059356198E1,1.837652041E1
1.617826279E1,7.604483758E-1,-1.448429928E1,-1.034339588E1,1.781457396E1
1.618824779E1,1.312410331E0,-1.418148601E1,-9.923383359E0,1.735829783E1
1.619823379E1,1.815486347E0,-1.367210933E1,-9.442560968E0,1.671479948E1
1.620821879E1,2.652326256E0,-1.318047076E1,-9.000360022E0,1.617918800E1
1.621820479E1,3.523985311E0,-1.238096927E1,-8.502721624E0,1.542735063E1
1.622819079E1,3.954696186E0,-1.179308670E1,-8.728077409E0,1.519525752E1
1.623817579E1,4.443234270E0,-1.113833537E1,-8.745874579E0,1.484234374E1
1.624816179E1,5.535950822E0,-1.026797030E1,-7.956941931E0,1.412058393E1
1.625814654E1,6.679879042E0,-9.549000759E0,-7.844980615E0,1.404805753E1
1.626813254E1,7.593162671E0,-9.058840950E0,-7.900722706E0,1.421759959E1
1.627811854E1,7.471155839E0,-9.223944100E0,-8.746472164E0,1.474449354E1
1.628810354E1,6.575924318E0,-9.761086872E0,-9.786038110E0,1.530647378E1
1.629808954E1,6.791333404E0,-9.658343691E0,-8.958101610E0,1.482070837E1
1.630807454E1,8.093399572E0,-9.129120973E0,-7.913393623E0,1.454186250E1
1.631806054E1,9.134298098E0,-8.755696732E0,-6.882292106E0,1.440359579E1
1.632804554E1,9.898661331E0,-8.674208765E0,-5.423605928E0,1.423519916E1
1.633803154E1,1.148782345E1,-8.248527957E0,-3.432690979E0,1.455306388E1
1.634801754E1,1.308736554E1,-7.668616312E0,-1.566755587E0,1.524931264E1
1.635800254E1,1.376411760E1,-7.292718698E0,8.408997774E-1,1.559941640E1
1.636798854E1,1.381515912E1,-7.011561765E0,3.500492953E0,1.588313794E1
1.637797354E1,1.412315770E1,-6.326555189E0,5.146844348E0,1.630885927E1
1.638795954E1,1.440804106E1,-4.819558438E0,6.634804611E0,1.657831182E1
1.639794554E1,1.349111461E1,-3.718212858E0,8.264649900E0,1.625237578E1
1.640793054E1,1.118763207E1,-3.171386221E0,9.313494208E0,1.489838838E1
1.641791654E1,9.100656728E0,-2.645021037E0,1.010774724E1,1.385585232E1
1.642790154E1,6.763007153E0,-1.505661685E0,1.052953263E1,1.260461583E1
1.643788754E1,4.981705529E0,-2.002062154E-1,1.044085142E1,1.157017074E1
1.644787254E1,3.415027418E0,5.148360092E-1,1.028570374E1,1.085003086E1
1.645785854E1,1.483327222E0,7.919145821E-1,1.195448037E1,1.207215761E1
1.646784454E1,-5.191684306E-2,1.220321216E-1,1.381131282E1,1.381194950E1
1.647782954E1,-1.043693057E0,7.515632392E-1,1.469354306E1,1.474972373E1
1.648781554E1,-1.373918362E0,1.711747970E0,1.489622860E1,1.505707008E1
1.649780054E1,-2.466391815E0,1.971283800E0,1.459816795E1,1.493571411E1
1.650778654E1,-4.819050900E0,1.958772951E0,1.438382540E1,1.529557048E1
1.651777254E1,-6.617827220E0,1.495785445E0,1.483270796E1,1.631080123E1
1.652775754E1,-7.266980424E0,1.898012779E0,1.450432833E1,1.633361556E1
1.653774354E1,-8.146457207E0,1.777412202E0,1.339543078E1,1.577851466E1
1.654772854E1,-9.294512976E0,9.519978981E-1,1.280623960E1,1.585225675E1
1.655771454E1,-9.791491224E0,7.331228752E-1,1.153469473E1,1.514793557E1
