"Time (s)","Linear Acceleration x (m/s^2)","Linear Acceleration y (m/s^2)","Linear Acceleration z (m/s^2)","Absolute acceleration (m/s^2)"
2.077208308E-3,4.248689950E-1,-2.598838851E-2,-4.344533855E-1,6.082259477E-1
1.206320833E-2,6.189290924E-1,-4.401243076E-2,-4.475599194E-1,7.650622177E-1
2.204820834E-2,5.573518817E-1,8.751863882E-2,-3.754239893E-1,6.776752938E-1
3.203420830E-2,4.060344556E-1,1.825241987E-1,-4.065042794E-1,6.028472372E-1
4.201920831E-2,1.534500518E-1,2.391772865E-1,-2.926350170E-1,4.079067859E-1
5.200520833E-2,9.955008902E-2,3.567938831E-1,5.382011175E-2,3.743109666E-1
6.199020834E-2,7.967163887E-2,3.304512995E-1,1.482122988E-1,3.708268018E-1
7.197620830E-2,1.824987999E-1,1.546215780E-1,1.574818897E-1,2.863811969E-1
8.196120831E-2,2.391022046E-1,7.679440677E-3,1.943205178E-1,3.082033447E-1
9.194720833E-2,1.396542591E-1,1.691935703E-2,2.788133687E-1,3.122922850E-1
1.019322083E-1,9.349069253E-2,1.271384950E-1,4.582796198E-1,4.846905368E-1
1.119182083E-1,1.585772377E-1,1.784410881E-1,3.648715192E-1,4.360265906E-1
1.219042083E-1,3.505613360E-1,3.081998666E-1,3.688131273E-2,4.682313950E-1
1.318892083E-1,3.349329711E-1,4.482003357E-1,-2.217585772E-1,6.018641895E-1
1.418752083E-1,2.450441999E-1,5.571746014E-1,-2.940120363E-1,6.759683971E-1
1.518602083E-1,2.682790798E-1,6.721158046E-1,-2.722276497E-1,7.731889889E-1
1.618462083E-1,-9.695725087E-2,3.486922735E-1,-2.626680368E-1,4.471929200E-1
1.718312083E-1,1.629426227E-1,4.678173056E-1,1.667918265E-2,4.956627128E-1
1.818172083E-1,3.226800941E-1,5.406585561E-1,1.374873358E-1,6.444663567E-1
1.918022083E-1,-1.152182881E-1,1.515276700E-2,-5.746292710E-2,1.296412290E-1
2.017882083E-1,-6.731994398E-1,-3.070776397E-1,-1.942977136E-1,7.650135712E-1
2.117732083E-1,-1.252846645E0,-5.118981488E-1,-2.570213807E-1,1.377579189E0
2.217592083E-1,-1.464685129E0,-6.247077495E-1,-2.492141783E-1,1.611728887E0
2.317442083E-1,-1.399423916E0,-6.455580434E-1,-5.107133567E-2,1.541992466E0
2.417302083E-1,-1.293918073E0,-3.786224163E-1,2.661371899E-1,1.374193551E0
2.517152083E-1,-1.228513165E0,-3.311300151E-1,4.350924861E-1,1.344692216E0
2.617012083E-1,-1.037093743E0,-1.880161960E-1,3.223850656E-1,1.102200369E0
2.716872083E-1,-8.571734557E-1,-1.325943857E-1,-6.179980695E-2,8.695670304E-1
2.816722083E-1,-7.560419141E-1,-2.929079358E-1,-5.478946316E-1,9.785616803E-1
2.916582083E-1,-8.310970666E-1,-3.839620936E-1,-7.470952356E-1,1.181651604E0
3.016432083E-1,-6.729016703E-1,-4.811572896E-1,-5.687615901E-1,1.003891798E0
3.116292083E-1,-4.466971261E-1,-4.898800197E-1,-1.983667910E-1,6.920044364E-1
3.216142083E-1,-2.285443441E-1,-3.608220300E-1,-8.753866553E-2,4.359909088E-1
3.316002083E-1,-1.582189313E-1,-2.027152191E-1,-4.202955222E-1,4.927220477E-1
3.415852083E-1,-2.551954048E-1,-8.174553663E-2,-9.412023300E-1,9.786055658E-1
3.515712083E-1,-2.232866374E-1,-1.889925349E-1,-1.316634505E0,1.348740717E0
3.615562083E-1,-5.784471374E-2,-3.016463073E-1,-1.393090358E0,1.426547319E0
3.715422083E-1,5.836883622E-1,-1.913475010E-1,-1.325240437E0,1.460673881E0
3.815272083E-1,1.408202195E0,-1.284165502E-2,-1.543455017E0,2.089366344E0
3.915132083E-1,2.322261311E0,3.240911369E-1,-1.470678232E0,2.767819923E0
4.014992083E-1,3.500557857E0,5.721317790E-1,-8.745592743E-1,3.653230626E0
4.114842083E-1,4.221611348E0,7.945462677E-1,-3.870728123E-1,4.313134766E0
4.214702083E-1,4.522015269E0,7.365173301E-1,-4.456005174E-1,4.603220578E0
4.314552083E-1,4.363281490E0,4.511611464E-1,-9.127550411E-1,4.480501479E0
4.414412083E-1,4.103279199E0,-5.327171601E-2,-1.181184340E0,4.270238225E0
4.514262083E-1,4.122533203E0,-2.410226677E-1,-1.113998662E0,4.277191246E0
4.614122083E-1,4.778752767E0,2.284135857E-1,-8.038623440E-1,4.851272559E0
4.713972083E-1,5.746570453E0,9.966321802E-1,-2.613898355E-1,5.838207972E0
4.813832083E-1,6.654686898E0,1.197401154E0,-7.870118380E-2,6.762013096E0
4.913682083E-1,6.732565963E0,1.302617999E0,1.024701154E-1,6.858189136E0
5.013542083E-1,6.716334677E0,1.222717258E0,6.051996839E-1,6.853499518E0
5.113392083E-1,6.522179051E0,1.211111266E0,9.510116190E-1,6.701494846E0
5.213252083E-1,6.219492086E0,1.174971819E0,1.856978627E0,6.596287608E0
5.313102083E-1,6.413250686E0,1.295724862E0,3.324475974E0,7.338993649E0
5.412962083E-1,6.862014547E0,1.799796951E0,4.715730892E0,8.518487574E0
5.512822083E-1,6.899862989E0,2.045041309E0,5.552337059E0,9.089485686E0
5.612672083E-1,6.152154965E0,1.518151776E0,6.232471735E0,8.888053750E0
5.712532083E-1,4.948498022E0,8.674990538E-1,7.386822032E0,8.933382731E0
5.812382083E-1,3.857244444E0,5.111634096E-1,8.848631793E0,9.666328534E0
5.912242083E-1,2.740109920E0,6.028349968E-1,9.835259972E0,1.022760730E1
6.012092083E-1,2.104244514E0,5.243493560E-1,1.034456298E1,1.056942621E1
6.111952083E-1,1.453052093E0,5.526090223E-1,1.051344811E1,1.062776215E1
6.211802083E-1,6.827125673E-1,9.304837990E-1,1.049828979E1,1.056153327E1
6.311662083E-1,-2.411127879E-1,1.210331028E0,1.058380999E1,1.065551832E1
6.411512083E-1,-8.879241820E-1,1.200434981E0,1.086028740E1,1.096244936E1
6.511372083E-1,-1.262841437E0,1.073619399E0,1.096442046E1,1.108900100E1
6.611232084E-1,-1.977693956E0,1.005615989E0,1.086776599E1,1.109192835E1
6.711082083E-1,-2.678328532E0,9.313699445E-1,1.115359777E1,1.150841592E1
6.810942083E-1,-3.378491383E0,6.542247865E-1,1.091211478E1,1.144187323E1
6.910792083E-1,-4.416823274E0,2.858192101E-1,1.032085252E1,1.122987165E1
7.010652083E-1,-5.464141166E0,-5.191577594E-1,9.714362356E0,1.115774168E1
7.110502083E-1,-6.890876403E0,-1.477885510E0,8.882105348E0,1.133843546E1
7.210362083E-1,-8.426384470E0,-2.204898776E0,8.157315486E0,1.193345423E1
7.310212083E-1,-9.238877304E0,-2.854919999E0,7.288840240E0,1.210927802E1
7.410072083E-1,-9.553024228E0,-3.346330235E0,6.290778415E0,1.191772172E1
7.509922083E-1,-9.745710449E0,-3.706653205E0,5.351760020E0,1.172004631E1
7.609782083E-1,-9.924637002E0,-4.168122189E0,4.449900681E0,1.164788729E1
7.709632083E-1,-1.004501597E1,-4.677569624E0,3.557170599E0,1.163767443E1
7.809492083E-1,-1.038531456E1,-5.130683813E0,2.522299967E0,1.185498512E1
7.909342083E-1,-1.062955978E1,-5.645332346E0,1.472508996E0,1.212541138E1
8.009202083E-1,-1.033072145E1,-5.967924403E0,7.617045039E-1,1.195492037E1
8.109062083E-1,-9.751198645E0,-6.040098925E0,3.094112635E-1,1.147451112E1
8.208912083E-1,-9.359940396E0,-6.214043650E0,-3.835633135E-1,1.124143868E1
8.308772083E-1,-8.897152573E0,-6.476407047E0,-1.240678005E0,1.107440536E1
8.408622083E-1,-8.291151820E0,-6.774523829E0,-1.975399362E0,1.088758808E1
8.508482083E-1,-7.989088168E0,-7.057868789E0,-2.695645353E0,1.099570577E1
8.608329166E-1,-7.577255321E0,-7.444676138E0,-3.202049312E0,1.109464379E1
8.708189167E-1,-7.326604482E0,-7.805149966E0,-3.880419883E0,1.138670970E1
8.808039167E-1,-7.335439625E0,-8.242698868E0,-4.706135611E0,1.199576890E1
8.907899167E-1,-7.335543121E0,-8.798353924E0,-5.434047886E0,1.267872632E1
9.007749166E-1,-6.887131262E0,-9.206162133E0,-6.043449964E0,1.298881387E1
9.107609167E-1,-5.903430199E0,-9.321930571E0,-6.447424153E0,1.277959921E1
9.207469167E-1,-4.774760288E0,-9.259140245E0,-6.695730259E0,1.238397422E1
9.307319167E-1,-3.556803102E0,-9.396480816E0,-6.696623129E0,1.207433068E1
9.407179166E-1,-2.813025576E0,-9.586794237E0,-6.772876668E0,1.207027734E1
9.507029167E-1,-2.461521377E0,-9.764873528E0,-6.692076918E0,1.209114287E1
9.606889167E-1,-2.189364040E0,-9.899258916E0,-6.387376757E0,1.198278865E1
9.706739166E-1,-1.875064358E0,-1.008075649E1,-6.359746909E0,1.206581529E1
9.806599166E-1,-1.523969610E0,-1.005919898E1,-6.406826350E0,1.202320221E1
9.906449167E-1,-1.150258270E0,-9.890757065E0,-6.268280668E0,1.176611711E1
1.000630917E0,-8.860084149E-1,-9.780544651E0,-6.338256637E0,1.168835154E1
1.010615917E0,-5.945684957E-1,-9.628936290E0,-6.697610139E0,1.174427126E1
1.020601917E0,-1.444890842E-2,-9.276861987E0,-7.001556010E0,1.162248526E1
1.030586917E0,7.285191431E-1,-8.886242253E0,-7.001285284E0,1.133640318E1
1.040572917E0,1.445251177E0,-8.623895813E0,-6.699474816E0,1.101559316E1
1.050557917E0,2.100748317E0,-8.404756789E0,-6.514523876E0,1.083937736E1
1.060543917E0,2.814973284E0,-8.039105251E0,-6.373683162E0,1.063837981E1
1.070529917E0,3.571947682E0,-7.759400182E0,-6.158881602E0,1.053085581E1
1.080514917E0,4.227261221E0,-7.474367715E0,-6.143771228E0,1.055849587E1
1.090500917E0,4.523231197E0,-7.170227131E0,-5.998533407E0,1.038528674E1
1.100485917E0,4.344479768E0,-7.096262192E0,-5.839689116E0,1.016530425E1
1.110471917E0,4.281933564E0,-7.256643131E0,-5.774544117E0,1.021465537E1
1.120456917E0,4.714232835E0,-7.255917492E0,-5.470384238E0,1.023706177E1
1.130442917E0,5.533517795E0,-6.934452193E0,-5.174720364E0,1.027054902E1
1.140427917E0,6.487011557E0,-6.714267687E0,-4.899167987E0,1.054346037E1
1.150413917E0,6.981394810E0,-6.577877288E0,-4.620365143E0,1.064688298E1
1.160398917E0,7.005987614E0,-6.394403940E0,-4.223867789E0,1.038331947E1
1.170384917E0,7.417253281E0,-6.200555878E0,-3.504492449E0,1.028319049E1
1.180370917E0,8.187684170E0,-5.895028335E0,-2.970336435E0,1.051724440E1
1.190355917E0,9.135365215E0,-5.470562578E0,-2.058254408E0,1.084520003E1
1.200341917E0,9.602974652E0,-5.090400006E0,-1.200672525E0,1.093484837E1
1.210326917E0,9.573809910E0,-5.206590028E0,-1.092827649E0,1.095265667E1
1.220312917E0,9.224190853E0,-5.545505172E0,-1.190439312E0,1.082845650E1
1.230297917E0,8.716397595E0,-5.462016873E0,-1.256578338E-1,1.028712813E1
1.240283917E0,8.561759207E0,-5.221879327E0,9.949370724E-1,1.007777973E1
1.250268917E0,8.616258180E0,-4.610247414E0,1.865757637E0,9.948634972E0
1.260254917E0,8.831022318E0,-3.324321608E0,2.403732467E0,9.737350723E0
1.270239917E0,9.305874701E0,-1.861282471E0,3.520626086E0,1.012217785E1
1.280225917E0,1.010269174E1,-9.178449693E-1,4.834576719E0,1.123743528E1
1.290210917E0,1.073962894E1,-8.315325379E-1,5.950350596E0,1.230600456E1
1.300196917E0,1.017909613E1,-1.010449882E0,7.316630301E0,1.257648942E1
1.310182917E0,8.535083624E0,-1.066529723E0,8.355333783E0,1.199152787E1
1.320167917E0,6.489238762E0,-6.138444999E-1,8.640859171E0,1.082365336E1
1.330153917E0,4.581293756E0,4.459836927E-1,9.207888231E0,1.029428772E1
1.340138917E0,3.281910876E0,1.905367699E0,1.047850866E1,1.114452820E1
1.350124917E0,2.384309479E0,2.814138594E0,1.217940171E1,1.272564866E1
1.360109917E0,8.068969759E-1,2.680693146E0,1.414746457E1,1.442178742E1
1.370095917E0,-1.281565537E0,1.471486025E0,1.577446519E1,1.589469828E1
1.380080917E0,-3.289690596E0,2.777703716E-1,1.663785687E1,1.696223752E1
1.390066917E0,-5.191457434E0,-3.029807881E-1,1.708847371E1,1.786222163E1
1.400051917E0,-7.111299477E0,-6.199665347E-1,1.614254157E1,1.765039906E1
1.410037917E0,-8.474136341E0,-7.280349205E-1,1.358586757E1,1.602862500E1
1.420022917E0,-9.597792850E0,-4.805918638E-1,1.034877999E1,1.412252964E1
1.430008917E0,-1.002574355E1,-1.876916756E-1,8.031282846E0,1.284726687E1
1.439994917E0,-9.826638837E0,-2.171394230E-1,6.906035310E0,1.201263102E1
1.449979917E0,-8.938168452E0,-2.031296405E-1,6.551960675E0,1.108423681E1
1.459965917E0,-7.249096130E0,1.848290250E-2,5.754195222E0,9.255295726E0
1.469950917E0,-4.977406656E0,4.592113736E-1,4.243615006E0,6.556959693E0
1.479936917E0,-2.809562270E0,8.142519692E-1,2.890937678E0,4.112683683E0
1.489921917E0,-1.603915519E0,8.120939080E-1,1.256471334E0,2.193344871E0
1.499907917E0,-7.401426038E-1,4.346933406E-1,-1.491414213E-1,8.712132563E-1
1.509892917E0,-1.999544928E-2,1.596341036E-2,-1.289126279E0,1.289380166E0
1.519878917E0,2.987106761E-1,-2.505656160E-1,-2.337634372E0,2.369925242E0
1.529863917E0,6.694643115E-1,-2.450504491E-1,-3.266485628E0,3.343375622E0
1.539849917E0,1.309871323E0,-2.019618785E-1,-3.947473998E0,4.164024790E0
1.549835917E0,1.646240590E0,-2.442167093E-1,-4.572998604E0,4.866422311E0
1.559820917E0,2.005685308E0,-3.728333804E-1,-4.589676032E0,5.022639183E0
1.569806917E0,2.539968207E0,-5.148021685E-1,-4.271627846E0,4.996325072E0
1.579791917E0,3.351123490E0,-5.160554460E-1,-3.916474984E0,5.180262365E0
1.589777917E0,4.436720764E0,-3.475120130E-1,-3.690221652E0,5.781262110E0
1.599762917E0,5.449259418E0,-1.545329196E-1,-3.609697891E0,6.538212867E0
1.609748917E0,6.344026085E0,-8.007352531E-2,-3.338397610E0,7.169238267E0
1.619733917E0,7.224224998E0,2.992268756E-2,-2.591981236E0,7.675199602E0
1.629719917E0,8.315813622E0,2.275059517E-1,-1.979711684E0,8.551243974E0
1.639704917E0,9.188324032E0,3.881789593E-1,-1.598066842E0,9.334334419E0
1.649690917E0,9.633402393E0,6.153241378E-1,-7.320252067E-1,9.680750299E0
1.659676917E0,9.883062129E0,4.733948185E-1,-3.351735109E-1,9.900068736E0
1.669661917E0,9.567214251E0,2.669087300E-1,-7.163306952E-2,9.571204735E0
1.679647917E0,9.358314870E0,2.771539289E-1,1.013875619E0,9.417155371E0
1.689632917E0,9.217584668E0,3.662052691E-1,2.090326386E0,9.458722843E0
1.699618917E0,9.042531311E0,4.528728457E-1,3.045191320E0,9.552259235E0
1.709603917E0,8.786364793E0,3.847393347E-1,3.997587560E0,9.660690293E0
1.719589917E0,8.463310806E0,3.890968260E-1,5.110109800E0,9.894051158E0
1.729574917E0,8.034147981E0,2.805325963E-1,6.367205032E0,1.025512224E1
1.739560917E0,7.187371752E0,-1.688715349E-1,7.547637420E0,1.042370668E1
1.749545917E0,6.134234419E0,-8.814677596E-1,8.868290132E0,1.081907515E1
1.759531917E0,5.153241786E0,-1.380679351E0,1.029558787E1,1.159574517E1
1.769516917E0,4.084030749E0,-1.798315998E0,1.111766897E1,1.197980847E1
1.779502917E0,2.608057571E0,-2.312251170E0,1.145421365E1,1.197278080E1
1.789488917E0,8.615625219E-1,-2.528511465E0,1.197878374E1,1.227301593E1
1.799473917E0,-7.422582726E-1,-2.541717109E0,1.255540574E1,1.283158161E1
1.809459917E0,-2.182646028E0,-2.642854351E0,1.309122354E1,1.353250740E1
1.819444917E0,-3.965953831E0,-2.667226131E0,1.355964164E1,1.437730039E1
1.829430917E0,-5.538865074E0,-2.734878416E0,1.348294021E1,1.483065281E1
1.839415917E0,-6.656874926E0,-2.802883288E0,1.327685743E1,1.511439981E1
1.849401917E0,-7.365465662E0,-2.879732074E0,1.307621373E1,1.528169843E1
1.859387792E0,-8.086982837E0,-3.179893042E0,1.275566820E1,1.543431509E1
1.869373792E0,-8.740497479E0,-3.528595256E0,1.296964121E1,1.603305566E1
1.879358792E0,-9.381275716E0,-3.859602041E0,1.323473994E1,1.667522723E1
1.889344792E0,-1.001367139E1,-4.364425498E0,1.274304991E1,1.678413374E1
1.899330792E0,-1.056832072E1,-5.040163068E0,1.206279887E1,1.681082280E1
1.909315792E0,-1.119601230E1,-5.846669523E0,1.134019763E1,1.697451967E1
1.919301792E0,-1.194907404E1,-6.686629068E0,1.026504669E1,1.711322770E1
1.929286792E0,-1.252955988E1,-7.691749066E0,8.699106209E0,1.708295417E1
1.939272792E0,-1.299351539E1,-8.701562040E0,6.856505300E0,1.707513658E1
1.949257792E0,-1.339804448E1,-9.429522847E0,5.308663117E0,1.722223566E1
1.959243792E0,-1.334163756E1,-1.007796854E1,4.235002642E0,1.724818802E1
1.969228792E0,-1.274239736E1,-1.056363593E1,3.284215556E0,1.687439381E1
1.979214792E0,-1.200414428E1,-1.091955712E1,1.932087282E0,1.634225104E1
1.989199792E0,-1.145754657E1,-1.124242049E1,4.265087736E-1,1.605768668E1
1.999185792E0,-1.098021613E1,-1.158858501E1,-8.197661859E-1,1.598538287E1
2.009171792E0,-1.071298785E1,-1.197027253E1,-2.068971770E0,1.619679528E1
2.019156792E0,-1.041345020E1,-1.251572186E1,-3.126716709E0,1.657889007E1
2.029142792E0,-1.001740542E1,-1.295577863E1,-4.176981890E0,1.690111798E1
2.039127792E0,-9.483055860E0,-1.320931858E1,-5.567480763E0,1.718753292E1
2.049113792E0,-8.755647615E0,-1.328414891E1,-6.651923504E0,1.724465319E1
2.059098792E0,-7.772894971E0,-1.313008062E1,-7.141257686E0,1.684679420E1
2.069084792E0,-6.715811936E0,-1.302052485E1,-7.545295025E0,1.647931049E1
2.079069792E0,-5.621355253E0,-1.305409489E1,-8.073715505E0,1.634606712E1
2.089055792E0,-4.608479508E0,-1.288113074E1,-8.515811786E0,1.611461023E1
2.099040792E0,-3.728505712E0,-1.271373197E1,-8.784967309E0,1.589705589E1
2.109026792E0,-2.950907891E0,-1.270670362E1,-9.137485415E0,1.592676408E1
2.119012792E0,-2.228153737E0,-1.266973050E1,-9.521309515E0,1.600443923E1
2.128997792E0,-1.354296421E0,-1.232426648E1,-9.449074767E0,1.558867143E1
2.138983792E0,-2.405372757E-1,-1.185661202E1,-9.210689047E0,1.501578834E1
2.148968792E0,8.818934369E-1,-1.138701277E1,-9.171031476E0,1.464751222E1
2.158954792E0,1.685128667E0,-1.098895889E1,-9.437904831E0,1.458324119E1
2.168939792E0,1.984118730E0,-1.065603831E1,-9.480100093E0,1.440000616E1
2.178925792E0,2.050401598E0,-1.044232375E1,-9.227133756E0,1.408496607E1
2.188910792E0,2.260661041E0,-1.029840155E1,-8.862774453E0,1.377375889E1
2.198896792E0,2.503186881E0,-1.023103812E1,-8.721749552E0,1.367512343E1
2.208881792E0,2.491506191E0,-1.028681705E1,-8.570582070E0,1.361914407E1
2.218867792E0,2.609434883E0,-1.031113445E1,-8.268243599E0,1.347191509E1
2.228852792E0,3.231175463E0,-1.018830784E1,-7.808978723E0,1.323715453E1
2.238838792E0,4.007819310E0,-9.837616400E0,-7.301766679E0,1.289019428E1
2.248824792E0,4.661546499E0,-9.416376552E0,-6.925108343E0,1.258392978E1
2.258809792E0,5.342804425E0,-9.088192218E0,-6.583786485E0,1.242928161E1
2.268795792E0,5.895178024E0,-8.704904308E0,-6.096729208E0,1.215313087E1
2.278780792E0,5.862447065E0,-8.387298172E0,-5.822108293E0,1.177335981E1
2.288766792E0,5.878470190E0,-8.344314120E0,-5.402033211E0,1.154841776E1
2.298751792E0,6.351381882E0,-8.256883628E0,-4.771336159E0,1.145782823E1
2.308737792E0,7.217344580E0,-7.908157441E0,-3.890368921E0,1.139139970E1
2.318722792E0,8.267660047E0,-7.577769291E0,-2.951700774E0,1.159695337E1
2.328708792E0,9.462982954E0,-7.280576954E0,-1.956702890E0,1.209890629E1
2.338693792E0,1.031107013E1,-6.637727049E0,-1.180081555E0,1.231950405E1
2.348679792E0,1.089423400E1,-5.892083092E0,-8.968757576E-1,1.241794523E1
2.358665792E0,1.138265543E1,-5.454810179E0,-5.213699073E-1,1.263295790E1
2.368650792E0,1.168446765E1,-4.779417595E0,2.638988757E-1,1.262692597E1
2.378636792E0,1.207530607E1,-3.822088060E0,1.040296263E0,1.270840628E1
2.388621792E0,1.240938907E1,-3.099644685E0,1.679141411E0,1.290039729E1
2.398607792E0,1.256706743E1,-2.595719654E0,2.700659341E0,1.311344749E1
2.408592792E0,1.255273824E1,-2.492482676E0,3.701082271E0,1.332222644E1
2.418578792E0,1.255258739E1,-2.540385990E0,4.593106593E0,1.360579433E1
2.428563792E0,1.263882680E1,-2.596557267E0,5.658895547E0,1.408918562E1
2.438549792E0,1.196641805E1,-2.706350728E0,6.031822776E0,1.367122457E1
2.448534792E0,1.026833166E1,-2.936659689E0,5.985189477E0,1.224275697E1
2.458520792E0,7.498053616E0,-3.117401510E0,6.371655348E0,1.032167584E1
2.468506792E0,4.487480736E0,-3.312610512E0,6.892950411E0,8.866997075E0
2.478491792E0,2.340436504E0,-3.166740900E0,7.766276507E0,8.707522136E0
2.488477792E0,9.352375122E-1,-2.228291732E0,9.651299551E0,9.949248025E0
2.498462792E0,2.459720617E-1,-1.017113003E0,1.155757839E1,1.160485413E1
2.508448792E0,-1.452250294E-1,-4.951619558E-2,1.260644375E1,1.260737745E1
2.518433792E0,-1.244175224E0,8.019499391E-1,1.344135481E1,1.352261494E1
2.528419792E0,-3.223479942E0,1.173253395E0,1.444780797E1,1.484946133E1
2.538404792E0,-5.569952381E0,1.004877631E0,1.471554262E1,1.576646261E1
2.548390792E0,-7.235272143E0,7.728457886E-1,1.418356528E1,1.594114104E1
2.558375792E0,-8.009687909E0,5.321569969E-1,1.286732663E1,1.516596143E1
2.568361792E0,-8.056931657E0,4.751296873E-1,1.225464719E1,1.467365918E1
2.578347792E0,-7.710702816E0,4.802582802E-1,1.117964946E1,1.358933949E1
2.588332792E0,-7.139641516E0,8.137692815E-1,9.426795121E0,1.185331885E1
2.598318792E0,-6.659555874E0,1.147239791E0,7.421049879E0,1.003682345E1
2.608303792E0,-6.714115074E0,9.627770939E-1,4.793508216E0,8.305660839E0
2.618289792E0,-6.785446427E0,6.177648387E-1,2.836095473E0,7.380200143E0
2.628274792E0,-6.534280449E0,5.782525713E-1,1.296183284E0,6.686649992E0
2.638260792E0,-5.537961679E0,8.342006224E-1,9.153307396E-1,5.674745862E0
2.648245792E0,-4.033945254E0,8.824359854E-1,1.034055530E0,4.256839018E0
2.658231792E0,-3.089867556E0,7.145328956E-1,4.619855851E-1,3.204882128E0
2.668216792E0,-2.523052504E0,4.129893532E-1,-5.375403821E-1,2.612528240E0
2.678202792E0,-2.253154385E0,1.272408944E-1,-1.164965917E0,2.539692997E0
2.688188792E0,-1.809992595E0,-2.115742625E-1,-1.522191033E0,2.374426753E0
2.698173792E0,-1.220456944E0,-4.371021742E-1,-2.046369942E0,2.422437492E0
2.708159792E0,-6.175726846E-1,-5.774523798E-1,-2.963493438E0,3.081743116E0
2.718144792E0,-1.606153395E-1,-7.293376802E-1,-3.733331419E0,3.807294870E0
2.728130792E0,-2.776893876E-2,-6.719403881E-1,-4.156504356E0,4.210558569E0
2.738115792E0,3.092951231E-1,-6.252682782E-1,-4.169875184E0,4.227822483E0
2.748101792E0,9.322691001E-1,-6.669306399E-1,-3.777260966E0,3.947356401E0
2.758086792E0,1.838787062E0,-6.107615554E-1,-3.493459337E0,3.994799830E0
2.768072792E0,2.777955731E0,-4.590304023E-1,-3.594550679E0,4.566020317E0
2.778057792E0,3.841661029E0,-3.421096243E-1,-3.561523851E0,5.249747670E0
2.788043792E0,5.088849324E0,6.388243899E-2,-2.944853100E0,5.879849334E0
2.798029792E0,6.364132320E0,4.512965094E-1,-2.057047543E0,6.703528423E0
2.808014792E0,7.933071842E0,7.230112852E-1,-1.466558869E0,8.099825250E0
2.818000792E0,9.644319729E0,1.042354191E0,-1.217713650E0,9.776616584E0
2.827985792E0,1.087030368E1,1.481913803E0,-5.724663860E-1,1.098577664E1
2.837971792E0,1.173828893E1,1.585576166E0,-9.077568412E-2,1.184524035E1
2.847956792E0,1.252170473E1,1.404410714E0,2.431354129E-1,1.260256219E1
2.857942917E0,1.265705023E1,1.352653792E0,6.861923915E-1,1.274760577E1
2.867927917E0,1.237090855E1,1.058074722E0,1.359877589E0,1.249032295E1
2.877913917E0,1.190733778E1,5.478333820E-1,2.246649942E0,1.212980834E1
2.887898917E0,1.106898505E1,2.150595684E-1,3.638398950E0,1.165361007E1
2.897884917E0,9.923502642E0,-3.430884482E-1,5.156954184E0,1.118873500E1
2.907870917E0,8.239179429E0,-1.053853617E0,6.816833112E0,1.074541292E1
2.917855917E0,7.093853724E0,-1.508362952E0,9.310202810E0,1.180160141E1
2.927841917E0,6.576209078E0,-1.726006406E0,1.196024339E1,1.375765408E1
2.937826917E0,5.853435920E0,-2.000389924E0,1.400066671E1,1.530630394E1
2.947812917E0,4.799836949E0,-2.366807885E0,1.573745115E1,1.662250230E1
2.957797917E0,3.157655204E0,-2.757068599E0,1.666347001E1,1.718264958E1
2.967783917E0,9.594301477E-1,-3.350381479E0,1.669240905E1,1.705233363E1
2.977768917E0,-1.369616857E0,-3.845130183E0,1.618960230E1,1.669623008E1
2.987754917E0,-3.388153322E0,-4.077252365E0,1.567117179E1,1.654355448E1
2.997739917E0,-5.423614115E0,-4.236360950E0,1.481947571E1,1.633949829E1
3.007725917E0,-7.353700479E0,-4.572070066E0,1.375454805E1,1.625325591E1
3.017711917E0,-9.298473880E0,-4.768585044E0,1.280206586E1,1.652555324E1
3.027696917E0,-1.091963664E1,-4.826625091E0,1.195307003E1,1.689410125E1
3.037682917E0,-1.206816077E1,-4.963883216E0,1.112268120E1,1.714627301E1
3.047667917E0,-1.258779815E1,-5.369906854E0,1.070325575E1,1.737378040E1
3.057653917E0,-1.322619598E1,-5.866105083E0,1.021381339E1,1.771060228E1
3.067638917E0,-1.423666151E1,-6.616237362E0,9.596910505E0,1.839994073E1
3.077624917E0,-1.502771260E1,-7.615535288E0,8.804544371E0,1.900916951E1
3.087609917E0,-1.514151930E1,-8.368966566E0,7.509222967E0,1.885984193E1
3.097595917E0,-1.491966190E1,-8.772529112E0,5.963986303E0,1.830635712E1
3.107581917E0,-1.464417151E1,-9.355792381E0,4.206093423E0,1.787942483E1
3.117566917E0,-1.450441604E1,-9.837755563E0,2.679723970E0,1.772964860E1
3.127552917E0,-1.409277439E1,-1.021752403E1,1.398279178E0,1.746308312E1
3.137537917E0,-1.343463870E1,-1.061651581E1,1.844702983E-1,1.712407528E1
3.147523917E0,-1.269068108E1,-1.099709003E1,-9.197506499E-1,1.681770842E1
3.157508917E0,-1.185783292E1,-1.127713423E1,-1.869023307E0,1.647043430E1
3.167494917E0,-1.080271688E1,-1.138884295E1,-2.758440941E0,1.593779885E1
3.177479917E0,-9.490844352E0,-1.139848267E1,-3.707661558E0,1.528882886E1
3.187465917E0,-8.169854840E0,-1.139428671E1,-4.592605487E0,1.475358678E1
3.197450917E0,-7.101560939E0,-1.134313994E1,-5.501176845E0,1.446934478E1
3.207436917E0,-6.040839182E0,-1.127316865E1,-6.261287398E0,1.424007687E1
3.217422917E0,-5.028343506E0,-1.122654880E1,-6.850026001E0,1.407986124E1
3.227407917E0,-3.917752016E0,-1.113615903E1,-7.379620017E0,1.392198299E1
3.237393917E0,-2.984214216E0,-1.106065394E1,-8.119969904E0,1.404199100E1
3.247378917E0,-2.408023008E0,-1.107493401E1,-8.835477312E0,1.437074798E1
3.257364917E0,-2.014760041E0,-1.118853021E1,-9.517249793E0,1.482634513E1
3.267349917E0,-1.432269481E0,-1.111727019E1,-9.977915661E0,1.500679490E1
3.277335917E0,-4.228264895E-1,-1.096536771E1,-1.028354495E1,1.503892842E1
3.287320917E0,5.472651789E-1,-1.066778186E1,-1.043956620E1,1.493605073E1
3.297306917E0,1.361981271E0,-1.039372286E1,-1.047530321E1,1.481946171E1
3.307291917E0,2.249431755E0,-1.009538155E1,-1.042439969E1,1.468484868E1
3.317277917E0,3.079758305E0,-9.667233798E0,-1.021469515E1,1.439723298E1
3.327263917E0,3.705137315E0,-9.216274307E0,-1.003533883E1,1.412004887E1
3.337248917E0,4.031752256E0,-8.795896924E0,-9.706670344E0,1.370555647E1
3.347234917E0,4.058465846E0,-8.576054479E0,-9.528586375E0,1.344670271E1
3.357219917E0,3.944136992E0,-8.599057426E0,-9.518692886E0,1.342033977E1
3.367205917E0,3.716738775E0,-8.709103779E0,-9.449522079E0,1.337744756E1
3.377190917E0,3.562073782E0,-8.820053526E0,-9.435503379E0,1.339815054E1
3.387176917E0,3.593771538E0,-8.824199787E0,-8.871777996E0,1.301883791E1
3.397161917E0,3.858046682E0,-8.699051830E0,-8.278637025E0,1.261324137E1
3.407147917E0,4.025990410E0,-8.649515389E0,-7.901043718E0,1.238746169E1
3.417133917E0,3.894648790E0,-8.722451802E0,-7.349443706E0,1.205254236E1
3.427118917E0,3.650522859E0,-8.818129207E0,-7.053158857E0,1.186729833E1
3.437104917E0,3.450338461E0,-8.930466499E0,-6.779774628E0,1.173130050E1
3.447089917E0,3.796444218E0,-8.800299293E0,-6.006655190E0,1.131097533E1
3.457075917E0,4.593096361E0,-8.493992901E0,-5.242346336E0,1.098756773E1
3.467060917E0,5.546051302E0,-8.422390822E0,-4.791156465E0,1.116470029E1
3.477046917E0,6.273961823E0,-8.136554947E0,-3.807727883E0,1.095741370E1
3.487031917E0,7.259970197E0,-7.570641536E0,-2.737565796E0,1.084048186E1
3.497017917E0,8.486870992E0,-6.805579560E0,-1.760545762E0,1.102009137E1
3.507002917E0,1.016632581E1,-6.047138972E0,-6.650640625E-1,1.184754745E1
3.516988917E0,1.188653222E1,-5.242972573E0,5.217078763E-1,1.300194557E1
3.526974917E0,1.315800926E1,-4.393671809E0,1.673436282E0,1.397275738E1
3.536959917E0,1.415498058E1,-3.835885150E0,2.544807070E0,1.488467444E1
3.546945917E0,1.442219249E1,-3.186521446E0,3.706427211E0,1.522797287E1
3.556930917E0,1.444030833E1,-2.592814757E0,4.991427110E0,1.549708159E1
3.566916917E0,1.443630533E1,-2.113291326E0,5.457019842E0,1.557729044E1
3.576901917E0,1.448476004E1,-1.498631870E0,6.167195174E0,1.581418563E1
3.586887917E0,1.393965570E1,-9.539936990E-1,7.068856877E0,1.565863476E1
3.596872917E0,1.288269896E1,-1.069117116E0,7.416964429E0,1.490363396E1
3.606858917E0,1.123695568E1,-1.260050269E0,7.446147298E0,1.353890724E1
3.616843917E0,8.871961014E0,-8.350848676E-1,7.493458289E0,1.164306558E1
3.626829917E0,6.389972336E0,1.520432391E-1,8.088577958E0,1.030921709E1
3.636815917E0,4.387814068E0,1.175388579E0,9.085054017E0,1.015739421E1
3.646800917E0,1.984074876E0,1.465332562E0,9.891801378E0,1.019467935E1
3.656786917E0,-8.803559116E-1,6.616030955E-1,1.099971309E1,1.105470186E1
3.666771917E0,-4.759923563E0,-3.055244730E-1,1.260734071E1,1.347943832E1
3.676757917E0,-8.612976723E0,-1.483958429E0,1.373581123E1,1.628060229E1
3.686742917E0,-1.107703550E1,-2.249808901E0,1.422581141E1,1.816964683E1
3.696728917E0,-1.238485650E1,-2.065112607E0,1.427810072E1,1.901350890E1
3.706713917E0,-1.280359783E1,-1.538141360E0,1.354699061E1,1.870344756E1
3.716699917E0,-1.260584032E1,-1.007113168E0,1.211123136E1,1.751009458E1
3.726685917E0,-1.231448526E1,-6.531630783E-1,9.868738790E0,1.579446658E1
3.736670917E0,-1.172934854E1,-5.081226017E-1,8.016957167E0,1.421644850E1
3.746656917E0,-1.067674096E1,-4.438896221E-1,6.182318412E0,1.234548081E1
3.756641917E0,-8.930002815E0,-4.342428857E-1,4.184637650E0,9.871408685E0
3.766627917E0,-6.923893876E0,-6.472882345E-2,2.733220146E0,7.444124434E0
3.776612917E0,-4.846675193E0,2.434688504E-1,1.306217691E0,5.025509145E0
3.786598917E0,-2.934846467E0,4.457401928E-1,-2.357182199E-1,2.977846736E0
3.796583917E0,-1.171946543E0,4.647139690E-1,-1.520826877E0,1.975432146E0
3.806569917E0,3.561848225E-1,6.129673444E-1,-2.418331211E0,2.520103656E0
3.816554917E0,1.938116785E0,1.009777598E0,-2.822532856E0,3.569683346E0
3.826540917E0,3.406401898E0,1.274075546E0,-3.190379439E0,4.837908985E0
3.836526917E0,4.653548677E0,1.380816322E0,-3.180266095E0,5.803125144E0
3.846511917E0,5.547299098E0,1.265222716E0,-3.043756413E0,6.452733444E0
3.856497917E0,6.169649250E0,9.301855910E-1,-2.802174606E0,6.839736809E0
3.866482917E0,6.506572248E0,5.155935891E-1,-2.517017593E0,6.995476876E0
3.876468917E0,6.519338474E0,3.131768703E-3,-2.235492285E0,6.891967041E0
3.886453917E0,6.420791255E0,-4.557055293E-1,-1.578928320E0,6.627763010E0
3.896439917E0,6.515952351E0,-7.922613220E-1,-9.835344172E-1,6.637217263E0
3.906424917E0,7.021304981E0,-7.473691776E-1,-2.549228150E-1,7.065569330E0
3.916410917E0,7.873025615E0,-4.093252686E-1,6.047628969E-1,7.906820959E0
3.926396917E0,8.926810820E0,1.829637632E-2,1.684095756E0,9.084297699E0
3.936381917E0,1.003624515E1,6.711375654E-1,3.070723772E0,1.051693809E1
3.946367917E0,1.071057295E1,1.190494861E0,4.199978405E0,1.156604814E1
3.956352917E0,1.095009479E1,1.167474081E0,5.147558293E0,1.215585982E1
3.966338917E0,1.081833948E1,7.567241380E-1,5.799826308E0,1.229825539E1
3.976323917E0,1.004132287E1,7.671006069E-2,6.734901341E0,1.209102748E1
3.986309917E0,8.290995700E0,-6.267409725E-1,8.065743411E0,1.158402481E1
3.996294917E0,6.465632383E0,-1.118566215E0,9.594172254E0,1.162341317E1
4.006280917E0,5.088236536E0,-1.359547367E0,1.084434438E1,1.205563458E1
4.016265917E0,3.989082785E0,-1.487127766E0,1.194653752E1,1.268243230E1
4.026251917E0,2.690605638E0,-1.469616963E0,1.325321012E1,1.360318754E1
4.036236917E0,1.156044821E0,-1.561548203E0,1.422654933E1,1.435860642E1
4.046222917E0,-2.190943665E-1,-1.963676280E0,1.520658010E1,1.533440919E1
4.056208917E0,-1.490011612E0,-2.409740774E0,1.650176409E1,1.674321365E1
4.066193917E0,-3.033419706E0,-2.633819818E0,1.736466110E1,1.782330208E1
4.076179917E0,-4.676751306E0,-2.939623642E0,1.747158094E1,1.832401513E1
4.086164917E0,-6.199879940E0,-3.450796298E0,1.689672948E1,1.832610088E1
4.096150917E0,-7.599732603E0,-3.891926034E0,1.609578255E1,1.822024259E1
4.106135917E0,-8.853165139E0,-4.360371623E0,1.501858978E1,1.797079332E1
4.116121917E0,-9.889786427E0,-5.033730546E0,1.366358409E1,1.760226829E1
4.126107917E0,-1.093924352E1,-5.741045419E0,1.227613103E1,1.741637288E1
4.136092917E0,-1.215672504E1,-6.811275918E0,1.046789362E1,1.742860408E1
4.146078917E0,-1.355781497E1,-7.909159654E0,8.667986743E0,1.793050884E1
4.156063917E0,-1.444223675E1,-8.931435968E0,7.256513323E0,1.846634063E1
4.166049917E0,-1.502222557E1,-9.896837000E0,5.886704823E0,1.892796707E1
4.176034917E0,-1.553972989E1,-1.082750557E1,4.374095038E0,1.943838443E1
4.186020917E0,-1.559884290E1,-1.179814805E1,2.733345861E0,1.974819933E1
4.196005917E0,-1.530112373E1,-1.241795875E1,9.290576631E-1,1.972798102E1
4.205991917E0,-1.499837010E1,-1.288422976E1,-1.109405674E0,1.980366793E1
4.215976917E0,-1.463634910E1,-1.316537559E1,-2.574040225E0,1.985385384E1
4.225962917E0,-1.373763907E1,-1.329573107E1,-3.728382336E0,1.947819363E1
4.235948917E0,-1.257868234E1,-1.323247940E1,-4.770795876E0,1.887014186E1
4.245933917E0,-1.153040170E1,-1.328707018E1,-5.895949271E0,1.855420748E1
4.255919917E0,-1.050246938E1,-1.332742064E1,-6.810221080E0,1.828390317E1
4.265904917E0,-9.239321693E0,-1.311434343E1,-7.321317430E0,1.763385261E1
4.275890917E0,-7.858176026E0,-1.288991560E1,-7.681895923E0,1.693848811E1
4.285875917E0,-6.572113688E0,-1.268373809E1,-8.237214764E0,1.649004540E1
4.295861917E0,-5.650450999E0,-1.245036168E1,-8.835047541E0,1.627873360E1
4.305846917E0,-4.791910756E0,-1.242569111E1,-9.253830974E0,1.621707729E1
4.315832917E0,-3.824063834E0,-1.231793862E1,-9.305393475E0,1.590425804E1
4.325818917E0,-2.817792519E0,-1.204360831E1,-9.469903718E0,1.557778971E1
4.335803917E0,-1.899478530E0,-1.179319429E1,-9.788788056E0,1.544369845E1
4.345789917E0,-1.443552122E0,-1.160163599E1,-1.000344344E1,1.538670468E1
4.355774917E0,-1.169408778E0,-1.150986394E1,-1.002599381E1,1.530898549E1
4.365760917E0,-9.708518795E-1,-1.150972361E1,-1.027185987E1,1.545727648E1
4.375745917E0,-7.174868359E-1,-1.143490615E1,-1.016353201E1,1.531565372E1
4.385731917E0,-4.080424625E-1,-1.148159616E1,-9.814413478E0,1.511013769E1
4.395716917E0,3.400104008E-1,-1.165247285E1,-9.751172917E0,1.519806251E1
4.405702917E0,1.209405195E0,-1.153968942E1,-9.724090953E0,1.513885853E1
4.415687917E0,1.988801327E0,-1.138948731E1,-9.337998719E0,1.486182937E1
4.425673917E0,2.511108104E0,-1.116989630E1,-8.794668424E0,1.443670461E1
4.435659917E0,2.935257526E0,-1.087549835E1,-8.308529161E0,1.399728037E1
4.445644917E0,3.118049089E0,-1.079640891E1,-8.311276767E0,1.397719560E1
4.455630917E0,2.989242237E0,-1.101150926E1,-8.569567578E0,1.426977203E1
4.465615917E0,2.783908781E0,-1.133741084E1,-8.760033612E0,1.459538357E1
4.475601917E0,3.233555864E0,-1.134158108E1,-8.732828271E0,1.467479589E1
4.485586917E0,4.578625087E0,-1.078678790E1,-8.197666537E0,1.430106071E1
4.495572917E0,5.901996462E0,-1.020449293E1,-7.473932097E0,1.395796902E1
4.505557917E0,6.981138702E0,-9.916908152E0,-6.908465413E0,1.395737293E1
4.515543917E0,7.696129215E0,-9.723706207E0,-6.446005619E0,1.397611733E1
4.525529917E0,8.171072230E0,-9.666165512E0,-6.072397774E0,1.403834719E1
4.535514917E0,8.648930082E0,-9.276190141E0,-5.577365481E0,1.385491612E1
4.545500917E0,9.546792265E0,-8.553946742E0,-4.897285768E0,1.372204997E1
4.555485917E0,1.049358629E1,-7.921318939E0,-4.480333099E0,1.389014152E1
4.565471917E0,1.130843789E1,-7.328643991E0,-3.460212654E0,1.391268708E1
4.575456917E0,1.214706193E1,-6.757510185E0,-1.936813002E0,1.403446836E1
4.585442917E0,1.348531651E1,-6.164956859E0,-6.595255798E-1,1.484235253E1
4.595427917E0,1.469666898E1,-4.439454045E0,9.233753389E-1,1.538029432E1
4.605413917E0,1.603395877E1,-2.433907316E0,3.237787494E0,1.653768444E1
4.615398917E0,1.692427103E1,-8.419747880E-1,5.655152745E0,1.786394761E1
4.625384917E0,1.663416494E1,5.292982931E-1,7.644498301E0,1.831431009E1
4.635370917E0,1.581634880E1,9.978571719E-1,9.452545089E0,1.845272925E1
4.645355917E0,1.441787257E1,4.898300991E-1,1.111886882E1,1.821384711E1
4.655341917E0,1.225927351E1,-2.407177354E-1,1.242603493E1,1.745720699E1
4.665326917E0,8.938384799E0,-3.995186474E-1,1.244902618E1,1.533077267E1
4.675312917E0,6.050572457E0,4.407835811E-2,1.255492276E1,1.393690983E1
4.685297917E0,3.972251282E0,8.751208994E-1,1.293402699E1,1.355852761E1
4.695283917E0,2.136195454E0,1.573159896E0,1.302168377E1,1.328918400E1
4.705268917E0,1.481734879E-1,1.430744673E0,1.247165140E1,1.255432492E1
4.715254917E0,-2.755508270E0,2.441732937E-1,1.109451867E1,1.143419394E1
4.725240917E0,-6.576700829E0,-1.353134287E0,1.008595583E1,1.211653710E1
4.735225917E0,-1.045107118E1,-2.600284575E0,9.546870033E0,1.439198027E1
4.745211917E0,-1.258674682E1,-2.760942672E0,9.782420438E0,1.617852742E1
4.755196917E0,-1.264045817E1,-2.123018754E0,9.203159003E0,1.577930693E1
4.765182917E0,-1.139748397E1,-1.234401311E0,7.613692830E0,1.376207491E1
4.775167917E0,-1.025793297E1,-3.156812328E-1,6.156648551E0,1.196783877E1
4.785153917E0,-9.093061779E0,1.466886605E-1,5.330449258E0,1.054129875E1
4.795138917E0,-7.408224596E0,6.047616544E-1,4.870785602E0,8.886623695E0
4.805124917E0,-5.075160992E0,1.085580683E0,4.451385289E0,6.837439250E0
4.815110917E0,-3.162329468E0,1.478925730E0,4.026947014E0,5.329526362E0
4.825095917E0,-2.383434151E0,1.363275990E0,3.214253036E0,4.227375351E0
4.835081917E0,-2.326201019E0,9.714740963E-1,2.087647192E0,3.273109210E0
4.845066917E0,-2.339378450E0,4.500682287E-1,8.926131374E-1,2.544014771E0
4.855052917E0,-2.354643630E0,2.039163103E-1,5.123096466E-2,2.364012077E0
4.865037833E0,-2.280543474E0,1.566906153E-1,-9.302230132E-1,2.467943545E0
4.875023833E0,-1.901134754E0,2.432904372E-1,-1.829311357E0,2.649506299E0
4.885008833E0,-1.278885758E0,5.512920101E-1,-1.520090713E0,2.061588572E0
4.894994833E0,-6.469627639E-1,5.048134430E-1,-8.397870523E-1,1.174154897E0
4.904980833E0,-8.017875692E-2,2.714115977E-1,-2.465940410E-1,3.753684982E-1
4.914965833E0,5.984474654E-1,1.580838606E-1,-3.774319232E-2,6.201245233E-1
4.924951833E0,1.213818162E0,1.565331790E-1,6.068883598E-2,1.225373535E0
4.934936833E0,1.711018530E0,1.369167206E-1,2.699717939E-2,1.716700162E0
4.944922833E0,2.164045596E0,1.770661153E-2,-4.695232308E-1,2.214465834E0
4.954907833E0,2.693111755E0,-1.741128328E-1,-1.148532318E0,2.932966534E0
4.964893833E0,3.088589355E0,-3.060931148E-1,-1.670909700E0,3.524913676E0
4.974878833E0,3.695124250E0,-4.131086364E-1,-1.834971462E0,4.146290178E0
4.984864833E0,4.641200527E0,-3.236581506E-1,-1.829854563E0,4.999386428E0
4.994849833E0,5.806086338E0,-2.242655709E-2,-1.456418043E0,5.986008271E0
5.004835833E0,6.885282372E0,2.349969658E-1,-1.578552929E0,7.067826135E0
5.014821833E0,7.850208026E0,4.674116550E-1,-1.747172011E0,8.055858100E0
5.024806833E0,8.586187119E0,6.511278087E-1,-1.671544708E0,8.771581293E0
5.034792833E0,9.084196231E0,6.306622615E-1,-1.506522834E0,9.229841120E0
5.044777833E0,9.494794146E0,6.424805076E-1,-1.167183182E0,9.587815896E0
5.054763833E0,9.654040725E0,7.378369005E-1,-5.481688660E-1,9.697700486E0
5.064748833E0,9.825028514E0,7.627976409E-1,3.299022460E-1,9.860115670E0
5.074734833E0,1.021123360E1,7.969525431E-1,1.217675643E0,1.031441510E1
5.084719833E0,1.027602660E1,6.836131847E-1,2.495610352E0,1.059679766E1
5.094705833E0,1.006351188E1,3.736888281E-1,4.247716827E0,1.092963920E1
5.104691833E0,9.839433714E0,9.115268335E-2,6.087653745E0,1.157075161E1
5.114676833E0,9.125100428E0,-1.244980386E-1,7.984717959E0,1.212595062E1
5.124662833E0,8.253340216E0,-1.729571307E-1,9.703207623E0,1.273969297E1
5.134647833E0,7.741176165E0,-2.118965171E-1,1.090290776E1,1.337326086E1
5.144633833E0,6.895565870E0,-3.029614922E-1,1.246650000E1,1.424971005E1
5.154618833E0,5.532565284E0,-7.229191916E-1,1.442290819E1,1.546454563E1
5.164604833E0,4.063547953E0,-1.145068135E0,1.587494024E1,1.642672610E1
5.174589833E0,2.215214434E0,-1.704961399E0,1.629660284E1,1.653461014E1
5.184575833E0,-1.740371662E-1,-2.632532554E0,1.653086685E1,1.674007394E1
5.194561833E0,-2.928585853E0,-3.827533572E0,1.675200270E1,1.743147220E1
5.204546833E0,-5.645218910E0,-4.838594926E0,1.674764887E1,1.832387077E1
5.214532833E0,-7.787852148E0,-5.394414289E0,1.609487741E1,1.867606557E1
5.224517833E0,-8.990385842E0,-5.732219047E0,1.543165580E1,1.875690202E1
5.234503833E0,-9.791521044E0,-5.952157386E0,1.478468244E1,1.870531734E1
5.244488833E0,-1.058437250E1,-6.403597518E0,1.396931745E1,1.865949711E1
5.254474833E0,-1.155368415E1,-6.887377430E0,1.278866287E1,1.855999685E1
5.264459833E0,-1.211007244E1,-7.493564708E0,1.095922580E1,1.796975227E1
5.274445833E0,-1.273210626E1,-8.162148210E0,9.492493266E0,1.785594079E1
5.284431833E0,-1.359535994E1,-8.866994973E0,8.540770041E0,1.834126944E1
5.294416833E0,-1.465795339E1,-9.723730180E0,7.138330570E0,1.898321073E1
5.304402833E0,-1.540807515E1,-1.061893890E1,5.442553831E0,1.948825378E1
5.314387833E0,-1.547772367E1,-1.113511004E1,3.880257331E0,1.945782626E1
5.324373833E0,-1.509994443E1,-1.137324375E1,2.295768893E0,1.904283461E1
5.334358833E0,-1.438462647E1,-1.155264919E1,8.754041970E-1,1.847017906E1
5.344344833E0,-1.343970005E1,-1.165029535E1,-2.730076683E-1,1.778846402E1
5.354329833E0,-1.270743101E1,-1.185683070E1,-1.482824653E0,1.744310770E1
5.364315833E0,-1.180869058E1,-1.224734519E1,-2.303353901E0,1.716822869E1
5.374301833E0,-1.080405239E1,-1.235041406E1,-3.126880431E0,1.670442027E1
5.384286833E0,-9.766725926E0,-1.239777650E1,-4.214932659E0,1.633583346E1
5.394272833E0,-8.909125916E0,-1.248820720E1,-5.326821645E0,1.623893077E1
5.404257833E0,-8.157302037E0,-1.255274409E1,-6.224395561E0,1.621283630E1
5.414243833E0,-7.515840261E0,-1.272855115E1,-7.198559815E0,1.644150640E1
5.424228833E0,-6.954965395E0,-1.281981683E1,-7.737286012E0,1.651014361E1
5.434214833E0,-6.161121086E0,-1.285693964E1,-8.131545053E0,1.641287101E1
5.444199833E0,-5.323691631E0,-1.277612644E1,-8.473113078E0,1.622851640E1
5.454185833E0,-4.284264556E0,-1.274945846E1,-8.730598143E0,1.603517876E1
5.464171833E0,-3.162643756E0,-1.270739827E1,-9.023260058E0,1.590281448E1
5.474156833E0,-2.371524542E0,-1.265822552E1,-9.510348909E0,1.600942030E1
5.484142833E0,-1.851099398E0,-1.262727738E1,-9.774577568E0,1.607535597E1
5.494127833E0,-1.264197845E0,-1.252933535E1,-9.899446027E0,1.601816070E1
5.504113833E0,-3.107666481E-1,-1.235402062E1,-1.001087992E1,1.590396549E1
5.514098833E0,7.145891020E-1,-1.218215107E1,-1.017004113E1,1.588537626E1
5.524084833E0,1.710288359E0,-1.186956126E1,-1.009830983E1,1.567760926E1
5.534069833E0,2.606136468E0,-1.147542735E1,-1.005151106E1,1.547611885E1
5.544055833E0,3.039039757E0,-1.109455727E1,-9.874525194E0,1.516018507E1
5.554041833E0,3.082049244E0,-1.099484587E1,-9.704572363E0,1.498547256E1
5.564026833E0,3.003902961E0,-1.118172639E1,-9.741905665E0,1.513139663E1
5.574012833E0,2.895819226E0,-1.125009203E1,-9.790162151E0,1.519202471E1
5.583997833E0,3.024083164E0,-1.108492924E1,-9.617934169E0,1.498417141E1
5.593983833E0,3.428333049E0,-1.093235901E1,-9.493852159E0,1.487962264E1
5.603968833E0,4.002015364E0,-1.078487352E1,-9.313580747E0,1.480109490E1
5.613954833E0,4.447218563E0,-1.055032533E1,-8.833257124E0,1.446075893E1
5.623939833E0,4.489733376E0,-1.038700558E1,-8.468155224E0,1.413355028E1
5.633925833E0,4.515810203E0,-1.044235532E1,-8.153583208E0,1.399700845E1
5.643910833E0,4.582049509E0,-1.043288166E1,-7.691122829E0,1.374749315E1
5.653896833E0,4.911555313E0,-1.045700377E1,-7.225121377E0,1.362624975E1
5.663882833E0,5.468720706E0,-1.048402258E1,-6.713480067E0,1.359751633E1
5.673867833E0,6.409872749E0,-1.017356701E1,-5.843664054E0,1.336923124E1
5.683853833E0,8.037891954E0,-9.283666976E0,-4.523023036E0,1.308632557E1
5.693838833E0,1.010653453E1,-8.022023195E0,-2.660048674E0,1.317462543E1
5.703824833E0,1.200431502E1,-6.780061727E0,-1.017083402E0,1.382415548E1
5.713809833E0,1.353273977E1,-5.806027865E0,2.884495801E-1,1.472848290E1
5.723795833E0,1.463257297E1,-4.958787952E0,1.330933287E0,1.550719682E1
5.733780833E0,1.513249120E1,-3.891130520E0,2.610794653E0,1.584138363E1
5.743766833E0,1.496118298E1,-2.902087149E0,4.148857952E0,1.579468671E1
5.753752833E0,1.439129112E1,-2.053256939E0,5.485446081E0,1.553754302E1
5.763737833E0,1.417189541E1,-1.256005896E0,6.602070728E0,1.568462649E1
5.773723833E0,1.405085687E1,-3.076870658E-1,8.375024282E0,1.636038759E1
5.783708833E0,1.339102315E1,3.739262981E-1,1.093525572E1,1.729274818E1
5.793694833E0,1.165989882E1,3.173665465E-1,1.265286479E1,1.720897875E1
5.803679833E0,9.104038757E0,-5.737777703E-2,1.355028142E1,1.632473401E1
5.813665833E0,5.645898356E0,-2.176260941E-1,1.418343313E1,1.526739352E1
5.823650833E0,1.998511652E0,-7.705300902E-3,1.425660519E1,1.439600291E1
5.833636833E0,-7.014997443E-1,6.031413544E-1,1.450015692E1,1.452963978E1
5.843622833E0,-1.968628141E0,1.168115886E0,1.479957179E1,1.497555731E1
5.853607833E0,-2.678698953E0,1.598763538E0,1.484369488E1,1.516795143E1
5.863593333E0,-3.819977215E0,1.729900213E0,1.467449400E1,1.526189879E1
5.873578333E0,-5.553363245E0,1.463726478E0,1.394564091E1,1.508188446E1
5.883564333E0,-7.394423997E0,1.367238064E0,1.315179133E1,1.514980071E1
5.893549333E0,-8.733533446E0,1.232292220E0,1.169785777E1,1.465035928E1
5.903535333E0,-9.557786200E0,9.374944644E-1,9.630365934E0,1.360051914E1
5.913520333E0,-9.905652262E0,7.184572544E-1,7.586971639E0,1.249801049E1
5.923506333E0,-9.632411290E0,5.785162442E-1,5.987120812E0,1.135621609E1
5.933492333E0,-8.690886194E0,5.450569413E-1,5.183194149E0,1.013380933E1
5.943477333E0,-7.227192460E0,8.287795226E-1,4.830680135E0,8.732391249E0
5.953463333E0,-5.222660515E0,1.227105009E0,4.532664510E0,7.023319523E0
5.963448333E0,-3.606483385E0,1.274321129E0,3.689396026E0,5.314344718E0
5.973434333E0,-2.346526233E0,9.032056609E-1,2.335799516E0,3.431898193E0
5.983419333E0,-1.291106877E0,6.796450449E-1,9.843354857E-1,1.760054177E0
5.993405333E0,-4.659208343E-1,6.127988715E-1,-2.039795333E-1,7.963744916E-1
6.003390333E0,2.416156485E-1,5.047071699E-1,-1.040068806E0,1.181037921E0
6.013376333E0,8.755823178E-1,4.576022564E-1,-1.899458649E0,2.141024843E0
6.023362333E0,1.447161023E0,4.497449508E-1,-2.901706495E0,3.273598346E0
6.033347333E0,1.658788715E0,3.660089123E-1,-3.651410174E0,4.027199869E0
6.043333333E0,1.469351791E0,1.221507013E-1,-4.021554127E0,4.283317999E0
6.053318333E0,1.073091103E0,-2.810709056E-1,-4.641116327E0,4.771843054E0
6.063304333E0,7.592087661E-1,-5.619672717E-1,-5.031707409E0,5.119598091E0
6.073289333E0,6.133976264E-1,-6.882781664E-1,-5.124922552E0,5.207188746E0
6.083275333E0,6.240719379E-1,-9.119757535E-1,-5.066966119E0,5.186068956E0
6.093260333E0,8.851441965E-1,-1.202577840E0,-5.249134369E0,5.457388142E0
6.103246333E0,1.388573238E0,-1.219249933E0,-5.395231145E0,5.702913742E0
6.113232333E0,1.883066857E0,-1.168528553E0,-5.098214809E0,5.559064131E0
6.123217333E0,2.487556981E0,-1.252070427E0,-5.473337082E0,6.141094276E0
6.133203333E0,3.053753398E0,-8.446453576E-1,-4.989361289E0,5.910377455E0
6.143188333E0,3.730282389E0,-4.781847844E-1,-4.045812471E0,5.523790903E0
6.153174333E0,4.537784917E0,-3.654253236E-1,-3.679037683E0,5.853233798E0
6.163159333E0,5.387197071E0,-1.993578941E-1,-3.388856158E0,6.367572686E0
6.173145333E0,6.258602942E0,-9.540689819E-2,-2.895612527E0,6.896650286E0
6.183130333E0,7.060491266E0,-8.411811747E-2,-2.413901360E0,7.462206949E0
6.193116333E0,7.725583395E0,9.694332719E-2,-1.775777759E0,7.927636687E0
6.203102333E0,8.116027712E0,1.526045810E-1,-9.314263701E-1,8.170725124E0
6.213087333E0,8.337870489E0,-2.553946853E-2,2.797799134E-1,8.342602313E0
6.223073333E0,8.715458533E0,-4.427745581E-2,1.675641852E0,8.875187522E0
6.233058333E0,9.356860667E0,-3.494296074E-3,2.875740765E0,9.788806807E0
6.243044333E0,9.793735385E0,-1.280885214E-1,3.688391474E0,1.046603512E1
6.253029333E0,9.861518648E0,-2.321416242E-1,4.765744466E0,1.095517047E1
6.263015333E0,9.526098969E0,-2.127977192E-1,5.828544323E0,1.116977052E1
6.273000333E0,8.858663861E0,-4.470591053E-1,6.760767669E0,1.115274705E1
6.282986333E0,7.871174387E0,-9.510544498E-1,8.039096480E0,1.129101249E1
6.292972333E0,6.589023251E0,-1.350089934E0,9.909759346E0,1.197669823E1
6.302957333E0,4.920544238E0,-1.559887155E0,1.175446116E1,1.283792665E1
6.312943333E0,3.175501491E0,-1.615287477E0,1.334840981E1,1.381567978E1
6.322928333E0,1.557036491E0,-1.497782708E0,1.440943620E1,1.457050333E1
6.332914333E0,1.076413564E-1,-1.420212230E0,1.549927066E1,1.556457454E1
6.342899333E0,-1.104530047E0,-1.411692690E0,1.679864360E1,1.689400159E1
6.352885333E0,-2.263917940E0,-1.336597484E0,1.775186956E1,1.794549220E1
6.362870333E0,-3.564072945E0,-1.505422826E0,1.822122439E1,1.862745104E1
6.372856333E0,-5.206742640E0,-1.764083912E0,1.832239994E1,1.912936226E1
6.382842333E0,-6.821541874E0,-1.711346120E0,1.824934132E1,1.955762249E1
6.392827333E0,-7.672993537E0,-1.803962800E0,1.800153982E1,1.965157876E1
6.402813333E0,-8.207758831E0,-2.337105784E0,1.779816431E1,1.973838953E1
6.412798333E0,-9.184338570E0,-3.019903282E0,1.770032168E1,2.016862113E1
6.422784333E0,-9.969102738E0,-3.917311721E0,1.691010791E1,2.001699503E1
6.432769333E0,-1.048377700E1,-4.949102039E0,1.574098871E1,1.954947357E1
6.442755333E0,-1.093674793E1,-5.999538544E0,1.433808380E1,1.900493528E1
6.452740333E0,-1.156724150E1,-7.202973293E0,1.244397418E1,1.845362820E1
6.462726333E0,-1.225803741E1,-8.373829696E0,1.009166272E1,1.795054766E1
6.472712333E0,-1.275934727E1,-9.347677031E0,8.005068024E0,1.772741162E1
6.482697333E0,-1.333599032E1,-1.047689600E1,6.004794021E0,1.799087376E1
6.492683333E0,-1.386196374E1,-1.168686969E1,3.995587812E0,1.856614348E1
6.502668333E0,-1.443774842E1,-1.265614157E1,2.095966610E0,1.931371469E1
6.512654333E0,-1.464796284E1,-1.351180089E1,7.266007447E-1,1.994140234E1
6.522639333E0,-1.450119305E1,-1.416501791E1,-4.558612114E-1,2.027659098E1
6.532625333E0,-1.390294922E1,-1.470592746E1,-2.048187257E0,2.034087929E1
6.542611333E0,-1.306431699E1,-1.495154677E1,-3.687050707E0,2.019454065E1
6.552596333E0,-1.195552936E1,-1.493823500E1,-4.941749750E0,1.976123574E1
6.562582333E0,-1.054927868E1,-1.479027355E1,-6.007776686E0,1.913459832E1
6.572567333E0,-9.212509285E0,-1.456681635E1,-7.096515961E0,1.863928659E1
6.582553333E0,-7.924710909E0,-1.449664509E1,-8.307937422E0,1.849258192E1
6.592538333E0,-6.935895871E0,-1.416489395E1,-8.939246094E0,1.812900971E1
6.602524333E0,-5.896414125E0,-1.387744834E1,-9.208351915E0,1.766762624E1
6.612509333E0,-4.904532223E0,-1.372414721E1,-9.725446338E0,1.752115748E1
6.622495333E0,-3.970225514E0,-1.360301161E1,-1.031606248E1,1.752785670E1
6.632481333E0,-3.078308780E0,-1.343439194E1,-1.066356485E1,1.742614378E1
6.642466333E0,-2.135921512E0,-1.327300528E1,-1.119790446E1,1.749651092E1
6.652452333E0,-1.093569806E0,-1.316857284E1,-1.192966245E1,1.780236085E1
6.662437333E0,-2.650140494E-1,-1.298468610E1,-1.224236804E1,1.784790970E1
6.672423333E0,3.293429598E-1,-1.290384834E1,-1.231821461E1,1.784253850E1
6.682408333E0,7.600228447E-1,-1.286177178E1,-1.230443506E1,1.781577756E1
6.692394333E0,1.084045642E0,-1.292626423E1,-1.228272786E1,1.786417827E1
6.702379333E0,1.240762789E0,-1.314517696E1,-1.217873162E1,1.796264662E1
6.712365333E0,1.354344515E0,-1.329621756E1,-1.228758689E1,1.815512165E1
6.722350333E0,1.691489853E0,-1.314650545E1,-1.202513813E1,1.789680671E1
6.732336333E0,2.254481411E0,-1.292935390E1,-1.172390829E1,1.759832106E1
6.742322333E0,3.048208191E0,-1.275100212E1,-1.142760999E1,1.739166175E1
6.752307333E0,4.045965376E0,-1.235065262E1,-1.098054708E1,1.701413737E1
6.762293333E0,5.099746195E0,-1.174513719E1,-1.038559055E1,1.648684779E1
6.772278333E0,6.274603263E0,-1.103628508E1,-9.531339244E0,1.587503267E1
6.782264333E0,7.513176270E0,-9.917871773E0,-8.299557193E0,1.495642497E1
6.792249333E0,8.343358101E0,-8.786734337E0,-7.248955212E0,1.411969109E1
6.802235333E0,8.513750058E0,-7.984507459E0,-6.386097971E0,1.330483171E1
6.812221333E0,8.138412607E0,-7.636932589E0,-5.398816073E0,1.239773020E1
6.822206333E0,7.637711438E0,-7.485166937E0,-4.159877615E0,1.147462164E1
6.832192333E0,7.913032849E0,-6.817234815E0,-2.782890489E0,1.080903598E1
6.842177333E0,8.764025506E0,-5.838224974E0,-1.341657665E0,1.061569871E1
6.852163333E0,9.551910918E0,-4.861621846E0,-1.851082295E-1,1.071954450E1
6.862148583E0,1.023956687E1,-3.934332381E0,8.754995066E-1,1.100428100E1
6.872134583E0,1.107446155E1,-2.926360695E0,2.022470033E0,1.163175269E1
6.882119583E0,1.175922898E1,-1.688267160E0,3.310895231E0,1.233254797E1
6.892105583E0,1.174882678E1,-7.863151422E-1,4.798869528E0,1.271543829E1
6.902091583E0,1.122849125E1,-3.790570106E-1,6.269334921E0,1.286573979E1
6.912076583E0,1.039058641E1,-4.855701832E-1,6.675916384E0,1.235993220E1
6.922062583E0,9.264351869E0,-7.677376610E-1,6.889853141E0,1.157098583E1
6.932047583E0,7.757496328E0,-1.418361147E0,7.342335246E0,1.077498884E1
6.942033583E0,6.007459767E0,-2.068435726E0,7.591283961E0,9.899272265E0
6.952018583E0,4.979900494E0,-1.432039539E0,8.678766085E0,1.010797343E1
6.962004583E0,4.668208816E0,-9.721796360E-2,9.489406521E0,1.057593783E1
6.971989583E0,4.467107282E0,7.883812559E-1,9.977598742E0,1.096034074E1
6.981975583E0,3.721044665E0,1.546453031E0,1.024284131E1,1.100697454E1
6.991961583E0,2.488038207E0,1.998745540E0,1.071833805E1,1.118338448E1
7.001946583E0,7.242356922E-1,1.523689674E0,1.147461576E1,1.159797199E1
7.011932583E0,-1.436391329E0,4.255616708E-1,1.196665428E1,1.206006374E1
7.021917583E0,-3.303209066E0,-1.308098521E-1,1.249937772E1,1.292914324E1
7.031903583E0,-4.372431505E0,-3.840130009E-1,1.274820832E1,1.348267179E1
7.041888583E0,-5.175643639E0,-5.564429685E-1,1.229741723E1,1.335377798E1
7.051874583E0,-5.783813708E0,-1.152196768E-1,1.157092057E1,1.293645931E1
7.061860583E0,-5.806358818E0,4.200196067E-1,9.668658764E0,1.128597278E1
7.071845583E0,-5.594136465E0,8.597095393E-1,7.770273079E0,9.613043587E0
7.081831583E0,-5.631403694E0,1.155566591E0,6.478442463E0,8.661308126E0
7.091816583E0,-5.563484191E0,1.052906515E0,5.664938060E0,8.009525060E0
7.101802583E0,-5.407100993E0,7.364248710E-1,4.657410178E0,7.174296642E0
7.111787583E0,-5.143955238E0,6.361244380E-1,3.948338801E0,6.515697130E0
7.121773583E0,-4.381714253E0,7.537366493E-1,3.516447666E0,5.668592675E0
7.131758583E0,-3.497487777E0,9.812895249E-1,2.642200633E0,4.491834153E0
7.141744583E0,-2.539159829E0,1.220060430E0,1.758171793E0,3.320699948E0
7.151730583E0,-1.578525740E0,1.359901562E0,1.039300482E0,2.328351619E0
7.161715583E0,-8.888577631E-1,1.472248210E0,2.803137642E-1,1.742457667E0
7.171701583E0,-5.693287700E-1,1.512115257E0,-7.791707218E-2,1.617621361E0
7.181686583E0,-5.782994587E-1,1.241005741E0,-5.143123180E-1,1.462546640E0
7.191672583E0,-7.329219503E-1,8.817366584E-1,-9.404304975E-1,1.482917274E0
7.201657583E0,-8.612751313E-1,5.517919470E-1,-1.240700809E0,1.607982494E0
7.211643583E0,-1.018634522E0,2.070702071E-1,-1.493901619E0,1.819955056E0
7.221628583E0,-1.051122675E0,-1.488032147E-1,-2.025680739E0,2.287003221E0
7.231614583E0,-7.773564038E-1,-4.104548410E-1,-2.438852014E0,2.592441957E0
7.241600583E0,-1.819871685E-1,-2.887377199E-1,-2.337572392E0,2.362357612E0
7.251585583E0,6.584416522E-1,-7.796777850E-2,-2.483105496E0,2.570104529E0
7.261571583E0,1.529656319E0,7.034384983E-2,-3.057390951E0,3.419420439E0
7.271556583E0,2.090548142E0,1.256063418E-1,-3.736537448E0,4.283442609E0
7.281542583E0,2.296120310E0,-2.331635714E-2,-4.228847862E0,4.812054278E0
7.291527583E0,2.288488671E0,-2.154059794E-1,-4.647096274E0,5.184504211E0
7.301513583E0,2.403557343E0,-2.450838514E-1,-4.948478726E0,5.506777252E0
7.311498583E0,2.724463940E0,-2.766019517E-1,-5.063648409E0,5.756713265E0
7.321484583E0,3.193891569E0,-4.342974110E-1,-5.348366881E0,6.244564508E0
7.331470583E0,3.727772471E0,-5.667911515E-1,-5.761593120E0,6.885745790E0
7.341455583E0,4.358818603E0,-5.529719152E-1,-5.881891980E0,7.341779813E0
7.351441583E0,5.361597376E0,-4.253599419E-1,-5.496809560E0,7.690420849E0
7.361426583E0,6.487345433E0,-2.568095653E-1,-4.873534963E0,8.118062882E0
7.371412583E0,7.552412841E0,-2.183413182E-1,-3.992284135E0,8.545463432E0
7.381397583E0,8.538447527E0,-3.078534190E-1,-2.895279236E0,9.021225070E0
7.391383583E0,9.493552782E0,-3.423022901E-1,-1.455862557E0,9.610632189E0
7.401368583E0,1.036068960E1,-4.764381480E-1,5.135784924E-2,1.037176552E1
7.411354583E0,1.111007928E1,-7.132340097E-1,1.522021464E0,1.123650808E1
7.421340583E0,1.153927427E1,-9.436110905E-1,2.919787256E0,1.194028518E1
7.431325583E0,1.158473637E1,-1.128059023E0,4.136765910E0,1.235279183E1
7.441311583E0,1.124565283E1,-1.383222890E0,5.193698087E0,1.246404881E1
7.451296583E0,1.043985271E1,-1.756343222E0,6.484219512E0,1.241452250E1
7.461282583E0,9.306690972E0,-2.040731911E0,8.011308757E0,1.244829914E1
7.471267583E0,7.949852766E0,-2.109453652E0,9.501346536E0,1.256684287E1
7.481253583E0,6.904480535E0,-2.096354865E0,1.071505192E1,1.291816136E1
7.491239583E0,5.658360527E0,-2.122118575E0,1.166690261E1,1.313914182E1
7.501224583E0,3.824387185E0,-2.234556146E0,1.283486172E1,1.357766010E1
7.511210583E0,1.556333802E0,-2.385704332E0,1.416460861E1,1.444817971E1
7.521195583E0,-1.042207060E0,-2.699037908E0,1.544305787E1,1.571174839E1
7.531181583E0,-3.435561962E0,-2.956103142E0,1.626855024E1,1.688808333E1
7.541166583E0,-5.038933398E0,-2.859507432E0,1.661057610E1,1.759201156E1
7.551152583E0,-6.370689973E0,-2.487742338E0,1.695319721E1,1.828073982E1
7.561137583E0,-7.496162626E0,-2.390501388E0,1.726883342E1,1.897681634E1
7.571123583E0,-8.395770203E0,-2.607926593E0,1.738332073E1,1.947999174E1
7.581109583E0,-9.497045324E0,-2.942552805E0,1.721771355E1,1.988220679E1
7.591094583E0,-1.063586659E1,-3.564577852E0,1.651017473E1,1.996030418E1
7.601080583E0,-1.167962031E1,-4.454814388E0,1.563049855E1,2.001427957E1
7.611065583E0,-1.266189523E1,-5.334945767E0,1.465537009E1,2.008893003E1
7.621051583E0,-1.339208383E1,-6.539986746E0,1.301631369E1,1.978746467E1
7.631036583E0,-1.417018334E1,-7.702714934E0,1.117657616E1,1.962248119E1
7.641022583E0,-1.480531258E1,-8.801357639E0,9.105987049E0,1.948281749E1
7.651007583E0,-1.531337247E1,-9.867489824E0,6.699086561E0,1.940990708E1
7.660993583E0,-1.550187969E1,-1.076285758E1,4.764327686E0,1.946397173E1
7.670979583E0,-1.528343473E1,-1.143205154E1,2.782337342E0,1.928773135E1
7.680964583E0,-1.474424894E1,-1.192514489E1,8.918559229E-1,1.898413455E1
7.690950583E0,-1.404603058E1,-1.234321964E1,-5.920732695E-1,1.870819599E1
7.700935583E0,-1.336222912E1,-1.260477963E1,-1.770336925E0,1.845436884E1
7.710921583E0,-1.247114737E1,-1.263232470E1,-2.842502267E0,1.797734583E1
7.720906583E0,-1.128301653E1,-1.260404405E1,-3.779787548E0,1.733364308E1
7.730892583E0,-1.020912977E1,-1.274683189E1,-4.606325394E0,1.696839083E1
7.740877583E0,-9.288973909E0,-1.288666571E1,-5.433477198E0,1.678909956E1
7.750863583E0,-8.441619390E0,-1.297272152E1,-6.181011559E0,1.666605369E1
7.760849583E0,-7.667325831E0,-1.294570505E1,-6.833328692E0,1.652493708E1
7.770834583E0,-6.812640073E0,-1.296786132E1,-7.507107444E0,1.646007759E1
7.780820583E0,-5.789427035E0,-1.289404607E1,-8.189644741E0,1.633536563E1
7.790805583E0,-4.808534975E0,-1.260593504E1,-8.597309693E0,1.599829181E1
7.800791583E0,-3.813600242E0,-1.226532771E1,-8.737546390E0,1.553468788E1
7.810776583E0,-2.852970538E0,-1.202903003E1,-9.322964943E0,1.548401368E1
7.820762583E0,-2.158226008E0,-1.173882571E1,-9.830929524E0,1.546302505E1
7.830748583E0,-1.725466269E0,-1.149898695E1,-9.775625389E0,1.519101006E1
7.840733583E0,-1.337552627E0,-1.152133735E1,-9.873770903E0,1.523225568E1
7.850719583E0,-9.097855327E-1,-1.163441431E1,-1.024029309E1,1.552581427E1
7.860704583E0,-4.918625182E-1,-1.163485753E1,-1.038756106E1,1.560491152E1
7.870690667E0,-9.442595467E-2,-1.161873091E1,-1.050197938E1,1.566190905E1
7.880675667E0,4.067031943E-1,-1.162243805E1,-1.071321355E1,1.581200235E1
7.890661667E0,9.108567426E-1,-1.149916237E1,-1.081867277E1,1.581467912E1
7.900646667E0,1.327758248E0,-1.156457751E1,-1.096418190E1,1.599111252E1
7.910632667E0,1.498280014E0,-1.165014683E1,-1.121448132E1,1.623993090E1
7.920618667E0,1.781643978E0,-1.164209171E1,-1.122341002E1,1.626891167E1
7.930603667E0,2.268461080E0,-1.146551866E1,-1.089184950E1,1.597612028E1
7.940589667E0,3.223729326E0,-1.117651067E1,-1.047804205E1,1.565554811E1
7.950574667E0,4.447447774E0,-1.079943075E1,-1.000768267E1,1.538054643E1
7.960560667E0,5.643096371E0,-1.043470716E1,-9.534763958E0,1.521970348E1
7.970545667E0,6.688981403E0,-1.011366228E1,-8.976240258E0,1.508646831E1
7.980531667E0,7.782898387E0,-9.592508136E0,-8.020474852E0,1.472812739E1
7.990516667E0,8.778071102E0,-8.803694186E0,-6.898457319E0,1.421788581E1
8.000502667E0,9.607128514E0,-8.232045241E0,-5.888506351E0,1.395485558E1
8.010488667E0,1.065323983E1,-7.792843332E0,-4.935915983E0,1.409195489E1
8.020473667E0,1.209279509E1,-7.104183415E0,-3.761670535E0,1.452085673E1
8.030459667E0,1.345248674E1,-5.977714981E0,-2.013196934E0,1.485784095E1
8.040444667E0,1.441936010E1,-4.842003560E0,-3.700620925E-1,1.521512044E1
8.050430667E0,1.495043229E1,-4.094115735E0,7.665401512E-1,1.551981937E1
8.060415667E0,1.513427343E1,-3.250463965E0,2.084354625E0,1.561909992E1
8.070401667E0,1.507198421E1,-2.154705692E0,3.929855753E0,1.572422433E1
8.080386667E0,1.456011310E1,-1.174484892E0,5.484293595E0,1.560300563E1
8.090372667E0,1.402044434E1,-3.762373370E-1,6.467053256E0,1.544464929E1
8.100358667E0,1.303167783E1,6.222402976E-1,7.315201242E0,1.495740550E1
8.110343667E0,1.141884034E1,1.300013503E0,8.550027938E0,1.432420774E1
8.120329667E0,9.464994981E0,1.025092041E0,9.932156521E0,1.375807679E1
8.130314667E0,7.189983119E0,-4.959732570E-2,1.153189274E1,1.358980748E1
8.140300667E0,4.732617066E0,-7.270401630E-1,1.338742945E1,1.421792949E1
8.150285667E0,2.454235746E0,-5.927951083E-1,1.436508858E1,1.458528193E1
8.160271667E0,3.672132560E-1,-1.654133454E-1,1.450091005E1,1.450650197E1
8.170257667E0,-1.603799891E0,2.582440152E-1,1.440129688E1,1.449262626E1
8.180242667E0,-3.160199035E0,9.111534888E-1,1.369532043E1,1.408470306E1
8.190228667E0,-4.453657809E0,1.487589257E0,1.247172039E1,1.332635731E1
8.200213667E0,-5.853395575E0,1.931265310E0,1.131851381E1,1.288800917E1
8.210199667E0,-7.443264620E0,1.841426642E0,1.089135834E1,1.331971196E1
8.220184667E0,-8.850491207E0,1.158643762E0,1.093952302E1,1.411902312E1
8.230170667E0,-9.668510245E0,6.450895353E-1,1.063442934E1,1.438705384E1
8.240155667E0,-9.769047856E0,5.061192725E-1,9.677685696E0,1.376037983E1
8.250141667E0,-9.504808087E0,3.351025038E-1,8.205585421E0,1.256126198E1
8.260127667E0,-8.746609574E0,1.403019296E-1,6.416378946E0,1.084863044E1
8.270112667E0,-7.612808731E0,2.735760542E-1,4.735224924E0,8.969506994E0
8.280098667E0,-6.127175075E0,5.350376642E-1,3.352564244E0,7.004871642E0
8.290083667E0,-4.425827109E0,8.695752539E-1,2.158711327E0,5.000414115E0
8.300069667E0,-3.215382718E0,1.163147872E0,9.713119823E-1,3.554580982E0
8.310054667E0,-2.610144735E0,1.105298590E0,-4.080128610E-2,2.834820145E0
8.320040667E0,-2.346663935E0,7.128112561E-1,-9.486440814E-1,2.629611588E0
8.330025667E0,-2.060876154E0,2.257825397E-1,-2.044202964E0,2.911520914E0
8.340011667E0,-1.513210148E0,-3.773867443E-2,-2.819954819E0,3.200527197E0
8.349997667E0,-1.088248621E0,-4.436650707E-2,-3.032977656E0,3.222608712E0
8.359982667E0,-8.167297999E-1,-2.409954234E-1,-3.300105949E0,3.408199765E0
8.369968667E0,-5.381095720E-1,-3.978570149E-1,-3.629527554E0,3.690707572E0
8.379953667E0,-4.817023232E-1,-4.279367002E-1,-3.983550149E0,4.035323870E0
8.389939667E0,-4.240688767E-1,-5.433717007E-1,-4.456189361E0,4.509180728E0
8.399924667E0,-4.271850406E-1,-5.258561835E-1,-4.992616434E0,5.038375794E0
8.409910667E0,-4.235619961E-1,-3.871312845E-1,-5.066040505E0,5.098435230E0
8.419895667E0,-2.905836676E-1,-3.741786420E-1,-5.140428783E0,5.162214311E0
8.429881667E0,-7.810061993E-2,-4.686769194E-1,-5.275397723E0,5.296751730E0
8.439867667E0,1.662822234E-1,-5.220693804E-1,-5.149874375E0,5.178939302E0
8.449852667E0,7.043393715E-1,-4.481472356E-1,-4.758445387E0,4.831121236E0
8.459838667E0,1.382244943E0,-2.579648655E-1,-4.336266477E0,4.558547346E0
8.469823667E0,2.229448311E0,-1.696709224E-1,-4.221158189E0,4.776756687E0
8.479809667E0,3.170343370E0,-1.776994418E-2,-4.118160070E0,5.197175696E0
8.489794667E0,4.220194860E0,2.172833376E-1,-3.963636287E0,5.793761241E0
8.499780667E0,5.263488114E0,3.764109262E-1,-3.551988797E0,6.361023245E0
8.509766667E0,6.284434771E0,3.678661707E-1,-2.909518375E0,6.935037353E0
8.519751667E0,7.188043013E0,3.537955771E-1,-2.273755295E0,7.547390066E0
8.529737667E0,7.982936897E0,2.594128919E-1,-1.461437293E0,8.119752183E0
8.539722667E0,8.729190134E0,9.550988227E-3,-5.872990179E-1,8.748929749E0
8.549708667E0,9.278723740E0,-2.276141252E-1,3.490179634E-1,9.288074934E0
8.559693667E0,9.536860769E0,-4.158881834E-1,1.464671972E0,9.657636372E0
8.569679667E0,9.816669334E0,-6.815301141E-1,2.932034833E0,1.026782881E1
8.579664667E0,1.030640639E1,-9.499540038E-1,4.356996610E0,1.122977492E1
8.589650667E0,1.026108111E1,-1.006867585E0,5.433695884E0,1.165455357E1
8.599636667E0,9.769212747E0,-1.122424500E0,6.607788135E0,1.184737180E1
8.609621667E0,8.896715201E0,-1.424667954E0,7.677420464E0,1.183739858E1
8.619607667E0,7.706183503E0,-1.689575328E0,8.753222190E0,1.178383756E1
8.629592667E0,6.367248886E0,-1.921990748E0,9.464806700E0,1.156799346E1
8.639578667E0,5.006615252E0,-2.271357352E0,9.938620033E0,1.135787959E1
8.649563667E0,3.512270707E0,-2.344853929E0,1.024350087E1,1.107987796E1
8.659549667E0,1.721190639E0,-1.918376877E0,1.070628343E1,1.101213749E1
8.669534667E0,-3.215018071E-1,-1.605933978E0,1.083387553E1,1.095697250E1
8.679520667E0,-2.296592473E0,-1.768679239E0,1.100931772E1,1.138453512E1
8.689506667E0,-4.218671953E0,-2.280224508E0,1.221511767E1,1.312271758E1
8.699491667E0,-6.205194474E0,-2.492177159E0,1.390399704E1,1.542843216E1
8.709477667E0,-7.671049923E0,-2.590976685E0,1.487219421E1,1.693340862E1
8.719462667E0,-8.799252641E0,-2.635611698E0,1.521672853E1,1.777419824E1
8.729448667E0,-9.466173195E0,-2.693479545E0,1.571645496E1,1.854373812E1
8.739433667E0,-9.736663052E0,-2.800064346E0,1.596479323E1,1.890813557E1
8.749419667E0,-9.927748890E0,-2.836212125E0,1.525855132E1,1.842356333E1
8.759405667E0,-9.883688951E0,-2.858528024E0,1.404421444E1,1.740972283E1
8.769390667E0,-9.953316425E0,-2.864964639E0,1.303434182E1,1.664844128E1
8.779376667E0,-9.899856502E0,-3.371325036E0,1.223604720E1,1.609639221E1
8.789361667E0,-1.009424251E1,-4.130112656E0,1.062587954E1,1.522697864E1
8.799347667E0,-1.041484066E1,-5.012536143E0,8.683785920E0,1.445692092E1
8.809332667E0,-1.066200013E1,-6.049078494E0,7.049254671E0,1.414077752E1
8.819318667E0,-1.097258201E1,-6.984012609E0,5.529766806E0,1.413337571E1
8.829303667E0,-1.092970087E1,-7.897973346E0,4.110455194E0,1.409724037E1
8.839289667E0,-1.098020561E1,-8.753725635E0,2.654285658E0,1.429118120E1
8.849275667E0,-1.117498806E1,-9.623512997E0,1.279415224E0,1.480301536E1
8.859260667E0,-1.130206092E1,-1.030985508E1,-8.522316813E-3,1.529803142E1
8.869248958E0,-1.107736879E1,-1.073961958E1,-1.272506154E0,1.548117566E1
8.879233958E0,-1.071335506E1,-1.105127617E1,-2.424749699E0,1.558159468E1
8.889219958E0,-1.036865234E1,-1.146859780E1,-3.622668770E0,1.587959118E1
8.899204958E0,-9.909202691E0,-1.172673834E1,-4.764998946E0,1.607525754E1
8.909190958E0,-9.053566761E0,-1.155900511E1,-5.620533135E0,1.572157953E1
8.919175958E0,-7.964417596E0,-1.126730390E1,-6.713880601E0,1.534471497E1
8.929161958E0,-6.880365449E0,-1.089114316E1,-7.652484428E0,1.498388955E1
8.939147958E0,-5.716898757E0,-1.052413565E1,-8.065683185E0,1.443937699E1
8.949132958E0,-4.721897950E0,-1.027341991E1,-8.573388149E0,1.418951941E1
8.959118958E0,-3.939932844E0,-9.977319245E0,-9.147159049E0,1.409753485E1
8.969103958E0,-3.280781486E0,-9.955378153E0,-9.256589690E0,1.398418872E1
8.979089958E0,-3.079243165E0,-1.035043826E1,-9.061288009E0,1.409681705E1
8.989074958E0,-2.999955213E0,-1.060834842E1,-8.815413176E0,1.411553389E1
8.999060958E0,-2.588060971E0,-1.063443168E1,-8.893131443E0,1.410237510E1
9.009046958E0,-1.794964228E0,-1.055591995E1,-8.852290395E0,1.389288983E1
9.019031958E0,-1.068168624E0,-1.037147771E1,-8.429096408E0,1.340739350E1
9.029017958E0,-4.686009787E-1,-1.011073166E1,-7.813437810E0,1.278656685E1
9.039002958E0,4.967750564E-2,-9.960062943E0,-7.574672021E0,1.251323211E1
9.048988958E0,4.020674852E-1,-1.004183742E1,-7.870765666E0,1.276515214E1
9.058973958E0,4.413965155E-1,-1.007438536E1,-8.064094496E0,1.291192052E1
9.068959958E0,3.322081686E-1,-1.010866642E1,-7.872750796E0,1.281700839E1
9.078944958E0,2.544926061E-1,-1.020297499E1,-8.058844281E0,1.300424686E1
9.088930958E0,2.058217717E-1,-1.029538790E1,-8.413643972E0,1.329762307E1
9.098916958E0,3.639551874E-1,-1.054163286E1,-8.792158799E0,1.373173489E1
9.108901958E0,1.033548576E0,-1.053496119E1,-8.807580246E0,1.377051559E1
9.118887958E0,2.156345544E0,-1.004239759E1,-8.262412171E0,1.318207231E1
9.128872958E0,3.191115896E0,-9.408984502E0,-7.857749180E0,1.266713986E1
9.138858958E0,4.101897502E0,-8.891778982E0,-7.635233388E0,1.241716898E1
9.148843958E0,4.846383710E0,-8.591908035E0,-7.536145302E0,1.241377480E1
9.158829958E0,5.521478963E0,-8.383869365E0,-7.592028896E0,1.258629803E1
9.168814958E0,6.011309574E0,-8.041775090E0,-7.614670485E0,1.260115852E1
9.178800958E0,6.377525368E0,-7.702903215E0,-7.194341633E0,1.231933843E1
9.188786958E0,6.895542482E0,-7.644985959E0,-6.594549454E0,1.222629948E1
9.198771958E0,7.699705957E0,-7.593540401E0,-6.061117326E0,1.239695410E1
9.208757958E0,8.552459795E0,-7.415495024E0,-5.511508291E0,1.259010956E1
9.218742958E0,8.991369928E0,-7.330971183E0,-4.805458170E0,1.255708166E1
9.228728958E0,8.945142426E0,-7.169502661E0,-4.129110151E0,1.218469910E1
9.238713958E0,8.717769937E0,-6.948384354E0,-3.552491072E0,1.170041669E1
9.248699958E0,9.119826239E0,-6.642417101E0,-3.007282652E0,1.167633010E1
9.258685958E0,9.617309101E0,-5.857123175E0,-2.250815499E0,1.148323546E1
9.268670958E0,1.061856467E1,-5.069944691E0,-7.713605958E-1,1.179208430E1
9.278656958E0,1.253359446E1,-4.094862424E0,1.247874173E0,1.324447350E1
9.288641958E0,1.461318126E1,-2.792802396E0,3.207495409E0,1.521948878E1
9.298627958E0,1.587151961E1,-1.763932469E0,4.803484150E0,1.667603228E1
9.308612958E0,1.552240225E1,-1.241785467E0,5.685148376E0,1.657733135E1
9.318598958E0,1.380025223E1,-1.169200910E0,5.642913353E0,1.495514839E1
9.328583958E0,1.135631489E1,-1.229187203E0,5.955011412E0,1.288172931E1
9.338569958E0,8.693499899E0,-1.276490739E0,7.267915394E0,1.140302430E1
9.348555958E0,6.512178558E0,-1.399586323E0,8.854146886E0,1.107985688E1
9.358540958E0,5.719173324E0,-1.680701740E0,1.025565139E1,1.186221258E1
9.368526958E0,4.944486247E0,-1.678722750E0,1.131196376E1,1.245899588E1
9.378511958E0,3.310942886E0,-1.693153824E0,1.251389753E1,1.305475944E1
9.388497958E0,1.052421707E0,-1.586928481E0,1.376794870E1,1.389900518E1
9.398482958E0,-7.976376906E-1,-1.282849878E0,1.415414911E1,1.423453078E1
9.408468958E0,-2.542376967E0,-4.154630908E-1,1.358655053E1,1.382861690E1
9.418454958E0,-3.899953092E0,1.864045572E-1,1.257027638E1,1.316268320E1
9.428439958E0,-5.655639818E0,3.715291589E-1,1.216605836E1,1.342152271E1
9.438425958E0,-7.433517897E0,2.716347420E-1,1.209250273E1,1.419716859E1
9.448410958E0,-8.654197254E0,-3.917035148E-2,1.206384202E1,1.484698450E1
9.458396958E0,-9.391370934E0,-6.616299927E-2,1.200284503E1,1.524042370E1
9.468381958E0,-9.738791438E0,1.464172035E-1,1.135664000E1,1.496124222E1
9.478367958E0,-9.921475997E0,1.663665877E-1,1.051197929E1,1.445562425E1
9.488352958E0,-9.886142442E0,4.227364424E-1,9.383818086E0,1.363710234E1
9.498338958E0,-9.232975709E0,7.880182900E-1,7.693500892E0,1.204403459E1
9.508324958E0,-8.367781920E0,1.008444579E0,6.455202119E0,1.061632559E1
9.518309958E0,-7.396916081E0,1.140533765E0,5.966244498E0,9.571377027E0
9.528295958E0,-6.149627214E0,1.213605981E0,5.296208548E0,8.206130594E0
9.538280958E0,-4.788510600E0,1.419716532E0,4.517104484E0,6.734215747E0
9.548266958E0,-3.654420905E0,1.503190652E0,3.555379597E0,5.315552499E0
9.558251958E0,-2.868074188E0,1.349325119E0,2.090178452E0,3.796758326E0
9.568237958E0,-2.464225422E0,1.165790667E0,3.318961465E-1,2.746202808E0
9.578223958E0,-2.292915744E0,8.131681877E-1,-8.711170185E-1,2.584095581E0
9.588208958E0,-1.978122265E0,4.219681913E-1,-1.574104952E0,2.562973127E0
9.598194958E0,-1.455169955E0,1.817397948E-1,-2.240054868E0,2.677385807E0
9.608179958E0,-6.813487042E-1,3.060133003E-2,-2.779860461E0,2.862306183E0
9.618165958E0,3.992573865E-2,-5.205893040E-2,-3.303431261E0,3.304082670E0
9.628150958E0,9.750833633E-1,4.342317760E-2,-3.488310864E0,3.622290135E0
9.638136958E0,2.108642204E0,2.280639953E-1,-3.590926575E0,4.170508218E0
9.648121958E0,3.286406215E0,2.997360219E-1,-4.158194202E0,5.308567275E0
9.658107958E0,4.457269050E0,2.890701889E-1,-4.839159767E0,6.585459453E0
9.668093958E0,5.928190234E0,5.462018627E-1,-4.783066843E0,7.636720785E0
9.678078958E0,7.869302108E0,1.032098540E0,-4.222353360E0,8.989961678E0
9.688064958E0,1.008271999E1,1.492458818E0,-3.869483251E0,1.090236563E1
9.698049958E0,1.186209671E1,1.980318625E0,-3.511671660E0,1.252848107E1
9.708035958E0,1.333095470E1,2.290274995E0,-2.540754365E0,1.376281750E1
9.718020958E0,1.447510044E1,2.257749712E0,-1.696166748E0,1.474798115E1
9.728006958E0,1.504468356E1,1.995506183E0,-7.522542340E-1,1.519507930E1
9.737991958E0,1.509843000E1,1.579203870E0,3.014824390E-1,1.518378625E1
9.747977958E0,1.474047281E1,9.660756545E-1,1.743758406E0,1.487466081E1
9.757963958E0,1.376193192E1,1.038500583E-1,3.148108748E0,1.411779528E1
9.767948958E0,1.217061101E1,-1.136090759E0,4.356075089E0,1.297651204E1
9.777934958E0,1.019654189E1,-1.972752913E0,6.218143718E0,1.210481440E1
9.787919958E0,8.406458913E0,-1.995541120E0,8.400768988E0,1.205087779E1
9.797905958E0,6.937940642E0,-1.783539499E0,9.710954599E0,1.206725622E1
9.807890958E0,5.608774969E0,-1.566475505E0,1.074844303E1,1.222461573E1
9.817876958E0,3.843885603E0,-1.634224708E0,1.250170959E1,1.318100488E1
9.827862958E0,1.439813997E0,-1.895247923E0,1.510940522E1,1.529572343E1
9.837847958E0,-5.874523246E-1,-2.163553553E0,1.763802077E1,1.777992803E1
9.847833958E0,-2.408376911E0,-2.305521902E0,1.914289878E1,1.943106493E1
9.857818958E0,-4.352572607E0,-2.705137723E0,1.980538013E1,2.045765725E1
9.867802458E0,-6.763239287E0,-3.445510122E0,2.033432861E1,2.170478900E1
9.877787458E0,-9.283403851E0,-4.482019729E0,2.082345054E1,2.323545094E1
9.887773458E0,-1.143006348E1,-5.503923283E0,2.032268563E1,2.395727601E1
9.897758458E0,-1.335893129E1,-6.780259362E0,1.853442114E1,2.383186374E1
9.907744458E0,-1.522230209E1,-8.193895082E0,1.716285029E1,2.436025098E1
9.917730458E0,-1.676844858E1,-9.589628382E0,1.582665159E1,2.497247967E1
9.927715458E0,-1.805820402E1,-1.097068400E1,1.339223001E1,2.501612409E1
9.937701458E0,-1.894362450E1,-1.218846957E1,1.091848240E1,2.503263785E1
9.947686458E0,-1.938906071E1,-1.333160023E1,8.437008276E0,2.499700679E1
9.957672458E0,-1.928607136E1,-1.437344425E1,5.821942232E0,2.474759503E1
9.967657458E0,-1.892434389E1,-1.517630322E1,3.284621937E0,2.447937320E1
9.977643458E0,-1.805057808E1,-1.572812601E1,1.068009142E0,2.396534916E1
9.987629458E0,-1.660888625E1,-1.585100407E1,-9.411093593E-1,2.297814439E1
9.997614458E0,-1.478786215E1,-1.561623369E1,-2.253731505E0,2.162468329E1
1.000760046E1,-1.289357829E1,-1.537607802E1,-3.555557352E0,2.037915907E1
1.001758546E1,-1.090995248E1,-1.505642594E1,-4.771896906E0,1.919619820E1
1.002757146E1,-8.920331520E0,-1.463336118E1,-5.755750582E0,1.807861274E1
1.003755646E1,-7.292650870E0,-1.434531330E1,-6.390618453E0,1.731504475E1
1.004754246E1,-6.098669899E0,-1.414242427E1,-6.909325538E0,1.688018715E1
1.005752746E1,-5.263072377E0,-1.407876797E1,-7.610531241E0,1.684730911E1
1.006751346E1,-4.644879303E0,-1.413628937E1,-8.563060212E0,1.716786478E1
1.007749946E1,-3.986175841E0,-1.407053860E1,-9.470132929E0,1.742277452E1
1.008748446E1,-3.410044713E0,-1.387631281E1,-9.995619861E0,1.743825905E1
1.009747046E1,-2.760887416E0,-1.357971630E1,-1.016598784E1,1.718657916E1
1.010745546E1,-1.787601560E0,-1.313392458E1,-1.027196512E1,1.676928030E1
1.011744146E1,-8.055799636E-1,-1.260128066E1,-1.037904401E1,1.634520688E1
1.012742646E1,1.167024576E-1,-1.227052238E1,-1.032178807E1,1.603491964E1
1.013741246E1,7.031194961E-1,-1.214492770E1,-1.079535641E1,1.626448172E1
1.014739846E1,9.021528697E-1,-1.206472495E1,-1.106459730E1,1.639502306E1
1.015738346E1,7.353807045E-1,-1.205046827E1,-1.108434920E1,1.638955055E1
1.016736946E1,6.092375518E-1,-1.216671793E1,-1.116609444E1,1.652518867E1
1.017735446E1,7.607378861E-1,-1.230958646E1,-1.118783322E1,1.665149402E1
1.018734046E1,1.088327924E0,-1.206709658E1,-1.070013099E1,1.616453157E1
1.019732546E1,1.677170168E0,-1.191350776E1,-1.033549395E1,1.586086385E1
1.020731146E1,2.290066103E0,-1.165818091E1,-9.950686347E0,1.549753992E1
1.021729646E1,3.162253747E0,-1.098493600E1,-8.834511936E0,1.444705053E1
1.022728246E1,4.175444657E0,-1.041031726E1,-8.174430871E0,1.387913411E1
1.023726846E1,5.016057921E0,-9.961468613E0,-7.837958109E0,1.363177469E1
1.024725346E1,5.371962735E0,-9.580260558E0,-7.717415419E0,1.342378027E1
1.025723946E1,5.097417834E0,-9.567153440E0,-7.654808697E0,1.327065144E1
1.026722446E1,4.907758132E0,-9.610482477E0,-7.138805364E0,1.293870184E1
1.027721046E1,5.444175848E0,-9.433630516E0,-6.632685580E0,1.275244892E1
1.028719546E1,6.355464993E0,-8.953899801E0,-5.898369434E0,1.246414934E1
1.029718146E1,7.682197639E0,-8.269904208E0,-4.889848110E0,1.230114185E1
1.030716746E1,9.222757700E0,-7.598655546E0,-3.944452742E0,1.258401896E1
1.031715246E1,1.073102183E1,-6.828198345E0,-2.962458481E0,1.305968156E1
1.032713846E1,1.226519206E1,-5.802886741E0,-1.590423362E0,1.366154739E1
1.033712346E1,1.371202476E1,-4.810984958E0,-7.008344042E-1,1.454841463E1
1.034710946E1,1.441232824E1,-4.034237030E0,-2.913410282E-1,1.496914003E1
1.035709446E1,1.444289865E1,-3.359382390E0,3.267669690E-1,1.483204464E1
1.036708046E1,1.407644078E1,-2.919109563E0,1.204879012E0,1.442633422E1
1.037706546E1,1.366837296E1,-2.854431757E0,1.692036275E0,1.406538967E1
1.038705146E1,1.349622157E1,-2.855005076E0,2.551126741E0,1.402880246E1
1.039703746E1,1.343850838E1,-2.384986148E0,3.946613873E0,1.420765384E1
1.040702246E1,1.359153470E1,-2.036181754E0,5.004716077E0,1.462610798E1
1.041700846E1,1.302588792E1,-1.726331072E0,5.962613962E0,1.442937075E1
1.042699346E1,1.163522591E1,-9.916067907E-1,6.947317822E0,1.358775150E1
1.043697946E1,1.025718570E1,-4.470987568E-1,8.175261760E0,1.312420133E1
1.044696446E1,8.203521938E0,-3.890528988E-2,9.393790512E0,1.247167134E1
1.045695046E1,5.688809318E0,5.701717741E-2,1.004292500E1,1.154236306E1
1.046693546E1,3.087301213E0,-2.545765867E-1,1.093314488E1,1.136353356E1
1.047692146E1,-1.932452148E-1,-6.839961042E-1,1.230632371E1,1.232683243E1
1.048690746E1,-3.442030152E0,-9.115224481E-1,1.402085364E1,1.446591793E1
1.049689246E1,-5.777722664E0,-7.218516362E-1,1.586649218E1,1.690114561E1
1.050687846E1,-7.469802209E0,-1.299564144E-1,1.688936198E1,1.846795554E1
1.051686346E1,-9.022977637E0,5.691269680E-1,1.701566418E1,1.926839014E1
1.052684946E1,-1.024401309E1,8.955337485E-1,1.675100985E1,1.965548564E1
1.053683446E1,-1.149525175E1,7.713123563E-1,1.602035581E1,1.973290490E1
1.054682046E1,-1.193907062E1,6.940354811E-1,1.454388942E1,1.882944003E1
1.055680646E1,-1.150587146E1,7.663871004E-1,1.230232889E1,1.686178293E1
1.056679146E1,-1.052511915E1,9.401113126E-1,9.762663281E0,1.438650537E1
1.057677746E1,-9.377484967E0,1.272851285E0,7.563970447E0,1.211490915E1
1.058676246E1,-8.470359625E0,1.132895036E0,5.241290914E0,1.002504732E1
1.059674846E1,-8.032598469E0,5.225288254E-1,2.701596649E0,8.490836178E0
1.060673346E1,-7.563298602E0,-3.275695724E-1,2.183075505E-1,7.573535882E0
1.061671946E1,-6.775742973E0,-1.092359213E0,-1.980554268E0,7.143286127E0
1.062670446E1,-5.498790597E0,-1.207617774E0,-2.989493083E0,6.374331934E0
1.063669046E1,-3.558076333E0,-9.808702064E-1,-3.776403179E0,5.280457795E0
1.064667646E1,-1.447191867E0,-5.990109909E-1,-4.900740888E0,5.144943121E0
1.065666146E1,3.286440714E-1,-1.711116032E-1,-5.536854801E0,5.549238434E0
1.066664746E1,1.705060948E0,7.136862919E-2,-5.630804354E0,5.883730448E0
1.067663246E1,2.846196831E0,1.793384164E-1,-5.598011999E0,6.282574075E0
1.068661846E1,4.070147998E0,2.967182739E-1,-5.437887168E0,6.798879563E0
1.069660346E1,5.406969430E0,2.669025173E-1,-5.495375823E0,7.713994478E0
1.070658946E1,6.241923174E0,1.964584791E-1,-5.536685817E0,8.345962538E0
1.071657546E1,6.747602078E0,1.277008510E-1,-5.091037352E0,8.453703486E0
1.072656046E1,7.559611348E0,1.108218397E-1,-4.283279593E0,8.689447007E0
1.073654646E1,8.314222010E0,2.775926162E-1,-3.492710894E0,9.022326456E0
1.074653146E1,8.996210838E0,6.468884312E-1,-2.139767518E0,9.269783121E0
1.075651746E1,1.004131000E1,1.127899394E0,-4.310748643E-1,1.011364866E1
1.076650246E1,1.121156005E1,1.590261540E0,1.041807768E0,1.137160384E1
1.077648846E1,1.220600186E1,1.696395959E0,2.286120987E0,1.253357850E1
1.078647346E1,1.228425749E1,1.539179825E0,3.563859814E0,1.288305683E1
1.079645946E1,1.179655293E1,1.228457032E0,5.879099935E0,1.323750670E1
1.080644546E1,1.107171687E1,1.000469708E0,8.158856227E0,1.378951736E1
1.081643046E1,1.012751550E1,6.606212018E-1,9.893348551E0,1.417326131E1
1.082641646E1,8.893206872E0,7.253851086E-2,1.069291085E1,1.390800966E1
1.083640146E1,7.427812183E0,-2.741120611E-1,1.203469949E1,1.414501761E1
1.084638746E1,5.860153202E0,-3.378133826E-1,1.349519714E1,1.471651655E1
1.085637246E1,4.141925786E0,-5.447143310E-1,1.452972045E1,1.511836761E1
1.086635892E1,2.165928107E0,-9.232250655E-1,1.530140439E1,1.548149106E1
1.087634492E1,-2.397197619E-1,-1.441793426E0,1.611990466E1,1.618602978E1
1.088632992E1,-2.265709234E0,-1.884194931E0,1.673507267E1,1.699253619E1
1.089631592E1,-3.714076538E0,-1.928507324E0,1.684682232E1,1.735882851E1
1.090630092E1,-4.913966120E0,-2.119991650E0,1.676641141E1,1.759982896E1
1.091628692E1,-6.387921132E0,-2.556007996E0,1.714695756E1,1.847584550E1
1.092627192E1,-7.644101860E0,-3.050020243E0,1.705997087E1,1.894142347E1
1.093625792E1,-8.926593304E0,-3.681252316E0,1.647634508E1,1.909726770E1
1.094624292E1,-1.019114023E1,-4.657023970E0,1.592644719E1,1.947303087E1
1.095622892E1,-1.151261681E1,-5.799063832E0,1.488510837E1,1.969101161E1
1.096621492E1,-1.261864572E1,-6.921899976E0,1.378472904E1,1.992891552E1
1.097619992E1,-1.383088579E1,-8.101109710E0,1.241255359E1,2.027295901E1
1.098618592E1,-1.490798034E1,-9.520104403E0,1.029119778E1,2.046433525E1
1.099617092E1,-1.555626932E1,-1.065964721E1,7.855251834E0,2.042867042E1
1.100615692E1,-1.591283604E1,-1.135286269E1,5.622453361E0,2.034005467E1
1.101614192E1,-1.587778081E1,-1.201202984E1,3.558395591E0,2.022510726E1
1.102612792E1,-1.540427914E1,-1.254984855E1,1.734449639E0,1.994489483E1
1.103611392E1,-1.479871342E1,-1.297713032E1,4.890839213E-1,1.968875398E1
1.104609892E1,-1.413950651E1,-1.346424315E1,-6.277342683E-1,1.953472647E1
1.105608492E1,-1.336985038E1,-1.381959365E1,-1.893901455E0,1.932151470E1
1.106606992E1,-1.238830401E1,-1.398072186E1,-3.119984225E0,1.893845193E1
1.107605592E1,-1.124666907E1,-1.394423874E1,-4.349839618E0,1.843503361E1
1.108604092E1,-1.012245182E1,-1.380146143E1,-5.246832905E0,1.790177712E1
1.109602692E1,-9.182974414E0,-1.356581513E1,-5.954630173E0,1.743031783E1
1.110601192E1,-8.297628781E0,-1.340465301E1,-6.700177066E0,1.712973258E1
1.111599792E1,-7.567369434E0,-1.340715094E1,-7.201792156E0,1.699654631E1
1.112598392E1,-6.842816384E0,-1.339154589E1,-7.720917317E0,1.690473903E1
1.113596892E1,-6.032422700E0,-1.333250070E1,-8.090218102E0,1.672116406E1
1.114595492E1,-5.395016552E0,-1.342205315E1,-8.727834165E0,1.689475669E1
1.115593992E1,-4.721259727E0,-1.354241107E1,-9.134136130E0,1.700351828E1
1.116592592E1,-3.933421969E0,-1.354696020E1,-9.324592808E0,1.690975961E1
1.117591092E1,-3.141659853E0,-1.328735318E1,-9.682379841E0,1.673834701E1
1.118589692E1,-2.443451434E0,-1.287427312E1,-9.775595568E0,1.634868900E1
1.119588292E1,-1.723776424E0,-1.252922893E1,-9.750132698E0,1.596928522E1
1.120586792E1,-1.029392010E0,-1.227349277E1,-9.551471207E0,1.558617576E1
1.121585392E1,-8.312287751E-1,-1.196150639E1,-9.442100208E0,1.526177685E1
1.122583892E1,-7.719809123E-1,-1.181106688E1,-9.441468709E0,1.514062703E1
1.123582492E1,-5.641323860E-1,-1.189071181E1,-9.214732397E0,1.505385551E1
1.124580992E1,-3.646908402E-1,-1.213522833E1,-8.881691365E0,1.504264630E1
1.125579592E1,1.892007688E-1,-1.217563844E1,-8.738381372E0,1.498803781E1
1.126578092E1,1.208418258E0,-1.205840878E1,-8.999447857E0,1.509488519E1
1.127576692E1,2.035533298E0,-1.201563523E1,-9.408492166E0,1.539605828E1
1.128575292E1,2.538910153E0,-1.199199143E1,-9.690927300E0,1.562587582E1
1.129573792E1,3.099497920E0,-1.176060074E1,-9.908368878E0,1.568739592E1
1.130572392E1,4.160951164E0,-1.131744026E1,-9.987230276E0,1.565703475E1
1.131570892E1,5.316859744E0,-1.069662033E1,-9.909373430E0,1.552038549E1
1.132569492E1,6.334300411E0,-1.038500583E1,-9.482756483E0,1.542382502E1
1.133567992E1,7.539434946E0,-1.003738535E1,-8.466753647E0,1.514193189E1
1.134566592E1,8.760260484E0,-9.354965000E0,-7.327561086E0,1.476315296E1
1.135565192E1,9.938231778E0,-8.510401357E0,-6.159963922E0,1.446169207E1
1.136563692E1,1.072242526E1,-7.674523169E0,-5.319935964E0,1.421866477E1
1.137562292E1,1.055532236E1,-6.887975600E0,-4.992020602E0,1.355652270E1
1.138560792E1,9.924173902E0,-6.926264337E0,-4.861519520E0,1.304211399E1
1.139559392E1,9.386497865E0,-7.405765257E0,-4.404247375E0,1.274162847E1
1.140557892E1,9.728500924E0,-6.910094447E0,-2.976512264E0,1.229848612E1
1.141556492E1,1.113731328E1,-6.081862078E0,-1.581316323E0,1.278785966E1
1.142554992E1,1.212084535E1,-5.327436773E0,-1.034301113E0,1.328029568E1
1.143553592E1,1.228628413E1,-4.743207543E0,-5.582634991E-1,1.318189872E1
1.144552192E1,1.188329637E1,-4.374839096E0,1.855637276E-1,1.266437459E1
1.145550692E1,1.156224915E1,-3.998610823E0,1.217861000E0,1.229461993E1
1.146549292E1,1.200854607E1,-3.122939408E0,2.584307351E0,1.267424845E1
1.147547792E1,1.336527435E1,-1.754840926E0,4.175250530E0,1.411179443E1
1.148546392E1,1.466689262E1,-4.504971951E-1,5.666365365E0,1.572985643E1
1.149544892E1,1.509725354E1,1.934400367E-1,7.241522816E0,1.674527205E1
1.150543492E1,1.432500358E1,-2.652815047E-2,8.527909091E0,1.667128264E1
1.151542092E1,1.268251252E1,-6.284176616E-1,9.466184304E0,1.583823468E1
1.152540592E1,1.036085098E1,-1.169238770E0,1.071237156E1,1.494888814E1
1.153539192E1,7.280117948E0,-1.340513949E0,1.212670192E1,1.420753302E1
1.154537692E1,4.820310683E0,-1.307893503E0,1.330800555E1,1.421439384E1
1.155536292E1,2.938669084E0,-9.587411264E-1,1.457134561E1,1.489560584E1
1.156534792E1,1.451237848E0,-4.502593596E-1,1.553777575E1,1.561189610E1
1.157533392E1,1.658151953E-1,-1.513449445E-1,1.604791608E1,1.604948630E1
1.158531892E1,-1.671625400E0,-8.770487264E-2,1.611392997E1,1.620064081E1
1.159530492E1,-4.383833576E0,-3.018109064E-1,1.575141196E1,1.635286107E1
1.160529092E1,-7.478578295E0,-7.795441396E-1,1.521417680E1,1.697079839E1
1.161527592E1,-1.037313248E1,-9.875190753E-1,1.443995633E1,1.780700452E1
1.162526192E1,-1.237940338E1,-9.665102488E-1,1.306220497E1,1.802234638E1
1.163524692E1,-1.373116036E1,-1.045876553E0,1.141514840E1,1.788698509E1
1.164523292E1,-1.462330630E1,-1.254404051E0,1.006307685E1,1.779550877E1
1.165521792E1,-1.437370972E1,-1.230490401E0,8.509010305E0,1.674875798E1
1.166520392E1,-1.309877931E1,-9.727620918E-1,6.953601240E0,1.486192638E1
1.167518892E1,-1.130919803E1,-7.648603924E-1,5.386574927E0,1.254982713E1
1.168517492E1,-9.535390195E0,-4.510362352E-1,3.858068901E0,1.029620297E1
1.169516092E1,-8.163593057E0,-4.328359725E-1,2.009230767E0,8.418349414E0
1.170514592E1,-7.045755697E0,-7.900923704E-1,8.197387040E-2,7.090390611E0
1.171513192E1,-6.198474269E0,-1.082911282E0,-1.469257944E0,6.461617368E0
1.172511692E1,-5.277850630E0,-1.178640143E0,-2.824346078E0,6.100969646E0
1.173510292E1,-4.021952907E0,-1.034599906E0,-3.805849757E0,5.633027119E0
1.174508792E1,-2.475469033E0,-5.558241504E-1,-4.284862434E0,4.979651945E0
1.175507392E1,-1.135476070E0,-7.380691811E-2,-4.666486226E0,4.803212161E0
1.176505992E1,1.279370785E-2,4.325550869E-3,-5.014421285E0,5.014439472E0
1.177504492E1,6.726678548E-1,4.824055240E-2,-5.317854356E0,5.360446263E0
1.178503092E1,1.240771268E0,2.446648618E-1,-5.231474608E0,5.382165067E0
1.179501592E1,1.927876994E0,2.912449146E-1,-5.209720627E0,5.562618297E0
1.180500192E1,2.539389917E0,3.107541496E-1,-5.071415851E0,5.680169718E0
1.181498692E1,2.882037924E0,1.052185991E-1,-5.171438321E0,5.921231955E0
1.182497292E1,3.412881782E0,1.387579358E-1,-4.817418065E0,5.905466335E0
1.183495792E1,4.355290685E0,5.050534713E-1,-3.934905408E0,5.891274610E0
1.184494392E1,5.392813906E0,8.064071985E-1,-3.003059793E0,6.225038354E0
1.185492992E1,6.395475735E0,1.131926372E0,-2.061202574E0,6.814097390E0
1.186491492E1,7.124787834E0,1.167347123E0,-1.457366461E0,7.365406844E0
1.187490029E1,7.527911838E0,1.036661926E0,-5.992542350E-1,7.622547489E0
1.188488529E1,7.928488795E0,1.031511406E0,4.910971177E-1,8.010376191E0
1.189487129E1,8.444193919E0,1.144034932E0,1.666599133E0,8.682786393E0
1.190485629E1,8.591570066E0,1.305104966E0,2.880370590E0,9.155048329E0
1.191484229E1,8.814815590E0,1.366410098E0,4.131418632E0,9.830395229E0
1.192482829E1,8.917642386E0,1.257780672E0,5.384555299E0,1.049284488E1
1.193481329E1,8.574344169E0,1.005846954E0,6.609988443E0,1.087304250E1
1.194479929E1,8.212339540E0,8.896076685E-1,7.765471346E0,1.133739246E1
1.195478429E1,7.696212246E0,7.949076256E-1,8.641914008E0,1.159940683E1
1.196477029E1,6.627164054E0,4.702142255E-1,9.547099244E0,1.163131587E1
1.197475529E1,5.479818136E0,2.656987949E-1,1.062955393E1,1.196187358E1
1.198474129E1,4.257430514E0,2.240134098E-1,1.154051739E1,1.230282236E1
1.199472629E1,2.940507157E0,1.424663861E-1,1.228895982E1,1.263666936E1
1.200471229E1,2.211913681E0,2.341200297E-1,1.334391447E1,1.352802379E1
1.201469829E1,1.804686539E0,5.327423032E-1,1.433679507E1,1.445975107E1
1.202468329E1,7.369681504E-1,5.286673055E-1,1.522551689E1,1.525250720E1
1.203466929E1,-1.036422190E0,5.721537061E-2,1.622351264E1,1.625668499E1
1.204465429E1,-2.961244015E0,-5.480459283E-1,1.682113083E1,1.708858574E1
1.205464029E1,-4.780841977E0,-1.285070797E0,1.652199546E1,1.724773002E1
1.206462529E1,-6.793448927E0,-2.259440580E0,1.597568776E1,1.750653077E1
1.207461129E1,-8.821342837E0,-3.128700085E0,1.525686966E1,1.789907611E1
1.208459729E1,-1.012154082E1,-3.989682124E0,1.417431732E1,1.786825183E1
1.209458229E1,-1.110545180E1,-4.832199826E0,1.300087353E1,1.776805919E1
1.210456829E1,-1.200217962E1,-5.726703368E0,1.214035167E1,1.800654286E1
1.211455329E1,-1.306878426E1,-6.917287107E0,1.083475963E1,1.833123016E1
1.212453929E1,-1.424274495E1,-8.273005571E0,9.119914532E0,1.882740678E1
1.213452429E1,-1.510481282E1,-9.544199610E0,7.401013225E0,1.933965132E1
1.214451029E1,-1.564365479E1,-1.064184127E1,5.479310013E0,1.969760288E1
1.215449529E1,-1.576580196E1,-1.139437559E1,3.959760168E0,1.985124699E1
1.216448129E1,-1.536823222E1,-1.180236155E1,2.703260182E0,1.956491542E1
1.217446729E1,-1.461839230E1,-1.211554544E1,1.199421220E0,1.902425941E1
1.218445229E1,-1.365518632E1,-1.241890834E1,-2.988254642E-1,1.846030049E1
1.219443829E1,-1.292001589E1,-1.256425609E1,-1.559148944E0,1.808917597E1
1.220442329E1,-1.227876578E1,-1.284730343E1,-2.528400367E0,1.795032320E1
1.221440929E1,-1.161988866E1,-1.310134624E1,-3.562208560E0,1.787054603E1
1.222439429E1,-1.063457903E1,-1.319621146E1,-4.576741406E0,1.755507989E1
1.223438029E1,-9.541692324E0,-1.326548226E1,-5.425299282E0,1.721774620E1
1.224436629E1,-8.671486301E0,-1.325860125E1,-5.822843873E0,1.687870530E1
1.225435129E1,-7.744413768E0,-1.327785496E1,-6.072401868E0,1.652729384E1
1.226433729E1,-6.660348757E0,-1.330103917E1,-6.684446302E0,1.630827125E1
1.227432229E1,-5.689460698E0,-1.323620291E1,-7.265756017E0,1.613562025E1
1.228430829E1,-5.091950102E0,-1.320320824E1,-7.899195414E0,1.620647870E1
1.229429329E1,-4.583624164E0,-1.318116073E1,-8.217250031E0,1.619493151E1
1.230427929E1,-4.031004690E0,-1.314014134E1,-8.523531280E0,1.617290632E1
1.231426429E1,-3.343244952E0,-1.308310292E1,-9.017963065E0,1.623787322E1
1.232425029E1,-2.554140688E0,-1.282688963E1,-9.264650077E0,1.602767835E1
1.233423629E1,-1.796251200E0,-1.256355910E1,-9.328876478E0,1.575111018E1
1.234422129E1,-1.115641657E0,-1.228920073E1,-9.310101653E0,1.545791395E1
1.235420729E1,-4.014381056E-1,-1.198211548E1,-9.364133434E0,1.521246985E1
1.236419229E1,2.936667400E-1,-1.155502901E1,-9.439472469E0,1.492342374E1
1.237417829E1,8.803024826E-1,-1.119248643E1,-9.488990200E0,1.469991905E1
1.238416329E1,1.368643734E0,-1.097318895E1,-9.731491774E0,1.473044444E1
1.239414929E1,1.685195471E0,-1.091462908E1,-9.806702170E0,1.476957749E1
1.240413529E1,2.071455959E0,-1.067824019E1,-9.634582946E0,1.453068931E1
1.241412029E1,2.689278028E0,-1.037639288E1,-9.528709166E0,1.434217710E1
1.242410629E1,3.103242185E0,-1.007855560E1,-9.419910609E0,1.414008879E1
1.243409129E1,3.870911726E0,-9.614963198E0,-8.811761590E0,1.360436023E1
1.244407729E1,4.788010663E0,-8.885156425E0,-8.257970626E0,1.304090218E1
1.245406229E1,5.786694632E0,-8.289011155E0,-7.661031303E0,1.268404278E1
1.246404829E1,6.667107553E0,-7.929574623E0,-7.295156987E0,1.267074553E1
1.247403329E1,7.016273451E0,-7.719135670E0,-6.865985391E0,1.248819058E1
1.248401929E1,7.051080172E0,-7.937523327E0,-6.772338724E0,1.259311637E1
1.249400529E1,7.426120584E0,-8.322824433E0,-6.781847466E0,1.305412305E1
1.250399029E1,8.450123581E0,-8.088303139E0,-5.957924495E0,1.312715127E1
1.251397629E1,9.629632108E0,-7.229578709E0,-4.540687475E0,1.286912839E1
1.252396129E1,1.094102108E1,-6.393544400E0,-3.242222607E0,1.308034249E1
1.253394729E1,1.233446870E1,-5.581915784E0,-1.962056601E0,1.368015234E1
1.254393229E1,1.286209688E1,-4.733651438E0,-1.308279419E0,1.376780982E1
1.255391829E1,1.260526027E1,-4.406078138E0,-1.172987713E0,1.340455189E1
1.256390329E1,1.153293939E1,-4.526797121E0,-1.191461990E0,1.244669293E1
1.257388929E1,1.040830699E1,-4.390771882E0,-5.381584328E-1,1.130934775E1
1.258387529E1,1.022161592E1,-3.432185487E0,4.757288808E-1,1.079294432E1
1.259386029E1,1.077581268E1,-2.317024106E0,1.793379048E0,1.116704741E1
1.260384629E1,1.111391973E1,-1.406535738E0,3.561427957E0,1.175505524E1
1.261383129E1,1.110950392E1,-6.498499728E-1,5.327606927E0,1.233802163E1
1.262381729E1,1.059655576E1,-3.662228838E-1,6.824550267E0,1.260934572E1
1.263380229E1,9.747006192E0,-3.422992934E-1,8.185409603E0,1.273272276E1
1.264378829E1,9.097971101E0,-9.768661793E-2,9.313278446E0,1.301997605E1
1.265377429E1,8.101417859E0,3.476665988E-1,1.004152167E1,1.290681994E1
1.266375929E1,6.754707030E0,1.831989674E-1,1.089966723E1,1.282428846E1
1.267374529E1,4.712345062E0,-1.579396171E-1,1.183327227E1,1.273803256E1
1.268373029E1,2.749946106E0,-1.333643910E-1,1.252931547E1,1.282823977E1
1.269371629E1,8.159910773E-1,-8.496640228E-2,1.323528957E1,1.326069194E1
1.270370129E1,-1.459672895E0,-2.731247588E-1,1.402919645E1,1.410757226E1
1.271368729E1,-3.993476090E0,-5.920626714E-1,1.513431670E1,1.566352232E1
1.272367229E1,-6.216916387E0,-6.096595746E-1,1.567736282E1,1.687606113E1
1.273365829E1,-7.768561599E0,-5.917516726E-1,1.488734317E1,1.680278864E1
1.274364429E1,-9.116919004E0,-6.026961985E-1,1.382481989E1,1.657127333E1
1.275362929E1,-1.028889164E1,-5.875774916E-1,1.314012965E1,1.669938758E1
1.276361529E1,-1.097099507E1,-5.357797855E-1,1.213656501E1,1.636905627E1
1.277360029E1,-1.118559841E1,-2.623505330E-1,1.109467304E1,1.575684643E1
1.278358629E1,-1.117066112E1,-7.734843045E-3,9.525141195E0,1.468032848E1
1.279357129E1,-1.124315957E1,-2.266837601E-1,6.854363465E0,1.316975023E1
1.280355729E1,-1.126194551E1,-3.572732817E-1,4.525256673E0,1.214236422E1
1.281354329E1,-1.068906923E1,-2.940695583E-1,3.112424360E0,1.113686955E1
1.282352829E1,-9.445408562E0,-2.526564342E-1,1.697372444E0,9.600033927E0
1.283351429E1,-7.862380174E0,-1.303339253E-1,2.608185625E-1,7.867784648E0
1.284349929E1,-6.521954518E0,-4.924773529E-2,-8.152667534E-1,6.572897075E0
1.285348529E1,-5.383275928E0,-1.771765546E-1,-1.820749864E0,5.685611780E0
1.286347029E1,-4.380959085E0,-2.933253539E-1,-2.774865770E0,5.194104572E0
1.287345617E1,-3.178363118E0,-2.043321204E-1,-3.340275151E0,4.615320337E0
1.288344117E1,-1.960969019E0,-6.409257330E-2,-3.986021767E0,4.442733042E0
1.289342717E1,-8.873316398E-1,2.694309264E-2,-4.297121707E0,4.387862615E0
1.290341317E1,1.223539742E-1,4.203015156E-2,-4.497823876E0,4.499684060E0
1.291339817E1,1.003718275E0,-6.133393005E-2,-5.054557158E0,5.153616235E0
1.292338417E1,1.853119611E0,-6.631129928E-2,-5.211653132E0,5.531706595E0
1.293336917E1,3.110983314E0,6.484415978E-2,-4.741069801E0,5.670993282E0
1.294335517E1,4.653987803E0,2.608328882E-1,-4.300687339E0,6.342203706E0
1.295334017E1,6.253888916E0,5.900760799E-1,-4.434630677E0,7.689295520E0
1.296332617E1,7.549037828E0,7.967829008E-1,-4.112221053E0,8.633261093E0
1.297331117E1,8.801122581E0,1.077359424E0,-3.030434702E0,9.370378674E0
1.298329717E1,1.000095369E1,1.325247454E0,-2.167735920E0,1.031864500E1
1.299328317E1,1.114786750E1,1.402461545E0,-1.741071026E0,1.136983626E1
1.300326817E1,1.183331437E1,1.410320203E0,-8.223331136E-1,1.194539927E1
1.301325417E1,1.186998577E1,1.414365891E0,3.485782528E-1,1.195903423E1
1.302323917E1,1.179213477E1,1.139495154E0,1.440084431E0,1.193426725E1
1.303322517E1,1.132173913E1,8.406463006E-1,2.760400928E0,1.168367564E1
1.304321017E1,1.055971830E1,6.221235725E-1,4.167823981E0,1.136949625E1
1.305319617E1,9.619532213E0,3.909866461E-1,5.693927386E0,1.118521701E1
1.306318217E1,8.622277889E0,2.302662760E-1,7.589316373E0,1.148888252E1
1.307316717E1,7.710513366E0,1.025449598E-1,9.310985752E0,1.208954042E1
1.308315317E1,6.745241557E0,1.713088006E-3,1.098446472E1,1.289018044E1
1.309313817E1,5.576698313E0,-3.773016764E-1,1.255179684E1,1.374007004E1
1.310312417E1,3.760865958E0,-1.092795050E0,1.396433212E1,1.450313363E1
1.311310917E1,1.687979477E0,-1.884224898E0,1.509434630E1,1.530486421E1
1.312309517E1,-3.010320938E-1,-2.451436245E0,1.544354787E1,1.563979957E1
1.313308017E1,-1.914070403E0,-2.794474407E0,1.528996724E1,1.566064657E1
1.314306617E1,-2.956256924E0,-2.588970213E0,1.515580054E1,1.565696368E1
1.315305217E1,-3.121593379E0,-2.090182837E0,1.519121361E1,1.564883959E1
1.316303717E1,-3.295775793E0,-1.557656150E0,1.535070110E1,1.577759345E1
1.317302317E1,-3.988665878E0,-1.450191635E0,1.532003947E1,1.589704754E1
1.318300817E1,-5.358190788E0,-2.028612972E0,1.517130034E1,1.621708460E1
1.319299417E1,-6.897552170E0,-3.011007913E0,1.461378937E1,1.643792063E1
1.320297917E1,-8.125111946E0,-3.850908109E0,1.390604941E1,1.655974479E1
1.321296517E1,-9.529148292E0,-4.795536615E0,1.281983672E1,1.667783115E1
1.322295017E1,-1.100498143E1,-5.925343809E0,1.132782726E1,1.686828343E1
1.323293617E1,-1.214225552E1,-6.873881471E0,9.394768751E0,1.682100756E1
1.324292217E1,-1.319306683E1,-7.618555375E0,7.610842897E0,1.703010064E1
1.325290717E1,-1.447122022E1,-8.241226539E0,6.254808683E0,1.778922880E1
1.326289317E1,-1.585082281E1,-9.071193777E0,4.705308815E0,1.885934971E1
1.327287817E1,-1.685563875E1,-1.011632861E1,3.017724025E0,1.988867317E1
1.328286417E1,-1.735930972E1,-1.062208704E1,1.036368688E0,2.037764528E1
1.329284917E1,-1.720280549E1,-1.077659153E1,-7.895004129E-1,2.031488992E1
1.330283517E1,-1.645795909E1,-1.102947775E1,-2.628342732E0,1.998554434E1
1.331282117E1,-1.548507713E1,-1.098623058E1,-4.034993953E0,1.941046244E1
1.332280617E1,-1.427122674E1,-1.072564590E1,-4.373952366E0,1.838039314E1
1.333279217E1,-1.293399425E1,-1.050662090E1,-4.290695617E0,1.720718916E1
1.334277717E1,-1.165919832E1,-1.037451827E1,-4.208391963E0,1.616409904E1
1.335276317E1,-1.035584577E1,-1.038131039E1,-3.917364346E0,1.517764443E1
1.336274817E1,-9.172744710E0,-1.051603726E1,-3.688499063E0,1.443368665E1
1.337273417E1,-7.971017348E0,-1.072010859E1,-3.582650426E0,1.383087958E1
1.338271917E1,-7.234388629E0,-1.102979467E1,-3.674456974E0,1.369285885E1
1.339270517E1,-6.795820557E0,-1.146257985E1,-4.098169609E0,1.394162501E1
1.340269117E1,-6.493906009E0,-1.194738653E1,-4.665729597E0,1.437636577E1
1.341267617E1,-6.096778910E0,-1.241683843E1,-5.181744039E0,1.477156257E1
1.342266217E1,-5.784722950E0,-1.278953060E1,-5.536942509E0,1.508949452E1
1.343264717E1,-5.513951842E0,-1.310767292E1,-6.076974390E0,1.546429346E1
1.344263317E1,-4.948787459E0,-1.330664899E1,-6.656417674E0,1.568009251E1
1.345261817E1,-4.192584600E0,-1.323256243E1,-7.487346779E0,1.577145637E1
1.346260417E1,-3.337473165E0,-1.290931432E1,-7.893074548E0,1.549482975E1
1.347259017E1,-2.555196110E0,-1.263839878E1,-8.139656310E0,1.524834928E1
1.348257517E1,-1.846979304E0,-1.257957813E1,-8.717144870E0,1.541576249E1
1.349256117E1,-1.135347651E0,-1.236386499E1,-9.220378468E0,1.546510753E1
1.350254617E1,-1.730624536E-1,-1.192406550E1,-9.408152443E0,1.518968798E1
1.351253217E1,8.054834846E-1,-1.141703706E1,-9.678113712E0,1.498877659E1
1.352251717E1,1.630057105E0,-1.093654328E1,-9.656360316E0,1.468027110E1
1.353250317E1,2.384447912E0,-1.052402221E1,-9.432452302E0,1.433219424E1
1.354248817E1,3.183089715E0,-1.002933374E1,-8.991525464E0,1.384077763E1
1.355247417E1,3.795301380E0,-9.597134453E0,-8.800492836E0,1.356311087E1
1.356246017E1,3.984717838E0,-9.268398727E0,-8.751996029E0,1.335584612E1
1.357244517E1,4.188662873E0,-8.938514022E0,-8.805668791E0,1.322806609E1
1.358243117E1,4.536336561E0,-8.613462042E0,-8.840339856E0,1.314996907E1
1.359241617E1,5.249561216E0,-8.154149804E0,-8.512511618E0,1.290391049E1
1.360240217E1,6.112177552E0,-7.692695146E0,-8.071870124E0,1.271579177E1
1.361238717E1,6.704075990E0,-7.388018373E0,-7.543063728E0,1.250700847E1
1.362237317E1,7.323300220E0,-7.143544532E0,-6.953757945E0,1.236995166E1
1.363235817E1,7.946311693E0,-6.841709506E0,-6.550375494E0,1.236366764E1
1.364234417E1,8.932636401E0,-6.722115819E0,-5.940050726E0,1.265950381E1
1.365233017E1,1.018808447E1,-6.320395732E0,-5.148966302E0,1.304823059E1
1.366231517E1,1.152982985E1,-5.803288445E0,-4.078825850E0,1.353705852E1
1.367230117E1,1.264048039E1,-5.281521512E0,-3.021231185E0,1.402868675E1
1.368228617E1,1.361169590E1,-4.990883904E0,-2.459527768E0,1.470498093E1
1.369227217E1,1.463923061E1,-4.952425597E0,-1.949234827E0,1.557668477E1
1.370225717E1,1.555583663E1,-4.721384565E0,-7.887677568E-1,1.627567756E1
1.371224317E1,1.593902572E1,-4.738195894E0,8.411061841E-1,1.664963966E1
1.372222917E1,1.541272485E1,-4.531816079E0,3.036945577E0,1.634969366E1
1.373221417E1,1.430725026E1,-4.123298311E0,5.352834738E0,1.582251051E1
1.374220017E1,1.314321932E1,-3.243751069E0,6.948793659E0,1.521682846E1
1.375218517E1,1.245717252E1,-1.936047893E0,8.134185070E0,1.500314618E1
1.376217117E1,1.149775202E1,-4.645218880E-1,9.258112890E0,1.476911427E1
1.377215617E1,9.643723313E0,6.298097375E-1,1.091516586E1,1.457871412E1
1.378214217E1,7.104485716E0,6.202596264E-1,1.327357013E1,1.506804908E1
1.379212717E1,4.049730105E0,-3.680385174E-1,1.549401402E1,1.601874641E1
1.380211317E1,7.573723018E-1,-1.149053524E0,1.695230609E1,1.700807510E1
1.381209917E1,-2.315408959E0,-1.425069073E0,1.772123366E1,1.792858229E1
1.382208417E1,-5.047272112E0,-1.070880782E0,1.776766991E1,1.850167115E1
1.383207017E1,-6.556589330E0,-4.417586043E-1,1.707338556E1,1.829438462E1
1.384205517E1,-7.706102811E0,4.480792983E-1,1.610653208E1,1.786071586E1
1.385204117E1,-8.513820809E0,1.040022321E0,1.499966819E1,1.727879732E1
1.386202617E1,-8.952877123E0,9.950187141E-1,1.363789961E1,1.634430717E1
1.387201283E1,-1.012558358E1,8.631534762E-1,1.198594073E1,1.571417361E1
1.388199783E1,-1.153404335E1,7.214109754E-1,1.047355724E1,1.559647367E1
1.389198383E1,-1.258800982E1,1.151001012E-1,9.126368104E0,1.554869236E1
1.390196983E1,-1.304207652E1,-4.831519941E-1,7.666203166E0,1.513604528E1
1.391195483E1,-1.260232731E1,-8.144102825E-1,6.048232986E0,1.400225125E1
1.392194083E1,-1.176770861E1,-1.115074623E0,4.937504672E0,1.281020335E1
1.393192583E1,-1.058969112E1,-1.283756196E0,4.051528709E0,1.141071746E1
1.394191183E1,-9.204574029E0,-1.112976569E0,2.890788574E0,9.711825703E0
1.395189683E1,-7.748396891E0,-9.763842226E-1,1.576614577E0,7.967226246E0
1.396188283E1,-6.044767342E0,-8.561124784E-1,1.890007210E-1,6.108016213E0
1.397186883E1,-4.420314939E0,-5.289203437E-1,-8.341988683E-1,4.529329823E0
1.398185383E1,-3.103390412E0,-3.852626971E-1,-2.185061220E0,3.814964211E0
1.399183983E1,-1.846113039E0,-3.512007290E-1,-4.015678260E0,4.433638144E0
1.400182483E1,-9.052777679E-1,-8.535155106E-2,-4.960813428E0,5.043459387E0
1.401181083E1,-1.158915219E-1,1.132967103E-1,-5.046155879E0,5.048757881E0
1.402179583E1,8.754774334E-1,1.524673541E-1,-5.172485558E0,5.248267702E0
1.403178183E1,2.212306614E0,2.980047710E-1,-5.222564621E0,5.679638071E0
1.404176683E1,3.630409022E0,6.973778958E-1,-5.151578838E0,6.340738925E0
1.405175283E1,4.933371860E0,9.816470090E-1,-4.668901126E0,6.862975046E0
1.406173883E1,6.278009266E0,7.175904047E-1,-4.359238433E0,7.676672198E0
1.407172383E1,7.506399931E0,8.551106311E-1,-4.087797818E0,8.589956061E0
1.408170983E1,8.937090225E0,1.033345166E0,-3.537402332E0,9.667088455E0
1.409169483E1,9.950715584E0,1.114041785E0,-2.680863592E0,1.036556122E1
1.410168083E1,1.068956274E1,1.206301127E0,-1.631374921E0,1.088040891E1
1.411166583E1,1.162529967E1,1.057154736E0,-1.163928037E0,1.173115072E1
1.412165183E1,1.206502549E1,1.093989636E0,-5.542067009E-1,1.212719253E1
1.413163683E1,1.207827645E1,1.207703509E0,7.638393223E-1,1.216251456E1
1.414162283E1,1.176694146E1,1.052411255E0,2.069560000E0,1.199381338E1
1.415160883E1,1.118113114E1,9.857822330E-1,3.531424724E0,1.176692062E1
1.416159383E1,1.029171584E1,9.826849629E-1,5.150793557E0,1.155057397E1
1.417157983E1,9.079583362E0,6.886224943E-1,6.818115406E0,1.137540033E1
1.418156483E1,7.916295011E0,3.621459858E-1,8.304336707E0,1.147871441E1
1.419155083E1,6.912321067E0,3.395992684E-1,9.545895302E0,1.179065848E1
1.420153583E1,6.164233559E0,2.872960706E-1,1.099651349E1,1.260966389E1
1.421152183E1,4.958147682E0,3.629273200E-1,1.296176618E1,1.388244673E1
1.422150783E1,3.274562095E0,4.708996654E-2,1.495573689E1,1.531009602E1
1.423149283E1,1.347766836E0,-5.201391415E-1,1.690087164E1,1.696250225E1
1.424147883E1,-8.651650646E-1,-1.084937781E0,1.825840333E1,1.831105930E1
1.425146383E1,-3.244131431E0,-1.808095758E0,1.900969804E1,1.936910474E1
1.426144983E1,-5.826659766E0,-2.399144157E0,2.009841217E1,2.106304889E1
1.427143483E1,-8.044333831E0,-3.035741927E0,2.040521557E1,2.214271570E1
1.428142083E1,-9.547304481E0,-3.663121854E0,2.009270061E1,2.254520131E1
1.429140583E1,-1.070969587E1,-4.305677937E0,1.928303666E1,2.247380588E1
1.430139183E1,-1.189029783E1,-5.111838237E0,1.795045153E1,2.212981660E1
1.431137783E1,-1.313006776E1,-6.137298945E0,1.621847702E1,2.175095663E1
1.432136283E1,-1.446979935E1,-7.388165722E0,1.423688838E1,2.160206186E1
1.433134883E1,-1.552175905E1,-8.518393916E0,1.200676852E1,2.139276815E1
1.434133383E1,-1.611077482E1,-9.416872981E0,1.009738597E1,2.121772291E1
1.435131983E1,-1.630579115E1,-1.012636243E1,8.227359282E0,2.088328236E1
1.436130483E1,-1.612234412E1,-1.088487377E1,5.908811392E0,2.033038388E1
1.437129083E1,-1.570174688E1,-1.155288776E1,3.289290354E0,1.976950939E1
1.438127583E1,-1.542735225E1,-1.182960139E1,1.266099944E0,1.948193203E1
1.439126183E1,-1.492489750E1,-1.211257271E1,2.013190502E-1,1.922257820E1
1.440124783E1,-1.397391687E1,-1.243556823E1,-8.247117609E-1,1.872415177E1
1.441123283E1,-1.269269720E1,-1.252505402E1,-2.060636564E0,1.795070370E1
1.442121883E1,-1.154331352E1,-1.254373236E1,-3.385829639E0,1.737979146E1
1.443120383E1,-1.051272773E1,-1.258317183E1,-3.999701328E0,1.687753739E1
1.444118983E1,-9.409873863E0,-1.264454070E1,-4.646851276E0,1.643238760E1
1.445117483E1,-8.256396555E0,-1.271098612E1,-5.525303042E0,1.613276870E1
1.446116083E1,-7.359089273E0,-1.279483051E1,-6.240824482E0,1.602534783E1
1.447114683E1,-6.844472315E0,-1.280323413E1,-6.829268385E0,1.604395563E1
1.448113183E1,-6.466815859E0,-1.290147086E1,-6.984527748E0,1.603281902E1
1.449111783E1,-6.135424912E0,-1.311285356E1,-7.535195714E0,1.632083153E1
1.450110283E1,-5.656708689E0,-1.329871783E1,-8.270825729E0,1.665115033E1
1.451108883E1,-5.062481305E0,-1.341155974E1,-8.795493466E0,1.681842314E1
1.452107383E1,-4.474044419E0,-1.348424764E1,-9.308701830E0,1.698510929E1
1.453105983E1,-3.665860690E0,-1.336580644E1,-9.770696186E0,1.695729402E1
1.454104483E1,-2.707911057E0,-1.320183298E1,-1.024818215E1,1.693063536E1
1.455103083E1,-1.854894826E0,-1.287311538E1,-1.026995134E1,1.657195326E1
1.456101683E1,-1.112824907E0,-1.276822334E1,-1.031667761E1,1.645295546E1
1.457100183E1,-5.335722058E-1,-1.278312790E1,-1.070210034E1,1.668016816E1
1.458098783E1,8.156588092E-2,-1.246288174E1,-1.070979059E1,1.643258010E1
1.459097283E1,7.916412979E-1,-1.216060642E1,-1.075465043E1,1.625329352E1
1.460095883E1,1.424160270E0,-1.197375981E1,-1.092719709E1,1.627276230E1
1.461094383E1,1.887471857E0,-1.186143480E1,-1.088839146E1,1.621151609E1
1.462092983E1,2.149670947E0,-1.172844105E1,-1.087965455E1,1.614138463E1
1.463091483E1,2.817680252E0,-1.150703272E1,-1.112012714E1,1.624833381E1
1.464090083E1,3.899513381E0,-1.081222563E1,-1.079221996E1,1.576649737E1
1.465088683E1,5.141283646E0,-1.002869405E1,-1.029695612E1,1.526547763E1
1.466087183E1,6.066552898E0,-9.469935293E0,-9.781945059E0,1.490534091E1
1.467085783E1,7.139154443E0,-9.061373963E0,-9.118054533E0,1.470424914E1
1.468084283E1,8.287187408E0,-8.367597148E0,-8.459294354E0,1.450013166E1
1.469082883E1,9.190676951E0,-7.791326564E0,-7.686567264E0,1.429183784E1
1.470081383E1,9.468150723E0,-7.528249222E0,-6.932953552E0,1.394224729E1
1.471079983E1,8.932302525E0,-7.754401397E0,-6.362001595E0,1.343100271E1
1.472078483E1,8.009088569E0,-8.188649545E0,-5.833502178E0,1.285415220E1
1.473077083E1,7.619689150E0,-8.454514840E0,-5.068862371E0,1.245920742E1
1.474075683E1,8.410464841E0,-8.305217882E0,-4.144418162E0,1.252552453E1
1.475074183E1,1.013913392E1,-7.621704100E0,-3.079981084E0,1.305291897E1
1.476072783E1,1.215153622E1,-6.390065306E0,-1.044709741E0,1.376895732E1
1.477071283E1,1.402377374E1,-5.073993303E0,7.876158553E-1,1.493425514E1
1.478069883E1,1.538816187E1,-3.437564633E0,2.674753252E0,1.599270713E1
1.479068383E1,1.599318146E1,-1.850524617E0,4.308555937E0,1.666643180E1
1.480066983E1,1.606987705E1,-1.020390148E0,5.313929120E0,1.695641434E1
1.481065583E1,1.580289435E1,-1.439904921E0,6.071078058E0,1.699007901E1
1.482064083E1,1.454943141E1,-2.238182589E0,7.089163088E0,1.633865505E1
1.483062683E1,1.227991184E1,-2.579450068E0,7.832906699E0,1.479203248E1
1.484061183E1,9.849089806E0,-2.398400099E0,8.512493491E0,1.323704795E1
1.485059783E1,7.848374339E0,-2.480182473E0,1.041118031E1,1.327181074E1
1.486058283E1,5.842150210E0,-2.653287246E0,1.322355304E1,1.469806135E1
1.487056854E1,4.033462567E0,-2.502902999E0,1.548002865E1,1.619149871E1
1.488055354E1,2.297533729E0,-1.826956683E0,1.592081281E1,1.618915416E1
1.489053954E1,2.447172309E-1,-1.124061063E0,1.537356020E1,1.541654154E1
1.490052554E1,-2.148972497E0,-3.178208752E-1,1.505573363E1,1.521164712E1
1.491051054E1,-4.187557164E0,5.466855005E-1,1.483262142E1,1.542209967E1
1.492049654E1,-5.970411808E0,1.080000027E0,1.374693147E1,1.502632164E1
1.493048154E1,-7.836127930E0,1.430159074E0,1.315059382E1,1.537492679E1
1.494046754E1,-9.693029374E0,1.364287413E0,1.256324803E1,1.592643399E1
1.495045254E1,-1.168149726E1,1.427737889E0,1.191625362E1,1.674792268E1
1.496043854E1,-1.341452311E1,1.138639998E0,1.076130690E1,1.723518661E1
1.497042354E1,-1.470681507E1,6.311734544E-1,8.754268257E0,1.712676274E1
1.498040954E1,-1.539180586E1,5.031090528E-3,6.367475758E0,1.665690428E1
1.499039554E1,-1.528379843E1,-2.648269750E-1,3.865749804E0,1.576732854E1
1.500038054E1,-1.386783201E1,-2.782071586E-1,2.272886399E0,1.405561014E1
1.501036654E1,-1.162879982E1,-2.285425168E-1,1.891173145E0,1.178379195E1
1.502035154E1,-9.423907181E0,-4.962093383E-2,2.011933351E0,9.636408283E0
1.503033754E1,-7.653339876E0,-1.331314525E-1,1.603883067E0,7.820727340E0
1.504032254E1,-6.219393268E0,-3.927248771E-1,7.576833737E-1,6.277672303E0
1.505030854E1,-4.805046819E0,-3.374964635E-1,1.460213470E-1,4.819097532E0
1.506029354E1,-3.490867559E0,-3.865250744E-2,3.475818872E-2,3.491254569E0
1.507027954E1,-2.399506831E0,1.100894760E-1,-2.245213866E-1,2.412501311E0
1.508026554E1,-1.304458848E0,1.448759506E-1,-6.597717476E-1,1.468979471E0
1.509025054E1,-2.087338313E-1,-7.611393705E-2,-1.374062349E0,1.391908935E0
1.510023654E1,4.878337866E-1,-1.461211152E-1,-1.349738517E0,1.442611260E0
1.511022154E1,1.149982866E0,-2.237509429E-1,-6.277056170E-1,1.329112267E0
1.512020754E1,1.987728948E0,-2.122561209E-1,-6.738050652E-1,2.109533668E0
1.513019254E1,3.020478648E0,7.270683758E-2,-8.935720807E-1,3.150721919E0
1.514017854E1,4.031354353E0,2.347456817E-1,-1.291450548E0,4.239666021E0
1.515016454E1,4.924540225E0,2.380664617E-1,-1.728284919E0,5.224436891E0
1.516014954E1,5.669504151E0,3.157347348E-1,-1.649136423E0,5.912919472E0
1.517013554E1,6.879384286E0,3.917751431E-1,-1.702276504E0,7.097687032E0
1.518012054E1,8.285573577E0,6.314120208E-1,-1.792014307E0,8.500630913E0
1.519010654E1,9.905782070E0,1.115934968E0,-9.935664850E-1,1.001783428E1
1.520009154E1,1.175724677E1,1.805922495E0,-3.975521922E-3,1.189513445E1
1.521007754E1,1.335185499E1,2.591857860E0,9.728772819E-1,1.363584427E1
1.522006254E1,1.429511027E1,3.123199609E0,2.226111597E0,1.480067993E1
1.523004854E1,1.397739012E1,3.181182938E0,3.754793624E0,1.481842888E1
1.524003454E1,1.267400365E1,2.569555410E0,4.981386856E0,1.385810949E1
1.525001954E1,1.067651760E1,1.804545475E0,6.405452254E0,1.258070868E1
1.526000554E1,8.050882128E0,1.067713565E0,8.741162308E0,1.193166517E1
1.526999054E1,5.614112892E0,4.509020416E-1,1.157852663E1,1.287570794E1
1.527997654E1,3.797343813E0,1.587877192E-1,1.375534327E1,1.427075689E1
1.528996154E1,2.709410576E0,1.905534491E-2,1.559877039E1,1.583233737E1
1.529994754E1,1.550195980E0,-1.232566747E-1,1.755876877E1,1.762749729E1
1.530993254E1,-1.247256780E-2,-3.690503781E-1,1.915002303E1,1.915358284E1
1.531991854E1,-2.012126747E0,-9.554645661E-1,2.046118278E1,2.058206908E1
1.532990454E1,-4.328933483E0,-1.945903083E0,2.121653780E1,2.174092178E1
1.533988954E1,-7.378079275E0,-3.108069646E0,2.071366789E1,2.220703016E1
1.534987554E1,-1.036893067E1,-4.255221144E0,2.024028667E1,2.313635310E1
1.535986054E1,-1.235825634E1,-5.607935894E0,1.916994917E1,2.348749446E1
1.536984654E1,-1.386031366E1,-6.328633874E0,1.743302557E1,2.315319161E1
1.537983154E1,-1.493391742E1,-7.150134344E0,1.551115104E1,2.268792888E1
1.538981754E1,-1.604259862E1,-8.164949026E0,1.312562387E1,2.227809160E1
1.539980354E1,-1.694480411E1,-8.963235465E0,1.136652764E1,2.228595807E1
1.540978854E1,-1.756945748E1,-1.002769418E1,9.232918991E0,2.223706995E1
1.541977454E1,-1.823483905E1,-1.105968564E1,6.847610516E0,2.239901273E1
1.542975954E1,-1.853136890E1,-1.186698615E1,4.872601163E0,2.253839470E1
1.543974554E1,-1.826442947E1,-1.251532893E1,3.036165558E0,2.234817987E1
1.544973054E1,-1.803001810E1,-1.328316658E1,8.324862188E-1,2.241020081E1
1.545971654E1,-1.756291328E1,-1.397969509E1,-1.378205686E0,2.248971429E1
1.546970154E1,-1.673600238E1,-1.416608328E1,-3.120067255E0,2.214738158E1
1.547968754E1,-1.543159967E1,-1.418914937E1,-4.002077052E0,2.134204416E1
1.548967354E1,-1.400838855E1,-1.426707989E1,-4.846596256E0,2.057362422E1
1.549965854E1,-1.265923709E1,-1.425326877E1,-5.904626539E0,1.995686771E1
1.550964454E1,-1.140612732E1,-1.433676467E1,-7.124881389E0,1.965722504E1
1.551962954E1,-1.017507793E1,-1.435584530E1,-7.653498920E0,1.918850049E1
1.552961554E1,-8.725363716E0,-1.407346689E1,-7.962659923E0,1.837385086E1
1.553960054E1,-7.363544852E0,-1.382484796E1,-8.227368053E0,1.769287424E1
1.554958654E1,-6.442919458E0,-1.397986466E1,-8.498537942E0,1.758331522E1
1.555957154E1,-5.901635689E0,-1.405465289E1,-8.504326685E0,1.745526121E1
1.556955754E1,-4.859865635E0,-1.403823157E1,-8.995154246E0,1.736672218E1
1.557954354E1,-3.730558670E0,-1.404931672E1,-9.863214340E0,1.756654107E1
1.558952854E1,-2.921222455E0,-1.416689838E1,-1.078846722E1,1.804509837E1
1.559951454E1,-2.492783515E0,-1.477198930E1,-1.134427664E1,1.879144088E1
1.560949954E1,-2.585186187E0,-1.559667358E1,-1.114260968E1,1.934159158E1
1.561948554E1,-2.405447748E0,-1.632280889E1,-1.085216094E1,1.974815601E1
1.562947054E1,-1.401812942E0,-1.687139700E1,-1.161248842E1,2.052946672E1
1.563945654E1,2.565313109E-1,-1.690433437E1,-1.241673318E1,2.097611955E1
1.564944154E1,2.562470339E0,-1.625231719E1,-1.222723895E1,2.049901073E1
1.565942754E1,4.976424909E0,-1.510866379E1,-1.190645602E1,1.986958031E1
1.566941354E1,7.152095500E0,-1.390258786E1,-1.204466081E1,1.973596396E1
1.567939854E1,8.641165565E0,-1.304991997E1,-1.243562904E1,1.999037326E1
1.568938454E1,9.168049981E0,-1.246804366E1,-1.215239342E1,1.967704041E1
1.569936954E1,9.733312597E0,-1.173612429E1,-1.081523460E1,1.869340223E1
1.570935554E1,1.056370727E1,-1.072447997E1,-9.699178306E0,1.790755264E1
1.571934054E1,1.112265781E1,-1.000775985E1,-9.085671483E0,1.750480507E1
1.572932654E1,1.146782831E1,-9.525925307E0,-8.621065176E0,1.722141411E1
1.573931154E1,1.168212642E1,-9.080374491E0,-7.924765288E0,1.678473067E1
1.574929754E1,1.179931047E1,-8.794684796E0,-6.836044139E0,1.622657412E1
1.575928354E1,1.179284345E1,-8.603756833E0,-5.517187107E0,1.560561251E1
1.576926854E1,1.258800163E1,-8.282811352E0,-3.798862919E0,1.554008071E1
1.577925454E1,1.384020274E1,-7.871983641E0,-2.518645458E0,1.612026406E1
1.578923954E1,1.461228079E1,-7.276711360E0,-2.094491358E0,1.645770860E1
1.579922554E1,1.513167259E1,-6.503295468E0,-1.477520059E0,1.653612508E1
1.580921054E1,1.530995185E1,-5.551400335E0,5.615899801E-2,1.628544827E1
1.581919654E1,1.542391409E1,-4.486429406E0,2.066543421E0,1.619554804E1
1.582918154E1,1.618277509E1,-4.003770113E0,3.941477094E0,1.713031309E1
1.583916754E1,1.699267527E1,-4.280665595E0,5.945402682E0,1.850467303E1
1.584915354E1,1.698776010E1,-4.523382348E0,8.101362895E0,1.935657671E1
1.585913854E1,1.571981477E1,-4.191672435E0,8.544252058E0,1.837626016E1
1.586912396E1,1.348436927E1,-3.519049092E0,7.926615347E0,1.603256536E1
1.587910896E1,1.082822361E1,-2.853549704E0,8.514892604E0,1.406757152E1
1.588909496E1,8.361276308E0,-2.039747971E0,1.045352117E1,1.354059150E1
1.589907996E1,7.179564550E0,-1.662268685E0,1.302713805E1,1.496715104E1
1.590906596E1,6.297378752E0,-2.139703345E0,1.577955812E1,1.712395293E1
1.591905096E1,4.538644750E0,-2.506161067E0,1.794991125E1,1.868366809E1
1.592903696E1,1.077238533E0,-2.432581168E0,1.969061799E1,1.986953273E1
1.593902296E1,-3.828689274E0,-3.034756087E0,2.176479612E1,2.230638824E1
1.594900796E1,-8.540489960E0,-3.993328448E0,2.353799468E1,2.535594278E1
1.595899396E1,-1.232613642E1,-4.469728589E0,2.409434321E1,2.743081274E1
1.596897896E1,-1.505042202E1,-4.948948842E0,2.297818225E1,2.791064594E1
1.597896496E1,-1.763138067E1,-5.074507858E0,2.118973182E1,2.802893057E1
1.598894996E1,-1.895011959E1,-4.417588382E0,1.972008562E1,2.770386068E1
1.599893596E1,-1.824076345E1,-3.525110023E0,1.725134907E1,2.535272957E1
1.600892196E1,-1.608802447E1,-2.572367921E0,1.342014228E1,2.110786173E1
1.601890696E1,-1.335408512E1,-1.480989943E0,9.929968493E0,1.670715998E1
1.602889296E1,-1.047082775E1,-2.047424488E-1,7.246828580E0,1.273564595E1
1.603887796E1,-7.494602589E0,1.309215412E0,5.016970087E0,9.113347454E0
1.604886396E1,-4.636948432E0,2.375527253E0,3.060035647E0,6.042204784E0
1.605884896E1,-2.664450458E0,3.267989240E0,1.656099288E0,4.530089929E0
1.606883496E1,-1.699398212E0,3.624046959E0,4.722644055E-1,4.030471971E0
1.607881996E1,-1.335810157E0,3.070221204E0,-2.588223231E-1,3.358219172E0
1.608880596E1,-1.377317933E0,2.390084481E0,-7.630522871E-1,2.862124614E0
1.609879196E1,-1.204651993E0,1.746323141E0,-1.607443437E0,2.661710980E0
1.610877696E1,-9.838127446E-1,1.234852862E0,-2.344391415E0,2.826467798E0
1.611876296E1,-1.003634952E0,6.596714678E-1,-2.939412850E0,3.175310609E0
1.612874796E1,-9.805452474E-1,-1.003208251E-1,-3.897848094E0,4.020541383E0
1.613873396E1,-7.527646228E-1,-4.694226587E-1,-4.891773013E0,4.971564686E0
1.614871896E1,-2.338896494E-1,-4.538505732E-1,-5.284920498E0,5.309526286E0
1.615870496E1,6.143077455E-1,-2.960371464E-1,-5.472247161E0,5.514571696E0
1.616868996E1,2.021564592E0,9.101571232E-2,-5.277460036E0,5.652131606E0
1.617867596E1,3.523812234E0,5.929973488E-1,-4.801332375E0,5.985122479E0
1.618866196E1,4.597944872E0,7.021352635E-1,-4.758864048E0,6.654387876E0
1.619864696E1,5.257752580E0,5.905155712E-1,-5.096320896E0,7.346098115E0
1.620863296E1,6.059064369E0,4.316179244E-1,-4.769276769E0,7.722988797E0
1.621861796E1,7.120922824E0,4.221264316E-1,-3.783419838E0,8.074651588E0
1.622860396E1,8.179588700E0,6.890771154E-1,-2.664917650E0,8.630311967E0
1.623858896E1,8.898567014E0,6.897394587E-1,-1.699874468E0,9.085692524E0
1.624857496E1,8.973418976E0,4.254672383E-1,-7.765833288E-1,9.017003502E0
1.625855996E1,9.192971399E0,3.617865282E-1,8.719601870E-2,9.200500844E0
1.626854596E1,9.573653204E0,4.289884315E-1,5.775745136E-1,9.600648888E0
1.627853196E1,9.504499939E0,2.204515783E-1,1.595922668E0,9.640077134E0
1.628851696E1,9.329535459E0,5.207004011E-2,3.584081824E0,9.994427732E0
1.629850296E1,9.210403703E0,5.051263422E-3,5.291282853E0,1.062211072E1
1.630848796E1,8.981148410E0,-2.052982266E-1,6.410412447E0,1.103614796E1
1.631847396E1,8.299478256E0,-4.423518044E-1,7.386288182E0,1.111909473E1
1.632845896E1,7.334645573E0,-3.507942013E-1,8.232887240E0,1.103179562E1
1.633844496E1,5.997078035E0,-2.206318188E-1,9.383927429E0,1.113874846E1
1.634842996E1,4.555131851E0,-3.929763074E-1,1.095587651E1,1.187160001E1
1.635841596E1,3.256703237E0,-5.661668882E-1,1.261126186E1,1.303727681E1
1.636840196E1,1.939056578E0,-8.198419073E-1,1.390594767E1,1.406440406E1
1.637838696E1,1.015267403E-1,-1.454703932E0,1.506464011E1,1.513505377E1
1.638837296E1,-2.339211659E0,-1.974585869E0,1.593275750E1,1.622416908E1
1.639835796E1,-4.607404498E0,-2.780620015E0,1.613488873E1,1.700866421E1
1.640834396E1,-7.210161860E0,-3.678615222E0,1.632054602E1,1.821754282E1
1.641832896E1,-9.885341374E0,-4.259202221E0,1.649965208E1,1.970023595E1
1.642831496E1,-1.181314382E1,-4.822689330E0,1.640168081E1,2.078037133E1
1.643830096E1,-1.308705330E1,-5.357654014E0,1.571080188E1,2.113775570E1
1.644828596E1,-1.385466876E1,-6.053046999E0,1.484426907E1,2.118828801E1
1.645827196E1,-1.411121066E1,-6.619917015E0,1.385384079E1,2.085374001E1
1.646825696E1,-1.416498751E1,-6.952697260E0,1.308547221E1,2.049918177E1
1.647824296E1,-1.391981843E1,-7.520595801E0,1.201155738E1,1.986449640E1
1.648822796E1,-1.349466855E1,-8.167230610E0,1.060165102E1,1.900538712E1
1.649821396E1,-1.357318146E1,-8.858992474E0,9.344116661E0,1.870896894E1
1.650819896E1,-1.389234120E1,-9.878498962E0,8.012398093E0,1.883561544E1
1.651818496E1,-1.420646765E1,-1.106757704E1,6.395610221E0,1.911069896E1
1.652816996E1,-1.443157610E1,-1.221256829E1,4.452863465E0,1.942280119E1
