"Time (s)","Linear Acceleration x (m/s^2)","Linear Acceleration y (m/s^2)","Linear Acceleration z (m/s^2)","Absolute acceleration (m/s^2)"
-8.089583134E-4,-1.481756806E-1,1.115558115E-1,3.844058973E-1,4.268121662E-1
9.176041698E-3,-1.004173042E-1,9.225210607E-2,1.141785800E-1,1.778505952E-1
1.916204166E-2,-7.096144371E-2,6.417260706E-2,-1.246667308E-1,1.571478404E-1
2.914704167E-2,-9.801322147E-2,3.277846768E-2,-1.786903256E-1,2.064249307E-1
3.913304169E-2,-1.359387007E-1,7.810067475E-2,-7.658507645E-2,1.744830069E-1
4.911804170E-2,-1.754530147E-1,9.418607265E-2,8.801462889E-2,2.177185145E-1
5.910404166E-2,-1.483095818E-1,9.721507654E-2,1.734453732E-1,2.480520120E-1
6.908904167E-2,-8.259111710E-2,1.555524547E-1,1.773156452E-1,2.499173800E-1
7.907504169E-2,-1.239853840E-1,1.683661893E-1,1.859449661E-1,2.798125793E-1
8.906004170E-2,-2.635734782E-1,1.654137839E-1,1.390842104E-1,3.408476432E-1
9.904604167E-2,-2.871449932E-1,1.998759574E-1,-3.550838649E-2,3.516582019E-1
1.090310417E-1,-1.924931167E-1,1.946837761E-1,-2.143881619E-1,3.477321622E-1
1.190170417E-1,-1.201713183E-1,2.085353914E-1,-3.230674356E-1,4.028656391E-1
1.290020416E-1,-1.737536676E-2,3.061727831E-1,-3.382865685E-1,4.565977211E-1
1.389870417E-1,1.983265914E-2,4.014790361E-1,-2.394329560E-1,4.678748670E-1
1.489730417E-1,-3.562635407E-2,3.826603572E-1,-9.341336310E-2,3.955050474E-1
1.589580417E-1,-1.456911986E-1,3.264589669E-1,1.546822429E-2,3.578276797E-1
1.689440417E-1,-1.881036850E-1,3.483851485E-1,3.583173752E-2,3.975413455E-1
1.789290417E-1,-1.790128727E-1,3.319112031E-1,-1.051200736E-1,3.914854853E-1
1.889150417E-1,-1.538527422E-1,2.497053444E-1,-3.201385653E-1,4.341798318E-1
1.989000417E-1,-1.642637097E-1,2.011683382E-1,-5.756402546E-1,6.315164047E-1
2.088860417E-1,-1.676784837E-1,1.413093683E-1,-8.461184174E-1,8.740713859E-1
2.188710417E-1,-8.650524326E-2,7.814292088E-2,-1.063281668E0,1.069652924E0
2.288570417E-1,2.478868604E-2,4.772585124E-2,-1.245676205E0,1.246836574E0
2.388420417E-1,1.012305422E-1,-1.574932918E-2,-1.312571275E0,1.316563336E0
2.488280417E-1,1.266184583E-1,-4.717211992E-2,-1.300707859E0,1.307707298E0
2.588130417E-1,4.797969349E-2,-5.301202655E-2,-1.307705807E0,1.309659041E0
2.687990417E-1,9.317647777E-3,-6.694418728E-2,-1.355224375E0,1.356908784E0
2.787840417E-1,-7.137440331E-2,-1.186636868E-1,-1.421953384E0,1.428680091E0
2.887690417E-1,-2.132737557E-1,-3.423106223E-1,-1.563715619E0,1.614889716E0
2.987550417E-1,-3.401351658E-1,-6.436715855E-1,-1.719319968E0,1.867101013E0
3.087400417E-1,-6.181294857E-1,-7.849254052E-1,-1.801197944E0,2.059734446E0
3.187260417E-1,-1.026235171E0,-8.025467205E-1,-1.766383622E0,2.194846456E0
3.287110417E-1,-1.273557775E0,-7.543723878E-1,-1.655939659E0,2.221072547E0
3.386970417E-1,-1.480987166E0,-8.186503910E-1,-1.407718338E0,2.201177495E0
3.486820417E-1,-1.801546146E0,-9.118442642E-1,-1.081043755E0,2.290345842E0
3.586680417E-1,-2.031533217E0,-8.191998830E-1,-8.737324780E-1,2.358309586E0
3.686530417E-1,-2.251537630E0,-6.112924095E-1,-7.189373839E-1,2.441305198E0
3.786390417E-1,-2.550283864E0,-3.500275583E-1,-4.711686373E-1,2.616957578E0
3.886240417E-1,-3.015998804E0,-7.851304963E-2,-3.060239714E-1,3.032501237E0
3.986100417E-1,-3.749237892E0,-1.241023283E-1,1.358723348E-1,3.753751118E0
4.085950417E-1,-4.810184475E0,-3.126611459E-1,1.173992264E0,4.961238707E0
4.185810417E-1,-5.999094740E0,-2.767252183E-1,1.845113457E0,6.282528012E0
4.285660417E-1,-6.783470653E0,-3.212925864E-1,2.491925436E0,7.233836839E0
4.385510417E-1,-6.988683949E0,-5.653441849E-1,3.261852880E0,7.733110732E0
4.485370417E-1,-6.855368017E0,-7.716753222E-1,3.743034289E0,7.848685185E0
4.585220417E-1,-6.489950953E0,-8.844081051E-1,3.843487115E0,7.594342254E0
4.685080417E-1,-5.968153614E0,-9.665638970E-1,3.538178843E0,7.005127611E0
4.784930416E-1,-5.392056692E0,-1.080984186E0,2.861216281E0,6.199141939E0
4.884790417E-1,-4.770132217E0,-1.229811539E0,1.990614402E0,5.313110528E0
4.984640417E-1,-4.061966574E0,-1.420560578E0,1.161194463E0,4.457122096E0
5.084500417E-1,-3.195375300E0,-1.450916105E0,4.079204750E-1,3.532984569E0
5.184350417E-1,-2.291321647E0,-1.453350447E0,-3.902344018E-1,2.741288985E0
5.284210417E-1,-1.150728971E0,-1.590953119E0,-1.093290748E0,2.247352587E0
5.384060417E-1,4.610609210E-1,-1.717856995E0,-1.792523015E0,2.525222483E0
5.483920417E-1,2.250703817E0,-1.648947266E0,-2.495008088E0,3.742961410E0
5.583770417E-1,4.474206387E0,-1.650267275E0,-3.027329831E0,5.648595469E0
5.683630417E-1,7.028838533E0,-1.794024726E0,-3.355216541E0,7.992532382E0
5.783480417E-1,8.849826379E0,-1.735564703E0,-3.394273603E0,9.636010848E0
5.883330417E-1,9.641055813E0,-1.679717361E0,-2.765731249E0,1.016959571E1
5.983190417E-1,9.314751359E0,-1.603756768E0,-1.858277294E0,9.632747435E0
6.083040417E-1,8.241073927E0,-1.570311279E0,-1.244358242E0,8.481132260E0
6.182900417E-1,8.222610759E0,-1.615374016E0,-6.795610642E-1,8.407292319E0
6.282750417E-1,9.038028370E0,-1.567911874E0,-1.694903165E-1,9.174586172E0
6.382610417E-1,1.041504415E1,-1.228055620E0,1.488326883E-1,1.048825135E1
6.482460417E-1,1.228933404E1,-8.568037654E-1,3.463995802E-1,1.232403491E1
6.582313750E-1,1.419681273E1,-8.446145135E-1,5.974357510E-1,1.423445801E1
6.682163750E-1,1.604673026E1,-6.458444108E-1,8.740833110E-1,1.608349119E1
6.782023750E-1,1.735248251E1,-2.033421868E-1,1.520108839E0,1.742012423E1
6.881873750E-1,1.693117425E1,6.635727301E-2,3.056198704E0,1.720492416E1
6.981733750E-1,1.552712446E1,4.388253486E-1,5.349065623E0,1.642853203E1
7.081583750E-1,1.383925316E1,5.720547420E-1,7.792584885E0,1.589265723E1
7.181443750E-1,1.247777343E1,6.327780765E-1,9.587776569E0,1.574867288E1
7.281293750E-1,1.176122756E1,4.701990227E-1,1.037317575E1,1.568917894E1
7.381153750E-1,1.131376119E1,6.056531355E-2,1.019003861E1,1.522635043E1
7.481003750E-1,1.050569938E1,-4.801847515E-1,9.496727235E0,1.416997265E1
7.580853750E-1,9.309000038E0,-8.862404032E-1,8.997097861E0,1.297654321E1
7.680713750E-1,7.779336264E0,-9.504349373E-1,9.130144236E0,1.203249488E1
7.780563750E-1,6.226927990E0,-9.869920219E-1,1.012663374E1,1.192885143E1
7.880423750E-1,4.561935964E0,-1.007545131E0,1.196642156E1,1.284607535E1
7.980273750E-1,2.746972212E0,-7.818377830E-1,1.400451769E1,1.429278288E1
8.080133750E-1,1.548710787E0,-6.851818465E-1,1.591167946E1,1.600154750E1
8.179983750E-1,1.204797004E0,-8.550247501E-1,1.721632191E1,1.727959326E1
8.279843750E-1,1.227327057E0,-1.315749822E0,1.785234227E1,1.794278835E1
8.379693750E-1,9.838309441E-1,-1.720998265E0,1.797573957E1,1.808471652E1
8.479553750E-1,7.871508555E-1,-2.234441541E0,1.785149208E1,1.800800114E1
8.579403750E-1,4.918110627E-1,-3.055745837E0,1.818599843E1,1.844749304E1
8.679263750E-1,-1.476965743E-1,-3.442206153E0,1.865078892E1,1.896635244E1
8.779113750E-1,-1.684231266E0,-4.283072017E0,1.910394580E1,1.965049836E1
8.878973750E-1,-3.263133712E0,-5.333341876E0,1.942514505E1,2.040658809E1
8.978823750E-1,-4.403186690E0,-6.232201009E0,1.945848353E1,2.090121919E1
9.078683750E-1,-5.018702617E0,-7.164774603E0,1.939804671E1,2.127922901E1
9.178533750E-1,-5.536415675E0,-8.118850163E0,1.918740077E1,2.155745752E1
9.278383750E-1,-5.972922018E0,-9.188276085E0,1.867770483E1,2.165541208E1
9.378243750E-1,-6.391633530E0,-1.068107024E1,1.749735547E1,2.147313878E1
9.478093750E-1,-7.390567759E0,-1.231613300E1,1.558557323E1,2.119475682E1
9.577953750E-1,-8.750890905E0,-1.340530322E1,1.317922647E1,2.073577238E1
9.677803750E-1,-9.888259134E0,-1.427252950E1,1.105128436E1,2.058187681E1
9.777663750E-1,-1.000893046E1,-1.473882974E1,9.399412610E0,2.014350388E1
9.877513750E-1,-8.871287414E0,-1.460838421E1,8.315183292E0,1.900649633E1
9.977373750E-1,-8.255052280E0,-1.477896386E1,8.116917073E0,1.877359858E1
1.007722375E0,-8.625847029E0,-1.504161494E1,7.753509112E0,1.899400749E1
1.017708375E0,-8.476025577E0,-1.475764959E1,6.751462995E0,1.830883622E1
1.027693375E0,-7.576393442E0,-1.481749467E1,5.951641662E0,1.767432953E1
1.037679375E0,-6.141735227E0,-1.480810171E1,5.275540395E0,1.687696994E1
1.047664375E0,-4.347862090E0,-1.461866127E1,4.619276977E0,1.593571090E1
1.057650375E0,-3.277450912E0,-1.439754297E1,4.051589520E0,1.531163955E1
1.067635375E0,-2.932717788E0,-1.477188639E1,3.519148495E0,1.546589368E1
1.077621375E0,-2.940411847E0,-1.592093443E1,2.874045657E0,1.644330604E1
1.087606375E0,-3.525678373E0,-1.688467252E1,1.670185230E0,1.732951507E1
1.097591375E0,-3.684716791E0,-1.699227766E1,1.097668558E-1,1.738754401E1
1.107577375E0,-3.170633099E0,-1.664231011E1,-1.075675426E0,1.697576147E1
1.117562375E0,-2.999288046E0,-1.658715800E1,-1.568768198E0,1.692898618E1
1.127548375E0,-3.672069264E0,-1.658979977E1,-2.132464346E0,1.712463002E1
1.137533375E0,-4.545637143E0,-1.672356302E1,-3.078238614E0,1.760158885E1
1.147519375E0,-5.462271227E0,-1.734484137E1,-4.286848733E0,1.868306723E1
1.157504375E0,-6.654084635E0,-1.789638116E1,-5.544521086E0,1.988212803E1
1.167490375E0,-7.931735753E0,-1.796434919E1,-6.677168273E0,2.074162120E1
1.177475375E0,-8.620680429E0,-1.777664071E1,-7.522382711E0,2.114027738E1
1.187461375E0,-8.318912646E0,-1.753064250E1,-7.935673853E0,2.096431858E1
1.197446375E0,-7.074227545E0,-1.738396158E1,-7.743539025E0,2.030293605E1
1.207432375E0,-5.826918213E0,-1.728075589E1,-7.145539602E0,1.958663412E1
1.217417375E0,-4.784512274E0,-1.721106877E1,-6.575422043E0,1.903545694E1
1.227403375E0,-4.082435337E0,-1.713712021E1,-6.160617056E0,1.866280712E1
1.237388375E0,-2.936563794E0,-1.673608307E1,-6.003648552E0,1.802120083E1
1.247374375E0,-1.226937048E0,-1.619238557E1,-5.671822572E0,1.720082255E1
1.257359375E0,9.299528718E-2,-1.589454244E1,-4.944991447E0,1.664626288E1
1.267344375E0,8.549732946E-1,-1.578508607E1,-4.370408953E0,1.640123154E1
1.277330375E0,1.274705291E0,-1.582694395E1,-3.969468884E0,1.636684794E1
1.287315375E0,1.172593903E0,-1.591491414E1,-3.543434905E0,1.634672443E1
1.297301375E0,1.712168970E0,-1.609589950E1,-3.312322537E0,1.652213618E1
1.307286375E0,3.038812593E0,-1.631667633E1,-2.921746073E0,1.685244518E1
1.317272375E0,3.978427404E0,-1.644440525E1,-2.195073407E0,1.706061827E1
1.327257375E0,4.280234071E0,-1.661290095E1,-1.527306177E0,1.722328499E1
1.337243375E0,3.965555635E0,-1.679528964E1,-1.017488614E0,1.728706651E1
1.347228375E0,3.438454872E0,-1.687800903E1,-9.093219946E-1,1.724868190E1
1.357214375E0,3.636598592E0,-1.697824668E1,-1.073100897E0,1.739647249E1
1.367199375E0,4.344890243E0,-1.688874920E1,-1.031411419E0,1.746916512E1
1.377185375E0,5.131533414E0,-1.662330198E1,-7.371497065E-1,1.741293179E1
1.387170375E0,5.893890467E0,-1.634382144E1,-8.283048749E-2,1.737427135E1
1.397156375E0,6.714830189E0,-1.592477255E1,9.801488793E-1,1.731034422E1
1.407141375E0,7.934478682E0,-1.500379983E1,1.706739976E0,1.705822155E1
1.417127375E0,8.709323049E0,-1.411324316E1,1.968664832E0,1.670064614E1
1.427112375E0,8.371822931E0,-1.374677125E1,1.611247928E0,1.617582329E1
1.437097375E0,8.060774447E0,-1.326596173E1,3.721805388E-1,1.552740621E1
1.447083375E0,8.036354721E0,-1.293768033E1,-9.383810484E-1,1.525932923E1
1.457068375E0,8.840222912E0,-1.300484262E1,-1.538576100E0,1.580008510E1
1.467054375E0,1.060923954E1,-1.256096995E1,-9.611524451E-1,1.646990418E1
1.477039375E0,1.188496867E1,-1.183440195E1,7.945144004E-1,1.679097386E1
1.487025375E0,1.242522099E1,-1.104524653E1,2.518561842E0,1.681448011E1
1.497010375E0,1.266571113E1,-9.980352781E0,3.234340560E0,1.644653881E1
1.506996375E0,1.187286728E1,-9.005607314E0,2.987351832E0,1.519836213E1
1.516981375E0,1.136216912E1,-8.819470559E0,2.821568066E0,1.465753030E1
1.526967375E0,1.277590775E1,-8.890157549E0,3.475196729E0,1.594790621E1
1.536952375E0,1.408758557E1,-8.673789520E0,4.845250812E0,1.723865271E1
1.546938375E0,1.483611338E1,-7.299550000E0,5.995181199E0,1.758794724E1
1.556923375E0,1.477308507E1,-5.629898620E0,6.882729478E0,1.724273082E1
1.566909375E0,1.409946712E1,-4.873031226E0,7.866467963E0,1.686483693E1
1.576894375E0,1.305775056E1,-3.835420589E0,8.586392941E0,1.609165761E1
1.586880375E0,1.097174235E1,-4.799950093E0,1.019648809E1,1.572854159E1
1.596865375E0,8.212399181E0,-6.612272365E0,1.280703950E1,1.658872831E1
1.606850375E0,5.736981604E0,-5.920186565E0,1.541850307E1,1.748404427E1
1.616836375E0,4.487489799E0,-5.242999470E0,1.803373459E1,1.930912198E1
1.626821375E0,4.947960663E0,-4.032870829E0,1.796305345E1,1.906351623E1
1.636807375E0,4.614217673E0,-2.836890694E0,1.558364365E1,1.649814847E1
1.646792375E0,3.074777939E0,-2.829620851E0,1.345176636E1,1.408584509E1
1.656778625E0,2.707549919E-1,-2.655123564E0,1.165856799E1,1.196015038E1
1.666763625E0,-5.193215691E0,-3.574569574E0,1.127726287E1,1.291989531E1
1.676749625E0,-1.153304581E1,-4.499610785E0,1.272984690E1,1.775687599E1
1.686734625E0,-1.729321981E1,-4.445341022E0,1.577235668E1,2.382401611E1
1.696720625E0,-2.163823899E1,-3.601798888E0,1.934239525E1,2.924576201E1
1.706705625E0,-2.303189477E1,-2.019663954E0,2.203619815E1,3.193965009E1
1.716691625E0,-2.157163686E1,-5.087631276E-1,2.223884393E1,3.098645730E1
1.726676625E0,-1.900451506E1,3.105576101E-1,1.920893957E1,2.702316411E1
1.736662625E0,-1.733834278E1,3.897760532E-1,1.477491291E1,2.278306624E1
1.746647625E0,-1.576619723E1,1.631269014E-1,1.060478162E1,1.900160463E1
1.756633625E0,-1.287733940E1,3.931927275E-1,6.944252712E0,1.463567957E1
1.766618625E0,-9.197067958E0,5.877257550E-1,4.256187104E0,1.015118758E1
1.776604625E0,-5.895508391E0,9.158540654E-1,2.479949169E0,6.461111030E0
1.786589625E0,-3.833705015E0,1.447017913E0,1.282652242E0,4.293757301E0
1.796574625E0,-2.928457799E0,1.874612222E0,2.671148443E-1,3.487317939E0
1.806560625E0,-2.497381181E0,1.992421192E0,-5.623086029E-1,3.243893638E0
1.816545625E0,-2.033528287E0,1.757636041E0,-7.979069549E-1,2.803779103E0
1.826531625E0,-1.618548030E0,1.532457574E0,-5.055678070E-1,2.285546488E0
1.836516625E0,-1.377656925E0,1.427369075E0,-6.901176274E-2,1.984964409E0
1.846502625E0,-1.233387989E0,1.239692018E0,1.304396868E-1,1.753595376E0
1.856487625E0,-8.046751070E-1,1.052518333E0,-5.282316148E-2,1.325928789E0
1.866473625E0,-1.387358260E-1,7.778684738E-1,-4.707739502E-1,9.197581770E-1
1.876458625E0,3.573294516E-1,4.734220446E-1,-9.240588784E-1,1.098042613E0
1.886444625E0,7.318678435E-1,2.226231977E-1,-1.290540136E0,1.500228473E0
1.896429625E0,1.016481650E0,-4.755669312E-2,-1.509465153E0,1.820434462E0
1.906415625E0,1.421794486E0,-1.497380383E-1,-1.677241066E0,2.203873552E0
1.916400625E0,2.302973247E0,1.364299765E-2,-1.641700519E0,2.828259625E0
1.926386625E0,3.529413574E0,1.800063329E-1,-1.392106857E0,3.798305406E0
1.936371625E0,4.560279448E0,2.237818966E-1,-1.270518100E0,4.739245005E0
1.946357625E0,5.644681551E0,3.558516774E-1,-1.275945486E0,5.798025277E0
1.956342625E0,6.804434676E0,5.616149770E-1,-1.018697818E0,6.903150576E0
1.966328625E0,7.843035246E0,7.845905060E-1,-2.724007273E-1,7.886886983E0
1.976313625E0,8.583990321E0,1.075214300E0,7.412755018E-1,8.682768279E0
1.986298625E0,9.080508392E0,1.299472927E0,1.840992925E0,9.355934881E0
1.996284625E0,9.353222530E0,1.373342557E0,2.917655361E0,9.893510715E0
2.006269625E0,9.568973678E0,1.460570735E0,3.875297137E0,1.042671818E1
2.016255625E0,9.703951973E0,1.559178911E0,4.748948924E0,1.091559612E1
2.026240625E0,9.665166222E0,1.588979830E0,5.515451653E0,1.124101872E1
2.036226625E0,9.482162991E0,1.333651072E0,6.104291412E0,1.135572163E1
2.046211625E0,8.998543292E0,1.133590635E0,6.566806755E0,1.119739970E1
2.056197625E0,8.081405763E0,1.017289955E0,7.014343870E0,1.074918685E1
2.066182625E0,6.924710147E0,9.336295279E-1,7.550539978E0,1.028756184E1
2.076168625E0,5.921933128E0,7.989519254E-1,8.017114457E0,9.999086977E0
2.086153625E0,5.191451586E0,6.825083533E-1,8.214674917E0,9.741553840E0
2.096139625E0,4.427267278E0,6.143793739E-1,8.339829891E0,9.462078005E0
2.106124625E0,4.079089560E0,6.649822015E-1,8.747688970E0,9.674876500E0
2.116110625E0,4.073509270E0,8.775871088E-1,9.247511303E0,1.014298290E1
2.126095625E0,3.733136707E0,1.052786793E0,1.019947368E1,1.091210030E1
2.136081625E0,3.362467089E0,1.184658901E0,1.167429116E1,1.220650137E1
2.146066625E0,3.093300749E0,9.510767423E-1,1.306500228E1,1.345984179E1
2.156051625E0,3.059728083E0,5.819415066E-1,1.426251906E1,1.459863151E1
2.166037625E0,2.824186449E0,-5.026663089E-2,1.526197662E1,1.552116253E1
2.176022625E0,1.648834853E0,-1.093426476E0,1.602572356E1,1.614738534E1
2.186008625E0,-2.797276722E-1,-2.303837466E0,1.617576077E1,1.634139379E1
2.195993625E0,-2.379341100E0,-3.366506345E0,1.561627579E1,1.615124449E1
2.205979625E0,-4.200959860E0,-4.207296195E0,1.497961808E1,1.611640043E1
2.215964625E0,-5.133664724E0,-4.940675032E0,1.473465834E1,1.636688546E1
2.225950625E0,-5.286361837E0,-5.801975745E0,1.459152786E1,1.656868218E1
2.235935625E0,-5.365526705E0,-6.452457436E0,1.422880402E1,1.651913883E1
2.245921625E0,-5.617656890E0,-6.977367833E0,1.358680781E1,1.627400004E1
2.255906625E0,-6.489686074E0,-7.634281461E0,1.297219761E1,1.639134496E1
2.265892625E0,-7.491213543E0,-8.423102428E0,1.260563683E1,1.691061841E1
2.275877625E0,-7.787842793E0,-9.175504596E0,1.202641984E1,1.701396938E1
2.285863625E0,-7.793566632E0,-9.892697171E0,1.119971944E1,1.685345228E1
2.295848625E0,-7.718093112E0,-1.050315935E1,1.005133798E1,1.645948701E1
2.305834625E0,-7.474051965E0,-1.120348037E1,8.932013673E0,1.616045462E1
2.315819625E0,-7.539360101E0,-1.209599001E1,7.984186447E0,1.633714046E1
2.325805625E0,-8.014517124E0,-1.286608001E1,6.852125151E0,1.663490663E1
2.335790625E0,-8.283773804E0,-1.351184182E1,5.735542604E0,1.685488733E1
2.345775625E0,-8.373886998E0,-1.389266747E1,4.664007007E0,1.687842274E1
2.355761625E0,-7.734174709E0,-1.386433654E1,3.732248515E0,1.630849365E1
2.365746625E0,-6.046020985E0,-1.344419188E1,3.238429518E0,1.509265022E1
2.375732625E0,-4.179158224E0,-1.355039135E1,3.338805161E0,1.456798164E1
2.385717625E0,-3.083376562E0,-1.437996156E1,3.123659200E0,1.503488451E1
2.395703625E0,-3.148592605E0,-1.514966096E1,1.924808668E0,1.559265055E1
2.405688625E0,-4.500126801E0,-1.600254402E1,2.082585257E-1,1.662455798E1
2.415674625E0,-6.894016358E0,-1.719472347E1,-1.870818987E0,1.861950430E1
2.425659625E0,-8.818384146E0,-1.792240361E1,-4.876879278E0,2.056113814E1
2.435645625E0,-1.006558414E1,-1.794404415E1,-7.761853673E0,2.198979484E1
2.445630625E0,-1.052196867E1,-1.797146642E1,-9.809160340E0,2.301966674E1
2.455616625E0,-1.024499542E1,-1.816196403E1,-1.093262915E1,2.354441014E1
2.465601625E0,-9.674609476E0,-1.796382762E1,-1.116772815E1,2.325973610E1
2.475587625E0,-8.783467498E0,-1.732357622E1,-1.036425874E1,2.201530044E1
2.485572625E0,-7.702996770E0,-1.710496871E1,-8.853935217E0,2.074387337E1
2.495558625E0,-6.451391489E0,-1.694800605E1,-7.363922582E0,1.957249900E1
2.505543625E0,-4.921533002E0,-1.656794756E1,-6.022283043E0,1.830263004E1
2.515529625E0,-3.198045139E0,-1.620407065E1,-4.728955539E0,1.718029158E1
2.525514625E0,-1.637086481E0,-1.619061387E1,-3.370953153E0,1.661864479E1
2.535500625E0,-3.815631272E-1,-1.649819495E1,-2.356182910E0,1.666996176E1
2.545485625E0,5.443615977E-1,-1.627781106E1,-2.161643706E0,1.642973420E1
2.555470625E0,1.166635444E0,-1.591742610E1,-2.044773653E0,1.609057461E1
2.565456625E0,1.467110261E0,-1.581899992E1,-1.733486018E0,1.598118096E1
2.575441625E0,1.661397596E0,-1.561468067E1,-1.554575252E0,1.577958170E1
2.585427625E0,1.957182654E0,-1.580963502E1,-1.501153336E0,1.600089325E1
2.595412625E0,2.371616928E0,-1.640084817E1,-1.750196190E0,1.666360028E1
2.605398625E0,3.030020134E0,-1.655181275E1,-2.381777342E0,1.699459887E1
2.615383625E0,3.812300990E0,-1.619801644E1,-3.082483692E0,1.692368403E1
2.625369625E0,4.429922207E0,-1.584071531E1,-3.285989601E0,1.677349695E1
2.635354625E0,4.935141227E0,-1.553635137E1,-3.201435939E0,1.661273682E1
2.645340625E0,5.001114777E0,-1.538483598E1,-2.977519739E0,1.644901063E1
2.655325375E0,4.651251598E0,-1.588696679E1,-2.731825585E0,1.677774497E1
2.665311375E0,4.227293673E0,-1.680516910E1,-2.433104786E0,1.749867764E1
2.675296375E0,4.773289713E0,-1.747460278E1,-2.969747328E0,1.835661832E1
2.685282375E0,6.315073596E0,-1.722952609E1,-3.572620697E0,1.869492826E1
2.695267375E0,7.633362864E0,-1.636962637E1,-3.027518111E0,1.831389533E1
2.705253375E0,8.158125325E0,-1.530647159E1,-1.845385938E0,1.744272142E1
2.715238375E0,8.674639120E0,-1.423680769E1,-1.043766001E0,1.670405653E1
2.725223375E0,8.620902039E0,-1.374257529E1,-1.789329851E-1,1.622375865E1
2.735209375E0,8.796594497E0,-1.333692471E1,4.687619233E-1,1.598353444E1
2.745194375E0,9.904599763E0,-1.234570471E1,5.785773110E-1,1.583831661E1
2.755180375E0,1.066212409E1,-1.166522563E1,1.754872209E-1,1.580472002E1
2.765165375E0,1.105121069E1,-1.093207601E1,-6.093745959E-1,1.555669891E1
2.775151375E0,1.118679358E1,-9.942784420E0,-1.214230464E0,1.501591384E1
2.785136375E0,1.065854794E1,-9.373122944E0,-1.179506189E0,1.424258799E1
2.795122375E0,1.088923697E1,-9.302957525E0,-5.871136612E-1,1.433405745E1
2.805107375E0,1.165681617E1,-9.053673765E0,2.303522301E-1,1.476155256E1
2.815093375E0,1.213762920E1,-8.545661822E0,1.422512378E0,1.491220708E1
2.825078375E0,1.255094432E1,-7.694094384E0,2.323975861E0,1.490389732E1
2.835064375E0,1.264389750E1,-6.093279351E0,2.620902734E0,1.427814163E1
2.845049375E0,1.129071615E1,-5.409552730E0,3.025599055E0,1.288013127E1
2.855035375E0,9.579533165E0,-5.158372718E0,3.331218984E0,1.137863281E1
2.865020375E0,9.109094844E0,-5.414599462E0,3.731524630E0,1.123466832E1
2.875006375E0,9.428405444E0,-6.917638525E0,4.860012107E0,1.266365941E1
2.884991375E0,9.441041862E0,-8.334594294E0,6.093902079E0,1.399051021E1
2.894977375E0,8.839894883E0,-8.619950112E0,7.950314112E0,1.468518900E1
2.904962375E0,7.754403151E0,-7.315305322E0,1.050723837E1,1.496818353E1
2.914947375E0,6.579201683E0,-5.088463992E0,1.257737256E1,1.507874866E1
2.924933375E0,5.033610093E0,-4.110551673E0,1.443313731E1,1.582874974E1
2.934918375E0,2.981686758E0,-4.387414995E0,1.635810736E1,1.719673058E1
2.944904375E0,2.780015376E-1,-4.570101016E0,1.772087113E1,1.830279711E1
2.954889375E0,-2.685515052E0,-5.150094815E0,1.814764537E1,1.905446143E1
2.964875375E0,-5.169806948E0,-5.762308819E0,1.736459210E1,1.901210576E1
2.974860375E0,-7.514961424E0,-5.794442777E0,1.593308612E1,1.854490349E1
2.984846375E0,-9.526785432E0,-4.644948592E0,1.431765597E1,1.781377165E1
2.994831375E0,-1.113206365E1,-2.780185567E0,1.264668429E1,1.707603280E1
3.004817375E0,-1.305694131E1,-2.018115319E0,1.186523081E1,1.775782104E1
3.014802375E0,-1.462610595E1,-1.682124368E0,1.240560943E1,1.925231578E1
3.024788375E0,-1.548650151E1,-5.520272244E-1,1.349874874E1,2.055122091E1
3.034773375E0,-1.565313663E1,5.850818999E-1,1.508352778E1,2.174570803E1
3.044759375E0,-1.487637029E1,1.545897692E0,1.650549111E1,2.227391814E1
3.054744375E0,-1.312430708E1,2.282549800E0,1.668262783E1,2.134871287E1
3.064730375E0,-1.100766764E1,2.495761210E0,1.525477636E1,1.897645311E1
3.074715375E0,-8.958513254E0,2.457718055E0,1.238591601E1,1.548244984E1
3.084701375E0,-6.914451792E0,1.780177350E0,8.816257514E0,1.134482576E1
3.094686375E0,-5.333057116E0,9.702302474E-1,5.131495407E0,7.464254152E0
3.104672375E0,-3.854829836E0,7.747766123E-1,2.110777608E0,4.462664448E0
3.114657375E0,-2.207342181E0,9.033395621E-1,3.274996251E-1,2.407413108E0
3.124643375E0,-6.297037567E-1,9.463479529E-1,-2.073095226E-1,1.155455974E0
3.134628375E0,5.900726081E-1,8.983448705E-1,-1.235569292E-1,1.081885162E0
3.144613375E0,1.235064970E0,8.009135932E-1,-1.215215135E-1,1.477029296E0
3.154599375E0,1.550485709E0,5.252291061E-1,-4.789705771E-1,1.705662441E0
3.164584375E0,1.521964892E0,1.751700460E-1,-9.334968692E-1,1.794011728E0
3.174570375E0,1.337382181E0,-2.314367424E-1,-1.243113370E0,1.840512133E0
3.184555375E0,1.414135657E0,-6.024248877E-1,-1.507325656E0,2.152841387E0
3.194541375E0,2.499844905E0,-9.492961921E-1,-1.890889555E0,3.275034522E0
3.204526375E0,3.427855624E0,-1.236539345E0,-2.078969924E0,4.195395056E0
3.214512375E0,3.558118433E0,-1.119477942E0,-1.907782161E0,4.189638459E0
3.224497375E0,3.501097263E0,-7.990837801E-1,-1.520517560E0,3.899768016E0
3.234483375E0,3.890272149E0,-6.488856938E-1,-1.071809247E0,4.087058245E0
3.244468375E0,4.247499896E0,-4.825173520E-1,-5.728300828E-1,4.313028247E0
3.254454375E0,4.480946472E0,-1.898090255E-2,3.607170725E-1,4.495481995E0
3.264439375E0,4.937804049E0,6.534237179E-1,1.737492530E0,5.275201577E0
3.274425375E0,5.696562141E0,1.223389542E0,3.052552965E0,6.577657775E0
3.284410375E0,6.201462196E0,1.542160882E0,4.085001680E0,7.584433550E0
3.294396375E0,6.189553172E0,1.640361945E0,4.983116462E0,8.113741767E0
3.304381375E0,5.743124689E0,1.823861314E0,5.616576909E0,8.237468510E0
3.314367375E0,5.456978327E0,1.835606470E0,5.953739643E0,8.282214638E0
3.324352375E0,5.708223243E0,1.594889173E0,6.103521334E0,8.507670465E0
3.334337375E0,5.384477531E0,1.348155968E0,6.469721341E0,8.524518580E0
3.344323375E0,4.891096198E0,1.460596463E0,7.201882203E0,8.827415891E0
3.354308375E0,4.554492751E0,1.647768029E0,8.462404488E0,9.750427345E0
3.364294375E0,4.224622957E0,1.730630237E0,9.884371905E0,1.088776047E1
3.374279375E0,4.043223324E0,1.781730224E0,1.078648501E1,1.165634919E1
3.384265375E0,3.822212313E0,1.831544701E0,1.121187346E1,1.198624084E1
3.394250375E0,3.543915546E0,1.640880740E0,1.157999545E1,1.222080691E1
3.404236375E0,3.266570998E0,1.190915349E0,1.205720777E1,1.254850687E1
3.414221375E0,2.809199451E0,7.137974621E-1,1.270146568E1,1.302798292E1
3.424207375E0,2.276281146E0,4.542584165E-1,1.342565620E1,1.362483215E1
3.434192375E0,1.513656437E0,1.831125383E-1,1.407516024E1,1.415750055E1
3.444178375E0,3.769593950E-1,-5.121941641E-3,1.437588956E1,1.438083187E1
3.454163375E0,-7.865226453E-1,-5.442260154E-1,1.437266190E1,1.440445104E1
3.464149375E0,-1.661837307E0,-1.014485922E0,1.408187284E1,1.421583722E1
3.474134375E0,-2.517125766E0,-1.685894652E0,1.408919941E1,1.441123530E1
3.484120375E0,-3.110494779E0,-2.937568054E0,1.449483947E1,1.511306901E1
3.494105375E0,-3.312473980E0,-4.234460897E0,1.481581886E1,1.576107964E1
3.504091375E0,-3.367072940E0,-5.679038036E0,1.478234589E1,1.618970053E1
3.514076375E0,-4.189244671E0,-7.195384777E0,1.421282709E1,1.647203044E1
3.524062375E0,-5.579358212E0,-8.248401073E0,1.312744119E1,1.647710747E1
3.534047375E0,-6.906215404E0,-9.095881307E0,1.213320871E1,1.666270151E1
3.544033375E0,-7.855247741E0,-1.000918657E1,1.138696483E1,1.707488509E1
3.554018375E0,-8.071824515E0,-1.079748713E1,1.023990250E1,1.692913709E1
3.564003375E0,-8.049947158E0,-1.146788912E1,8.636297173E0,1.645903275E1
3.573989375E0,-8.047133478E0,-1.206456707E1,6.761604406E0,1.600091966E1
3.583974375E0,-8.101961650E0,-1.249410821E1,4.909703500E0,1.567959537E1
3.593960375E0,-8.243153781E0,-1.305670391E1,3.361874181E0,1.580282568E1
3.603945375E0,-8.447144424E0,-1.336515272E1,1.890853887E0,1.592346962E1
3.613931375E0,-8.382916269E0,-1.353217727E1,6.448958462E-1,1.593138404E1
3.623916375E0,-8.112060961E0,-1.365933901E1,-3.172886324E-1,1.588973717E1
3.633902375E0,-8.003058336E0,-1.351538758E1,-1.217796096E0,1.575429057E1
3.643887375E0,-8.406158366E0,-1.342520363E1,-2.037824237E0,1.597035750E1
3.653873375E0,-8.971453727E0,-1.348544632E1,-2.779687968E0,1.643383430E1
3.663858167E0,-9.248419960E0,-1.339968053E1,-3.497021461E0,1.665274360E1
3.673844167E0,-8.981322657E0,-1.306852581E1,-4.037960245E0,1.636324071E1
3.683829167E0,-8.649682619E0,-1.281088463E1,-4.293939944E0,1.604287052E1
3.693815167E0,-8.388290445E0,-1.260676418E1,-4.516670621E0,1.580171614E1
3.703800167E0,-8.337136663E0,-1.219372973E1,-4.866237638E0,1.555233620E1
3.713786167E0,-8.302109503E0,-1.175535461E1,-5.200552193E0,1.530225890E1
3.723771167E0,-8.438126264E0,-1.144593400E1,-5.245824845E0,1.515684856E1
3.733757167E0,-8.538624698E0,-1.163484350E1,-4.863468689E0,1.522928175E1
3.743742167E0,-8.477366343E0,-1.226668193E1,-4.292118244E0,1.551642693E1
3.753728167E0,-8.537186283E0,-1.301235746E1,-4.021250657E0,1.607406150E1
3.763713167E0,-8.340053254E0,-1.338027012E1,-4.320720484E0,1.634798893E1
3.773698167E0,-7.829193133E0,-1.355539773E1,-4.460270133E0,1.627694942E1
3.783684167E0,-7.088349155E0,-1.395758209E1,-4.348568434E0,1.624711787E1
3.793669167E0,-6.103234820E0,-1.427945962E1,-4.352049866E0,1.612739223E1
3.803655167E0,-5.082074740E0,-1.477854286E1,-4.411564581E0,1.623867959E1
3.813640167E0,-4.085895719E0,-1.537191129E1,-4.433929596E0,1.651211471E1
3.823626167E0,-3.451335411E0,-1.555678388E1,-4.390378949E0,1.652878302E1
3.833611167E0,-3.109100218E0,-1.564877695E1,-4.075033931E0,1.646683411E1
3.843597167E0,-2.378111722E0,-1.580623077E1,-3.714915029E0,1.641014748E1
3.853582167E0,-1.022892318E0,-1.566571750E1,-3.318971406E0,1.604607693E1
3.863568167E0,6.267631920E-1,-1.552070889E1,-2.592860658E0,1.574827492E1
3.873553167E0,2.316514522E0,-1.536252183E1,-2.111500908E0,1.567902269E1
3.883539167E0,3.789893875E0,-1.514173565E1,-1.882883693E0,1.572198158E1
3.893524167E0,4.588144939E0,-1.516371065E1,-1.712293954E0,1.593490337E1
3.903510167E0,5.490465916E0,-1.541695707E1,-1.897414024E0,1.647507090E1
3.913495167E0,6.310892837E0,-1.547053043E1,-2.287742127E0,1.686411706E1
3.923481167E0,6.529170567E0,-1.569695567E1,-2.581082319E0,1.719553638E1
3.933466167E0,6.589789236E0,-1.581634178E1,-3.048387408E0,1.740329438E1
3.943452167E0,6.592954919E0,-1.548699385E1,-3.360967863E0,1.716421096E1
3.953437167E0,5.629213911E0,-1.503237283E1,-3.049984868E0,1.633899293E1
3.963423167E0,4.779884203E0,-1.452960935E1,-2.108838671E0,1.544033812E1
3.973408167E0,5.122832757E0,-1.414874862E1,-8.424677083E-1,1.507117297E1
3.983393167E0,5.881617161E0,-1.414641207E1,4.911368787E-2,1.532047020E1
3.993379167E0,7.207122477E0,-1.407230446E1,1.985059547E-1,1.581176056E1
4.003364167E0,8.409669034E0,-1.395979234E1,1.994590509E-1,1.629840849E1
4.013350167E0,9.096809260E0,-1.378684105E1,-1.836505187E-1,1.651855479E1
4.023335167E0,9.670079638E0,-1.305183201E1,-8.520141649E-1,1.626612084E1
4.033321167E0,9.740297681E0,-1.237249314E1,-9.757079190E-1,1.577669140E1
4.043306167E0,1.016945057E1,-1.142911039E1,-5.448862392E-1,1.530814130E1
4.053292167E0,1.128662310E1,-1.054510961E1,8.773115587E-1,1.547116263E1
4.063277167E0,1.195296595E1,-9.876693342E0,3.121781074E0,1.581669951E1
4.073263167E0,1.189014463E1,-9.155998285E0,5.105033247E0,1.585147338E1
4.083248167E0,1.128194883E1,-8.667704322E0,5.933898286E0,1.541501270E1
4.093234167E0,1.030145965E1,-8.636966679E0,5.509617301E0,1.452835665E1
4.103219167E0,9.221204095E0,-8.816101978E0,4.109839482E0,1.340317274E1
4.113205167E0,8.292049953E0,-8.177270279E0,2.012466032E0,1.181845426E1
4.123190167E0,8.315217791E0,-7.032828673E0,1.275465429E0,1.096495956E1
4.133176167E0,8.716513370E0,-6.773523955E0,3.313466837E0,1.152550626E1
4.143161167E0,9.110872983E0,-6.099473891E0,6.458536786E0,1.272494737E1
4.153147167E0,8.997548096E0,-5.618711727E0,1.040604879E1,1.485973232E1
4.163132167E0,8.889375191E0,-5.963650673E0,1.440445672E1,1.794643402E1
4.173118167E0,9.025453348E0,-5.946258715E0,1.767039914E1,2.071375887E1
4.183103167E0,8.833959374E0,-5.530201254E0,1.940663276E1,2.202814925E1
4.193089167E0,8.540088841E0,-3.729726903E0,1.812847586E1,2.038346431E1
4.203074167E0,7.592251090E0,-1.739108993E0,1.485574365E1,1.677378598E1
4.213059167E0,5.261059765E0,-2.201502421E0,1.315451146E1,1.433759166E1
4.223045167E0,2.430820571E0,-2.128403162E0,1.325440295E1,1.364251393E1
4.233030167E0,1.026784225E-1,-1.955474683E0,1.463253321E1,1.476297572E1
4.243016167E0,-1.130254653E0,-2.388085611E0,1.586550751E1,1.608399070E1
4.253001167E0,-1.855351347E0,-2.777655769E0,1.634528091E1,1.668310247E1
4.262987167E0,-2.200334440E0,-2.900690834E0,1.646962780E1,1.686724988E1
4.272972167E0,-2.342568253E0,-2.383220142E0,1.546842309E1,1.582527969E1
4.282958167E0,-3.422622951E0,-1.227291535E0,1.351850531E1,1.399894918E1
4.292943167E0,-5.770820026E0,-6.423623939E-1,1.212064187E1,1.343967829E1
4.302929167E0,-8.769295017E0,-9.930298568E-1,1.116661952E1,1.423306133E1
4.312914167E0,-1.188621413E1,-1.455891501E0,9.992921956E0,1.559680081E1
4.322900167E0,-1.404585400E1,-1.657881665E0,9.172534211E0,1.685734172E1
4.332885167E0,-1.500577853E1,-1.465731780E0,8.720477782E0,1.741747661E1
4.342871167E0,-1.504280193E1,-9.892172530E-1,8.394587896E0,1.725495716E1
4.352856167E0,-1.425354242E1,-4.284022482E-1,7.857239887E0,1.628137643E1
4.362842167E0,-1.280892932E1,3.508263610E-2,6.778220438E0,1.449186577E1
4.372827167E0,-1.115103435E1,2.909957501E-1,5.294039816E0,1.234735207E1
4.382813167E0,-9.253604102E0,4.276247147E-1,3.552941893E0,9.921463998E0
4.392798167E0,-7.454693003E0,5.473985685E-1,1.798973079E0,7.688198560E0
4.402784167E0,-6.063576080E0,5.422408857E-1,2.611389899E-1,6.093371286E0
4.412769167E0,-5.286706823E0,4.278696399E-1,-6.857977045E-1,5.348145468E0
4.422755167E0,-4.926762167E0,3.170441822E-1,-1.169695145E0,5.073626829E0
4.432740167E0,-4.517265868E0,1.219527822E-1,-1.552074983E0,4.778022619E0
4.442725167E0,-4.077357615E0,-6.818094648E-2,-1.839670869E0,4.473687815E0
4.452711167E0,-3.996697321E0,-2.143251581E-1,-1.867678447E0,4.416757582E0
4.462696167E0,-4.036742855E0,-2.800734437E-1,-1.743282443E0,4.405992247E0
4.472682167E0,-3.828585486E0,-3.659972544E-1,-1.603500075E0,4.166921322E0
4.482667167E0,-3.439878084E0,-5.666773136E-1,-1.618246753E0,3.843514923E0
4.492653167E0,-2.975108055E0,-6.876596041E-1,-1.880134771E0,3.585951816E0
4.502638167E0,-2.433764498E0,-7.867682283E-1,-2.194818469E0,3.370377128E0
4.512624167E0,-1.896485925E0,-9.050286765E-1,-2.394214954E0,3.185592726E0
4.522609167E0,-1.459386820E0,-8.854914480E-1,-2.457550240E0,2.992232975E0
4.532595167E0,-1.035660079E0,-8.190667858E-1,-2.467026238E0,2.798156653E0
4.542580167E0,-5.799498353E-1,-7.609810571E-1,-2.477445391E0,2.655780422E0
4.552566167E0,-1.535984066E-1,-6.190860171E-1,-2.513040317E0,2.592726673E0
4.562551167E0,3.569103889E-1,-4.774611915E-1,-2.491716106E0,2.562031102E0
4.572537167E0,8.021423855E-1,-3.178251510E-1,-2.428500103E0,2.577219041E0
4.582522167E0,1.106950063E0,-7.912390094E-2,-2.193642009E0,2.458386523E0
4.592508167E0,1.662556807E0,2.017104482E-1,-1.657583896E0,2.356346030E0
4.602493167E0,3.012270327E0,4.729836130E-1,-9.596005940E-1,3.196610599E0
4.612479167E0,4.844497105E0,6.589526258E-1,-3.517638159E-1,4.901745460E0
4.622464167E0,6.221161466E0,1.010737492E0,6.201363963E-1,6.333167407E0
4.632450167E0,6.738790909E0,1.534475448E0,1.706066085E0,7.118748436E0
4.642435167E0,6.824544420E0,1.770127010E0,2.618771424E0,7.521018544E0
4.652421167E0,6.766166403E0,1.931211954E0,3.587531097E0,7.898162241E0
4.662406625E0,6.593181791E0,2.089197435E0,4.505517057E0,8.254361029E0
4.672392625E0,6.381275772E0,2.196857685E0,5.326282532E0,8.597450191E0
4.682377625E0,6.186295688E0,2.309879540E0,6.331905391E0,9.148706122E0
4.692362625E0,6.137894776E0,2.375003050E0,7.324228758E0,9.846761837E0
4.702348625E0,6.146397797E0,2.330047610E0,7.894562080E0,1.027284956E1
4.712333625E0,6.213784034E0,2.206552953E0,8.358369657E0,1.064623555E1
4.722319625E0,6.044629932E0,1.888328767E0,9.051050704E0,1.104648611E1
4.732304625E0,5.753311123E0,1.680202242E0,9.884348516E0,1.155958538E1
4.742290625E0,5.534534041E0,1.597811319E0,1.074525279E1,1.219198612E1
4.752275625E0,5.383862988E0,1.508859966E0,1.168598793E1,1.295472705E1
4.762261625E0,5.108477257E0,1.438785179E0,1.250810411E1,1.358746890E1
4.772246625E0,4.686782204E0,1.252699588E0,1.300275867E1,1.387828940E1
4.782232625E0,4.164740160E0,1.031720883E0,1.322795950E1,1.390641655E1
4.792217625E0,3.258735729E0,8.869183148E-1,1.353655567E1,1.395149891E1
4.802203625E0,2.182382903E0,7.645876928E-1,1.420426208E1,1.439126300E1
4.812188625E0,1.197096587E0,2.378435549E-1,1.511031154E1,1.515952257E1
4.822174625E0,3.142246183E-1,-7.215190758E-1,1.573822064E1,1.575788424E1
4.832159625E0,-4.569849001E-1,-1.979777173E0,1.575315560E1,1.588364770E1
4.842145625E0,-1.040961530E0,-3.230465026E0,1.530725980E1,1.567902126E1
4.852130625E0,-1.723922165E0,-4.292450366E0,1.482623977E1,1.553107928E1
4.862116625E0,-2.641153396E0,-5.261412352E0,1.452243365E1,1.567032961E1
4.872101625E0,-3.473976122E0,-6.153457140E0,1.419506208E1,1.585664946E1
4.882087625E0,-4.275989285E0,-6.850822392E0,1.366155159E1,1.586996672E1
4.892072625E0,-5.021819183E0,-7.541794297E0,1.302014127E1,1.586257885E1
4.902057625E0,-5.549413451E0,-8.489892249E0,1.243319894E1,1.604551949E1
4.912043625E0,-5.870207489E0,-9.506296788E0,1.183651163E1,1.627673254E1
4.922028625E0,-6.356389437E0,-1.032774405E1,1.103504547E1,1.639628654E1
4.932014625E0,-7.166022398E0,-1.131388749E1,1.018317398E1,1.682417783E1
4.941999625E0,-7.965981141E0,-1.224397836E1,8.865723789E0,1.708721510E1
4.951985625E0,-8.626765042E0,-1.304472297E1,7.142492618E0,1.719305305E1
4.961970625E0,-9.182152296E0,-1.363915442E1,5.394387977E0,1.730427334E1
4.971956625E0,-9.592278340E0,-1.409118746E1,3.788904526E0,1.746222109E1
4.981941625E0,-9.704986930E0,-1.443499789E1,2.346128622E0,1.755164536E1
4.991927625E0,-9.763884764E0,-1.469891665E1,1.325919299E0,1.769603510E1
5.001912625E0,-9.789071646E0,-1.478897663E1,6.136132425E-1,1.774588050E1
5.011898625E0,-9.761418409E0,-1.471278274E1,8.444548845E-3,1.765648143E1
5.021883625E0,-9.621192237E0,-1.463033933E1,-5.017384654E-1,1.751758861E1
5.031869625E0,-9.414348738E0,-1.447194996E1,-1.078820643E0,1.729829910E1
5.041854625E0,-9.310645444E0,-1.436911147E1,-1.828852351E0,1.721929685E1
5.051840625E0,-9.245639024E0,-1.436755026E1,-2.663089811E0,1.729162771E1
5.061825625E0,-9.112399691E0,-1.445097482E1,-3.360327885E0,1.741144178E1
5.071811625E0,-8.931630680E0,-1.460594124E1,-3.839951304E0,1.754573373E1
5.081796625E0,-8.674202918E0,-1.459096418E1,-4.153042512E0,1.747529096E1
5.091782625E0,-8.548836860E0,-1.455396300E1,-4.333909464E0,1.742650917E1
5.101767625E0,-8.392493423E0,-1.458574847E1,-4.554944741E0,1.743345995E1
5.111753625E0,-8.183795772E0,-1.421856437E1,-5.036450086E0,1.716123293E1
5.121738625E0,-7.994119112E0,-1.378213989E1,-5.256170323E0,1.677738498E1
5.131724625E0,-8.048487108E0,-1.402375035E1,-4.958120785E0,1.691232333E1
5.141709625E0,-7.997571309E0,-1.446761483E1,-4.714275520E0,1.719003838E1
5.151695625E0,-7.761692875E0,-1.456086740E1,-4.815357506E0,1.718867079E1
5.161680625E0,-7.674174675E0,-1.503943393E1,-4.786175222E0,1.754950151E1
5.171665625E0,-7.432788749E0,-1.587966011E1,-4.584666138E0,1.812261342E1
5.181651625E0,-6.767332338E0,-1.609883480E1,-4.426338156E0,1.801559709E1
5.191636625E0,-5.951729954E0,-1.595060555E1,-4.220634863E0,1.754020141E1
5.201622625E0,-5.244992201E0,-1.624597414E1,-3.623292668E0,1.745193022E1
5.211607625E0,-4.568140444E0,-1.675925676E1,-3.043747643E0,1.763533368E1
5.221593625E0,-3.553982405E0,-1.700009188E1,-2.723667549E0,1.757988281E1
5.231578625E0,-2.415116411E0,-1.729362678E1,-2.315010325E0,1.761424388E1
5.241564625E0,-1.388691206E0,-1.776307751E1,-1.893623713E0,1.791762251E1
5.251549625E0,-2.955369902E-1,-1.792468753E1,-1.595121746E0,1.799794929E1
5.261535625E0,5.222312021E-1,-1.786087920E1,-1.132221656E0,1.790434744E1
5.271520625E0,9.263129801E-1,-1.756114625E1,-5.743141061E-1,1.759493535E1
5.281506625E0,1.441955247E0,-1.661611458E1,2.128328025E-2,1.667857763E1
5.291491625E0,1.342740277E0,-1.556527637E1,5.630725417E-1,1.563322842E1
5.301477625E0,8.509093335E-1,-1.542008767E1,7.996386078E-1,1.546423526E1
5.311462625E0,1.114956144E0,-1.533128016E1,4.878779331E-1,1.537950920E1
5.321448625E0,2.068839915E0,-1.497197577E1,-1.248789847E-2,1.511424206E1
5.331433625E0,3.259266071E0,-1.475729642E1,-1.597371608E-1,1.511377282E1
5.341419625E0,4.385111485E0,-1.456520720E1,3.401939303E-1,1.521480185E1
5.351404625E0,5.430139607E0,-1.394110698E1,1.585204722E0,1.504505746E1
5.361390625E0,6.774439044E0,-1.239095397E1,2.844558733E0,1.440556417E1
5.371375625E0,7.905884628E0,-1.088358154E1,3.788495221E0,1.397526583E1
5.381361625E0,8.568040286E0,-1.014729780E1,4.143824084E0,1.391223365E1
5.391346625E0,8.739799322E0,-9.664999577E0,3.939466821E0,1.361307121E1
5.401331625E0,8.540857165E0,-8.884899148E0,3.599316160E0,1.283911020E1
5.411317625E0,8.230372937E0,-8.097312528E0,3.312610804E0,1.201161518E1
5.421302625E0,8.032126014E0,-7.837060561E0,3.172070637E0,1.166175796E1
5.431288625E0,8.001778380E0,-7.926541087E0,2.940454239E0,1.164065213E1
5.441273625E0,8.722586288E0,-7.798306385E0,2.525504242E0,1.196976465E1
5.451259625E0,9.954240285E0,-7.666977337E0,2.414010118E0,1.279440839E1
5.461244625E0,1.088945448E1,-7.240555687E0,2.732646534E0,1.335938706E1
5.471230625E0,1.154614241E1,-6.335996103E0,3.117153003E0,1.353421198E1
5.481215625E0,1.177816109E1,-4.897643618E0,3.563215451E0,1.324418726E1
5.491201625E0,1.134524728E1,-3.868743286E0,4.387316762E0,1.276441769E1
5.501186625E0,1.042101299E1,-3.771831826E0,5.421671669E0,1.233769633E1
5.511172625E0,9.580909599E0,-3.974931353E0,5.929842072E0,1.194809336E1
5.521157625E0,9.816809667E0,-4.279841430E0,6.127309561E0,1.233818127E1
5.531143625E0,1.046257850E1,-5.292738225E0,6.706713084E0,1.350772472E1
5.541128625E0,1.058782820E1,-5.731226774E0,7.161629970E0,1.400849778E1
5.551114625E0,1.016655970E1,-4.248764941E0,7.324010072E0,1.323072421E1
5.561099625E0,8.816265115E0,-2.938654174E0,8.334306026E0,1.248290334E1
5.571085625E0,6.736077216E0,-2.496005916E0,1.017553284E1,1.245577177E1
5.581070625E0,4.652196508E0,-1.823176751E0,1.228375346E1,1.326112759E1
5.591056625E0,3.009366015E0,-1.521449606E0,1.431558488E1,1.470738125E1
5.601041625E0,2.049155556E0,-1.942360255E0,1.504758261E1,1.531017780E1
5.611027625E0,1.730006632E0,-2.335637840E0,1.368390199E1,1.398918514E1
5.621012625E0,1.114850309E0,-1.969210085E0,1.148377951E1,1.170460899E1
5.630998625E0,-6.645134740E-1,-1.490072570E0,1.026964728E1,1.039843977E1
5.640983625E0,-3.392135861E0,-1.068434088E0,1.032196115E1,1.091746395E1
5.650969625E0,-6.039200792E0,-5.956137586E-1,1.084246626E1,1.242520730E1
5.660954250E0,-8.244016830E0,-1.988151263E-1,1.149042429E1,1.414330907E1
5.670939250E0,-9.883918161E0,2.345391288E-2,1.158572455E1,1.522896588E1
5.680925250E0,-1.064427605E1,-3.429903612E-2,1.138951889E1,1.558919272E1
5.690910250E0,-1.088022991E1,-2.161940745E-1,1.116885550E1,1.559389226E1
5.700896250E0,-1.093283147E1,-6.302921328E-1,1.079718542E1,1.537866330E1
5.710881250E0,-1.103095827E1,-8.860282955E-1,1.021986760E1,1.506362440E1
5.720867250E0,-1.065197333E1,-8.677658330E-1,9.388981177E0,1.422569931E1
5.730852250E0,-9.622306132E0,-6.593343759E-1,8.208114926E0,1.266477981E1
5.740838250E0,-8.770148125E0,-3.579380371E-1,6.675710562E0,1.102763480E1
5.750823250E0,-8.652845378E0,-3.294091795E-1,5.317271973E0,1.016137908E1
5.760809250E0,-8.596454830E0,-1.607354998E-1,4.490594378E0,9.700015949E0
5.770794250E0,-8.191012990E0,1.330679371E-1,4.157273850E0,9.186584063E0
5.780780250E0,-7.383670968E0,2.859015097E-1,3.952485647E0,8.379885406E0
5.790765250E0,-6.076870310E0,4.902565073E-1,3.503097303E0,7.031386415E0
5.800751250E0,-4.656395394E0,4.790596010E-1,2.859788391E0,5.485426675E0
5.810736250E0,-3.335883892E0,2.321542688E-1,1.927255143E0,3.859576315E0
5.820722250E0,-2.388130488E0,3.443717659E-2,9.486838424E-1,2.569893807E0
5.830707250E0,-2.323171284E0,-7.713376455E-2,1.402846438E-1,2.328680788E0
5.840693250E0,-2.600524311E0,-2.672363568E-1,-5.301699668E-1,2.667437376E0
5.850678250E0,-2.789535557E0,-5.085650897E-1,-1.198111444E0,3.078249195E0
5.860664250E0,-2.731349037E0,-6.867474385E-1,-1.798628093E0,3.341699062E0
5.870649250E0,-2.470105966E0,-7.590788117E-1,-2.260706064E0,3.433426282E0
5.880635250E0,-2.047313975E0,-6.780823034E-1,-2.452505262E0,3.265895312E0
5.890620250E0,-1.485494931E0,-6.257669726E-1,-2.347882202E0,2.847951953E0
5.900606250E0,-9.263075714E-1,-5.994966752E-1,-2.158623034E0,2.424272135E0
5.910591250E0,-3.213680886E-1,-6.435312523E-1,-2.106161231E0,2.225606670E0
5.920576250E0,2.884600320E-1,-7.640004862E-1,-2.268508004E0,2.411023537E0
5.930562250E0,7.569001392E-1,-8.706061180E-1,-2.490817389E0,2.744999836E0
5.940547250E0,1.026641845E0,-9.179538006E-1,-2.560078243E0,2.906997294E0
5.950533250E0,1.158106110E0,-8.902398987E-1,-2.380762265E0,2.793164120E0
5.960518250E0,1.515432382E0,-7.192426085E-1,-2.142740242E0,2.721246219E0
5.970504250E0,2.093126033E0,-3.975228100E-1,-1.679517971E0,2.712928600E0
5.980489250E0,2.590979901E0,-8.802442297E-2,-9.095817572E-1,2.747410439E0
5.990475250E0,3.271770050E0,3.555849713E-1,-1.121688920E-1,3.292947280E0
6.000460250E0,4.309247955E0,8.045826479E-1,8.066619909E-1,4.457316989E0
6.010446250E0,5.314275275E0,1.206153924E0,1.912913092E0,5.775427732E0
6.020431250E0,6.045115251E0,1.415593660E0,3.065914437E0,6.924388431E0
6.030417250E0,6.851068559E0,1.533844534E0,4.071505721E0,8.115847355E0
6.040402250E0,7.476104922E0,1.576409925E0,4.934411495E0,9.095363097E0
6.050388250E0,7.533620474E0,1.667854530E0,5.758928543E0,9.628210330E0
6.060373250E0,7.176005350E0,2.041746110E0,6.736481259E0,1.005206246E1
6.070359250E0,6.486308722E0,2.252617757E0,8.180797319E0,1.068044626E1
6.080344250E0,5.879198753E0,2.334639574E0,9.904860549E0,1.175252239E1
6.090330250E0,5.925638509E0,2.354548759E0,1.175067450E1,1.336919754E1
6.100315250E0,6.675145721E0,2.201405065E0,1.327284273E1,1.501905819E1
6.110301250E0,7.026918892E0,2.001833747E0,1.415812054E1,1.593227242E1
6.120286250E0,6.750277764E0,1.568634882E0,1.461491087E1,1.617474838E1
6.130272250E0,6.594557056E0,8.815037200E-1,1.472784867E1,1.616090214E1
6.140257250E0,6.368976738E0,4.351395562E-2,1.470615199E1,1.602612444E1
6.150243250E0,5.690880986E0,-5.307184356E-1,1.490012986E1,1.595874865E1
6.160228250E0,4.355299163E0,-1.173016145E0,1.526820273E1,1.592050918E1
6.170214250E0,2.547793243E0,-1.987057833E0,1.527815002E1,1.561606600E1
6.180199250E0,8.942471418E-1,-2.874155000E0,1.476385466E1,1.506757609E1
6.190184250E0,-2.144058497E-1,-3.858098137E0,1.405685261E1,1.457827138E1
6.200170250E0,-8.757763723E-1,-4.655211040E0,1.323822955E1,1.406018122E1
6.210155250E0,-1.354816824E0,-5.407689807E0,1.252636847E1,1.371089146E1
6.220141250E0,-2.175134694E0,-6.091616403E0,1.211186169E1,1.373084830E1
6.230126250E0,-3.399086446E0,-6.624614083E0,1.179920873E1,1.395208325E1
6.240112250E0,-4.380676664E0,-7.196351906E0,1.148765856E1,1.424584529E1
6.250097250E0,-5.342992120E0,-7.892093385E0,1.118372613E1,1.469382296E1
6.260083250E0,-6.390635410E0,-8.553739750E0,1.091562545E1,1.526949782E1
6.270068250E0,-7.464487674E0,-9.257943320E0,1.036952474E1,1.577831215E1
6.280054250E0,-8.788155795E0,-9.987201040E0,9.385165869E0,1.628057755E1
6.290039250E0,-9.659868060E0,-1.052055482E1,8.222746414E0,1.648055470E1
6.300025250E0,-1.002404201E1,-1.098037401E1,7.216330088E0,1.652650754E1
6.310010250E0,-1.023742679E1,-1.136598852E1,6.271483773E0,1.653245629E1
6.319996250E0,-1.087268584E1,-1.172508007E1,5.158665079E0,1.680192326E1
6.329981250E0,-1.162066283E1,-1.236804458E1,4.015437355E0,1.743938269E1
6.339967250E0,-1.205936890E1,-1.286451880E1,2.745420946E0,1.784549126E1
6.349952250E0,-1.243500690E1,-1.324109118E1,1.645950860E0,1.823910761E1
6.359938250E0,-1.267473221E1,-1.330649930E1,7.318515444E-1,1.839150258E1
6.369923250E0,-1.264095051E1,-1.292116545E1,-4.461191654E-2,1.807628658E1
6.379909250E0,-1.261417026E1,-1.287145594E1,-6.492005664E-1,1.803366659E1
6.389894250E0,-1.218427127E1,-1.319490753E1,-1.342571585E0,1.801012353E1
6.399880250E0,-1.148987465E1,-1.347100253E1,-2.032529583E0,1.782179299E1
6.409865250E0,-1.065182715E1,-1.365245099E1,-2.735404081E0,1.753092339E1
6.419851250E0,-9.739401888E0,-1.390542259E1,-3.293794464E0,1.729351926E1
6.429836250E0,-9.067617036E0,-1.407570403E1,-3.858773198E0,1.718246936E1
6.439822250E0,-8.600191201E0,-1.391798241E1,-4.491591328E0,1.696608133E1
6.449807250E0,-8.038200102E0,-1.356532046E1,-4.910505738E0,1.651495221E1
6.459792250E0,-7.728889995E0,-1.341681054E1,-4.966962944E0,1.626091223E1
6.469778250E0,-7.570014714E0,-1.329152809E1,-5.003491085E0,1.609362498E1
6.479764250E0,-7.270883440E0,-1.310623802E1,-5.111454660E0,1.583559881E1
6.489749250E0,-7.112603990E0,-1.341000672E1,-5.268710262E0,1.606787862E1
6.499734250E0,-7.350169346E0,-1.422177333E1,-5.654872663E0,1.697826289E1
6.509720250E0,-7.537342227E0,-1.510463038E1,-6.480253345E0,1.808189897E1
6.519705250E0,-7.354310929E0,-1.563134757E1,-7.584696488E0,1.886670445E1
6.529691250E0,-6.607299308E0,-1.581084072E1,-8.365810824E0,1.906897688E1
6.539676250E0,-5.669898838E0,-1.563623350E1,-8.635739933E0,1.874074586E1
6.549662250E0,-4.432493227E0,-1.525586043E1,-8.212923092E0,1.788408173E1
6.559647250E0,-3.050301202E0,-1.513287010E1,-7.411460445E0,1.712418876E1
6.569633250E0,-1.799048215E0,-1.527462649E1,-6.737437863E0,1.679118393E1
6.579618250E0,-4.508887758E-1,-1.541950879E1,-6.262398369E0,1.664878931E1
6.589604250E0,6.134015733E-1,-1.574050807E1,-5.930575898E0,1.683186223E1
6.599589250E0,1.572443466E0,-1.613828246E1,-5.576001325E0,1.714667693E1
6.609575250E0,2.279840785E0,-1.612346795E1,-5.158748109E0,1.708146875E1
6.619560250E0,2.321651154E0,-1.584596027E1,-4.749180474E0,1.670446755E1
6.629546250E0,1.902413832E0,-1.533872717E1,-4.597823250E0,1.612562272E1
6.639531250E0,1.260565554E0,-1.497078294E1,-4.583151124E0,1.570727989E1
6.649517250E0,3.742187320E-1,-1.515463577E1,-4.517494494E0,1.581805239E1
6.659502500E0,-2.063336223E-2,-1.539948442E1,-4.348395356E0,1.600165892E1
6.669488500E0,1.113239694E-1,-1.594178794E1,-4.195290692E0,1.648494646E1
6.679473500E0,6.749686611E-1,-1.648483640E1,-4.445709981E0,1.708712238E1
6.689459500E0,1.706815551E0,-1.655652210E1,-4.354924357E0,1.720456362E1
6.699444500E0,2.663330131E0,-1.598623380E1,-3.637912461E0,1.660985869E1
6.709430500E0,3.406855642E0,-1.524985300E1,-2.899619039E0,1.589252883E1
6.719415500E0,4.313840358E0,-1.474436939E1,-2.125061186E0,1.550875664E1
6.729401500E0,5.363624021E0,-1.412840733E1,-9.085719430E-1,1.513954620E1
6.739386500E0,6.458695246E0,-1.342768636E1,3.844374722E-1,1.490521041E1
6.749371500E0,7.290340050E0,-1.315311047E1,1.444055275E0,1.510756991E1
6.759357500E0,7.611621162E0,-1.331278389E1,1.828590980E0,1.544379282E1
6.769342500E0,8.381407687E0,-1.271802383E1,1.808559004E0,1.533841617E1
6.779328500E0,9.302765737E0,-1.201919619E1,2.169497686E0,1.535282539E1
6.789313500E0,1.023538962E1,-1.122688443E1,2.970449286E0,1.547997751E1
6.799299500E0,1.097611723E1,-1.006309088E1,4.000663780E0,1.541902261E1
6.809284500E0,1.127831654E1,-8.641930380E0,5.093603110E0,1.509397818E1
6.819270500E0,1.074459907E1,-7.614058281E0,5.711445059E0,1.435412475E1
6.829255500E0,9.483530070E0,-7.673226841E0,6.259116327E0,1.371102804E1
6.839241500E0,8.240659944E0,-8.429305154E0,6.674982584E0,1.354684665E1
6.849226500E0,7.014855502E0,-9.165277816E0,7.251886421E0,1.363086101E1
6.859212500E0,6.012610579E0,-9.578090072E0,9.737511483E0,1.492348569E1
6.869197500E0,6.517281423E0,-8.317540305E0,1.348110886E1,1.712882745E1
6.879183500E0,7.648329397E0,-6.910744073E0,1.720013214E1,2.005242808E1
6.889168500E0,8.964880872E0,-5.532198079E0,1.980596017E1,2.243324236E1
6.899154500E0,1.045666463E1,-2.595899748E0,2.041457112E1,2.308322431E1
6.909139500E0,1.086005702E1,-3.497469650E-1,2.028233517E1,2.300948242E1
6.919125500E0,9.933390284E0,-3.120056731E-1,2.019047541E1,2.250388605E1
6.929110500E0,8.226459396E0,-6.009817949E-1,1.986153678E1,2.150619578E1
6.939096500E0,5.134492689E0,-9.283032261E-1,1.936137064E1,2.005211797E1
6.949081500E0,1.705477270E0,-1.073560342E0,1.847087828E1,1.858048786E1
6.959067500E0,-1.541240677E0,-8.803440709E-1,1.720776510E1,1.729906379E1
6.969052500E0,-4.201985169E0,-5.707803413E-1,1.646346717E1,1.700083000E1
6.979038500E0,-5.765984378E0,5.468462259E-3,1.609965809E1,1.710104080E1
6.989023500E0,-6.581469233E0,3.508981356E-1,1.555164534E1,1.689060507E1
6.999009500E0,-7.394020540E0,3.195854187E-1,1.448984945E1,1.627050742E1
7.008994500E0,-8.715856143E0,2.414461523E-1,1.292556490E1,1.559149360E1
7.018980500E0,-1.058252595E1,-3.904492870E-2,1.098855660E1,1.525581057E1
7.028965500E0,-1.224235517E1,-4.990469921E-1,8.815854641E0,1.509448910E1
7.038951500E0,-1.278408333E1,-7.488751280E-1,6.548379255E0,1.438314539E1
7.048936500E0,-1.214672279E1,-6.725685252E-1,4.620158152E0,1.301311202E1
7.058921500E0,-1.061559429E1,-2.630695944E-1,3.368508432E0,1.114032750E1
7.068907500E0,-9.014748266E0,5.936151803E-2,2.764295173E0,9.429238458E0
7.078892500E0,-7.636969426E0,3.812875772E-1,2.218332462E0,7.961763696E0
7.088878500E0,-6.531308894E0,6.457067089E-1,1.627001789E0,6.761809509E0
7.098863500E0,-5.752531105E0,8.530204707E-1,1.118618547E0,5.922040652E0
7.108849500E0,-5.047590201E0,8.838442142E-1,7.185497135E-1,5.174520376E0
7.118834500E0,-4.532174513E0,8.523326920E-1,5.794181406E-1,4.647881476E0
7.128820500E0,-4.473420521E0,9.172285996E-1,8.967412716E-1,4.653702222E0
7.138805500E0,-4.540815821E0,9.339388456E-1,1.309380450E0,4.817232323E0
7.148791500E0,-4.401351542E0,8.354607705E-1,1.404636855E0,4.694986133E0
7.158776500E0,-3.936901355E0,7.602975176E-1,1.036479201E0,4.141441021E0
7.168762500E0,-3.425534572E0,5.016713686E-1,5.068664736E-1,3.498981979E0
7.178747500E0,-3.146758041E0,2.873654332E-1,-6.583380103E-2,3.160537794E0
7.188733500E0,-2.797181084E0,4.833352312E-2,-5.871048903E-1,2.858539889E0
7.198718500E0,-2.292804208E0,-1.886381936E-1,-1.036911310E0,2.523434281E0
7.208704500E0,-1.898501460E0,-2.982191080E-1,-1.262783403E0,2.299535682E0
7.218689500E0,-1.593378837E0,-3.035727455E-1,-1.260393062E0,2.054167276E0
7.228675500E0,-1.323403096E0,-2.513611297E-1,-1.212027817E0,1.812067770E0
7.238660500E0,-1.010994769E0,-2.287047040E-1,-1.182173104E0,1.572243465E0
7.248646500E0,-5.115995023E-1,-1.353110021E-1,-1.139305996E0,1.256209087E0
7.258631500E0,-1.126484368E-1,-1.246659268E-1,-1.149976580E0,1.162186473E0
7.268617500E0,9.155760303E-2,-1.365735622E-1,-1.174019161E0,1.185477171E0
7.278602500E0,2.671035153E-1,-1.674584456E-1,-1.316671343E0,1.353887013E0
7.288588500E0,4.338078529E-1,-1.977086869E-1,-1.618084785E0,1.686853980E0
7.298573500E0,5.218137109E-1,-1.400674928E-1,-1.874436659E0,1.950748892E0
7.308559500E0,5.787108468E-1,-1.126699253E-1,-1.912954608E0,2.001748258E0
7.318544500E0,1.175130059E0,8.898179490E-2,-1.735945941E0,2.098179384E0
7.328530500E0,2.399329514E0,4.770951192E-1,-1.272804362E0,2.757613608E0
7.338515500E0,3.558111416E0,7.014526011E-1,-3.267962050E-1,3.641289382E0
7.348500500E0,4.477311551E0,1.224462506E0,1.017452946E0,4.751929887E0
7.358486500E0,5.144349926E0,1.860246636E0,2.726456671E0,6.112153441E0
7.368471500E0,5.919739838E0,2.253422334E0,4.497091804E0,7.768208716E0
7.378457500E0,6.302421976E0,2.309492016E0,6.049533407E0,9.036101514E0
7.388442500E0,6.287316279E0,2.269332608E0,7.371579511E0,9.950899505E0
7.398428500E0,6.077836854E0,2.422256446E0,8.562167927E0,1.077581304E1
7.408413500E0,6.446074616E0,2.404396711E0,9.861878836E0,1.202454389E1
7.418399500E0,7.619137757E0,2.145239342E0,1.080993118E1,1.339805673E1
7.428384500E0,8.803460882E0,1.845659734E0,1.161667035E1,1.469198467E1
7.438370500E0,9.202802907E0,1.669754875E0,1.237677564E1,1.551335676E1
7.448355500E0,8.584353433E0,1.361628391E0,1.315217257E1,1.576466933E1
7.458341500E0,7.461597980E0,9.196994137E-1,1.390972614E1,1.581144436E1
7.468326500E0,6.393450844E0,4.771897345E-1,1.447610031E1,1.583228991E1
7.478312500E0,5.329012597E0,8.946459219E-3,1.466281711E1,1.560117498E1
7.488297500E0,4.263187391E0,-7.873973157E-1,1.463551997E1,1.526411497E1
7.498283500E0,3.040214463E0,-1.633962899E0,1.449889627E1,1.490405085E1
7.508268500E0,1.435559709E0,-2.525382327E0,1.430387759E1,1.459586591E1
7.518254500E0,-2.203849201E-1,-3.422431747E0,1.434274052E1,1.474706121E1
7.528239500E0,-1.715467530E0,-4.238362452E0,1.423542073E1,1.495171390E1
7.538225500E0,-3.018043867E0,-5.205730487E0,1.346595288E1,1.474924085E1
7.548210500E0,-4.082123680E0,-6.069750155E0,1.236397726E1,1.436570689E1
7.558196500E0,-4.779559098E0,-6.736638549E0,1.140078063E1,1.407850429E1
7.568181500E0,-5.415864215E0,-7.371416373E0,1.071419472E1,1.408770148E1
7.578167500E0,-5.912018005E0,-7.716994420E0,1.004557964E1,1.397918560E1
7.588152500E0,-6.054394782E0,-7.843165054E0,9.465967373E0,1.370311908E1
7.598138500E0,-6.378036999E0,-8.133772257E0,8.820882077E0,1.358843507E1
7.608123500E0,-6.604787929E0,-8.585275539E0,7.905508068E0,1.340996784E1
7.618109500E0,-6.617748867E0,-9.042076982E0,6.695320369E0,1.305301004E1
7.628094500E0,-6.992552467E0,-9.542726111E0,5.505007356E0,1.304854466E1
7.638080500E0,-7.397020161E0,-1.020075071E1,4.496886567E0,1.337883445E1
7.648065500E0,-7.637329030E0,-1.066924834E1,3.727850239E0,1.364032706E1
7.658050500E0,-7.746046895E0,-1.095659689E1,3.283855367E0,1.381419429E1
7.668036625E0,-8.071970111E0,-1.098715210E1,2.676141965E0,1.389373775E1
7.678021625E0,-8.656671796E0,-1.015267490E1,1.461341398E0,1.342200778E1
7.688007625E0,-9.450148315E0,-9.579637245E0,5.644428366E-1,1.346823480E1
7.697992625E0,-1.012140516E1,-9.534098545E0,-2.743805945E-2,1.390477006E1
7.707978625E0,-1.035548441E1,-9.865476043E0,-5.683055073E-1,1.431386202E1
7.717963625E0,-1.021717788E1,-1.050922174E1,-1.194581480E0,1.470583185E1
7.727949625E0,-9.674622340E0,-1.073992013E1,-1.923091341E0,1.458226601E1
7.737934625E0,-9.340731708E0,-1.077405149E1,-2.202589418E0,1.442847374E1
7.747920625E0,-8.948725600E0,-1.129182010E1,-2.245935997E0,1.458180783E1
7.757905625E0,-8.371980221E0,-1.157432248E1,-2.526203569E0,1.450643644E1
7.767891625E0,-8.000907730E0,-1.131607435E1,-2.985798812E0,1.417684936E1
7.777876625E0,-7.958054656E0,-1.139330438E1,-3.135993317E0,1.424684079E1
7.787862625E0,-8.187548515E0,-1.208665084E1,-3.138562583E0,1.493230237E1
7.797847625E0,-8.448758256E0,-1.208679117E1,-3.623206714E0,1.518550835E1
7.807833625E0,-8.824697385E0,-1.214059842E1,-3.989236859E0,1.553008128E1
7.817818625E0,-9.343479899E0,-1.294648039E1,-4.035490381E0,1.646806466E1
7.827804625E0,-9.466377847E0,-1.326908648E1,-4.419262148E0,1.688818651E1
7.837789625E0,-9.020201379E0,-1.337326047E1,-4.606188861E0,1.677572963E1
7.847775625E0,-8.500120783E0,-1.376862464E1,-4.428709787E0,1.677618992E1
7.857760625E0,-8.024211223E0,-1.408126707E1,-4.422177277E0,1.679957440E1
7.867746625E0,-7.512945305E0,-1.428891573E1,-4.560066901E0,1.677532921E1
7.877731625E0,-7.078849769E0,-1.447790359E1,-4.705018208E0,1.678859740E1
7.887717625E0,-6.709570034E0,-1.457875988E1,-4.687800497E0,1.671927161E1
7.897702625E0,-6.230224065E0,-1.469997616E1,-4.556534014E0,1.660322238E1
7.907688625E0,-5.619541447E0,-1.485636930E1,-4.504453449E0,1.651002895E1
7.917673625E0,-4.847190918E0,-1.480854843E1,-4.379085637E0,1.618532538E1
7.927659625E0,-3.816195236E0,-1.475861321E1,-4.035923075E0,1.576923223E1
7.937644625E0,-2.912550449E0,-1.476054279E1,-3.771419597E0,1.551064729E1
7.947629625E0,-2.250647099E0,-1.477215653E1,-3.592274358E0,1.536835893E1
7.957615625E0,-1.894625779E0,-1.498406431E1,-3.522407733E0,1.550867971E1
7.967600625E0,-1.301923934E0,-1.542177868E1,-3.720461113E0,1.591754047E1
7.977586625E0,-2.821720093E-1,-1.555509052E1,-3.974529650E0,1.605731448E1
7.987571625E0,2.650788438E-1,-1.542931224E1,-3.893237565E0,1.591512619E1
7.997557625E0,2.414139926E-1,-1.545749815E1,-3.373639948E0,1.582321005E1
8.007542625E0,4.083248100E-1,-1.533292907E1,-2.899005666E0,1.560992239E1
8.017528625E0,1.417190827E0,-1.476934402E1,-2.716535701E0,1.508381646E1
8.027513625E0,2.266955568E0,-1.411619366E1,-2.589835308E0,1.452973702E1
8.037499625E0,2.138209235E0,-1.344717981E1,-2.596895236E0,1.386154567E1
8.047484625E0,1.737660052E0,-1.296344784E1,-2.591595612E0,1.333367204E1
8.057470625E0,1.619195463E0,-1.272878387E1,-2.366975408E0,1.304784677E1
8.067455625E0,1.680986792E0,-1.273421828E1,-1.850508099E0,1.297730372E1
8.077441625E0,2.276241531E0,-1.247552225E1,-1.139266235E0,1.273255114E1
8.087426625E0,3.407439486E0,-1.188378988E1,-5.743836880E-2,1.236278305E1
8.097412625E0,4.660209825E0,-1.085916590E1,1.110704926E0,1.186898080E1
8.107397625E0,5.643184079E0,-9.846467915E0,1.390786555E0,1.143384206E1
8.117383625E0,5.983532960E0,-9.416074251E0,4.915122700E-1,1.116721565E1
8.127368625E0,5.730204681E0,-9.582469051E0,-9.561495674E-1,1.120594399E1
8.137354625E0,5.864079022E0,-9.812301464E0,-1.812646208E0,1.157386578E1
8.147339625E0,6.533882253E0,-9.540866112E0,-1.334952663E0,1.164052585E1
8.157325625E0,7.099548912E0,-9.338159518E0,4.752213424E-1,1.174013004E1
8.167310625E0,7.335259531E0,-9.129881111E0,2.437418861E0,1.196251530E1
8.177296625E0,7.485126007E0,-8.562138691E0,3.602937925E0,1.192973143E1
8.187281625E0,7.477318804E0,-8.557160956E0,3.826588077E0,1.199074962E1
8.197267625E0,7.669219159E0,-8.940821334E0,3.257355786E0,1.222152099E1
8.207252625E0,8.056364477E0,-9.160246287E0,2.816041862E0,1.251979283E1
8.217238625E0,8.197203437E0,-9.004803321E0,3.803406790E0,1.275721483E1
8.227223625E0,8.287886735E0,-8.621758656E0,6.553984396E0,1.363739346E1
8.237208625E0,8.433677702E0,-7.975127941E0,9.978581074E0,1.530691561E1
8.247194625E0,8.421589168E0,-7.054865659E0,1.280307743E1,1.687047970E1
8.257179625E0,8.340652009E0,-6.226130430E0,1.431455928E1,1.769852490E1
8.267165625E0,8.022564647E0,-5.424800515E0,1.424141062E1,1.722230474E1
8.277150625E0,7.251710420E0,-4.897683379E0,1.290110717E1,1.558887977E1
8.287136625E0,6.072331701E0,-5.056698993E0,1.160653830E1,1.404119469E1
8.297121625E0,5.248998713E0,-4.627135342E0,1.098362974E1,1.302315212E1
8.307107625E0,4.754846426E0,-4.054169896E0,1.165796222E1,1.322697778E1
8.317092625E0,4.060630485E0,-3.838403546E0,1.390855319E1,1.498899308E1
8.327078625E0,3.414064381E0,-2.381695627E0,1.632112489E1,1.684361681E1
8.337063625E0,2.473790005E0,-1.276334033E0,1.873589515E1,1.894155306E1
8.347049625E0,1.617566868E0,-8.651627988E-1,2.030657071E1,2.038925803E1
8.357034625E0,8.691342276E-1,-1.526061890E-1,1.999183614E1,2.001130168E1
8.367020625E0,-5.705078611E-1,-6.193104771E-1,1.865186949E1,1.867086661E1
8.377005625E0,-2.856709540E0,-1.826426341E0,1.705806234E1,1.739178293E1
8.386991625E0,-5.698239123E0,-1.995497412E0,1.506475237E1,1.622956263E1
8.396976625E0,-8.423648558E0,-1.569393558E0,1.349665777E1,1.598688907E1
8.406962625E0,-1.080160708E1,-1.127795752E0,1.247172507E1,1.653755015E1
8.416947625E0,-1.180624761E1,-5.171756995E-1,1.171217410E1,1.663820830E1
8.426933625E0,-1.150962538E1,1.761241288E-1,1.079234159E1,1.577900925E1
8.436918625E0,-1.077340011E1,6.125972888E-1,9.607869941E0,1.444827292E1
8.446904625E0,-9.984769768E0,8.930598646E-1,7.962189222E0,1.280193893E1
8.456889625E0,-9.335247020E0,1.099570511E0,5.678010680E0,1.098160724E1
8.466875625E0,-8.977943552E0,1.037190368E0,3.224195057E0,9.595554598E0
8.476860625E0,-8.934731458E0,8.348729061E-1,9.063307053E-1,9.019305647E0
8.486846625E0,-9.089135374E0,3.932772928E-1,-8.491472751E-1,9.137182277E0
8.496831625E0,-9.123440988E0,-1.084506476E-1,-1.935835932E0,9.327185951E0
8.506817625E0,-8.891997083E0,-3.941687009E-1,-2.380858160E0,9.213656531E0
8.516802625E0,-7.882572949E0,-2.808745122E-1,-2.201688947E0,8.189095250E0
8.526788625E0,-6.373155159E0,-4.340168908E-2,-1.500989029E0,6.547668169E0
8.536773625E0,-4.952749532E0,2.342268875E-1,-6.896597904E-1,5.006018457E0
8.546759625E0,-4.012106781E0,4.860112095E-1,2.073943073E-1,4.046754269E0
8.556744625E0,-3.486015832E0,5.428084311E-1,8.730161941E-1,3.634433195E0
8.566729625E0,-3.277911380E0,3.106685610E-1,8.775998265E-1,3.407550356E0
8.576715625E0,-3.493477171E0,-2.474972896E-2,3.292198759E-1,3.509042750E0
8.586700625E0,-3.769546442E0,-3.288170028E-1,-4.832092237E-1,3.814589382E0
8.596686625E0,-3.859830667E0,-6.042670530E-1,-1.139330555E0,4.069582972E0
8.606671625E0,-3.678033716E0,-7.848038562E-1,-1.596168251E0,4.085535729E0
8.616657625E0,-3.391882676E0,-8.241377836E-1,-1.887267789E0,3.968104193E0
8.626642625E0,-2.767183113E0,-7.279343484E-1,-2.021002967E0,3.503090605E0
8.636628625E0,-1.757828123E0,-6.297496574E-1,-2.120705010E0,2.825585617E0
8.646613625E0,-3.768311217E-1,-6.058688977E-1,-2.158407272E0,2.273279738E0
8.656599625E0,1.074306520E0,-4.334033717E-1,-2.069782779E0,2.371913517E0
8.666584250E0,1.963497209E0,-5.847939245E-2,-1.585787104E0,2.524571621E0
8.676570250E0,2.668227174E0,3.192658684E-1,-9.017745548E-1,2.834530701E0
8.686555250E0,3.402110041E0,6.541237758E-1,-2.447246861E-1,3.473056409E0
8.696541250E0,4.307154652E0,1.029074506E0,3.623180401E-1,4.443180155E0
8.706526250E0,5.259780979E0,1.273886096E0,9.862486947E-1,5.500978842E0
8.716512250E0,6.092250241E0,1.412300216E0,1.650679504E0,6.467986373E0
8.726497250E0,6.840940597E0,1.505463172E0,2.477272314E0,7.429789077E0
8.736483250E0,7.447959934E0,1.677097809E0,3.236835567E0,8.292277657E0
8.746468250E0,7.776300974E0,1.699010688E0,3.802999240E0,8.821581342E0
8.756454250E0,8.048341513E0,1.602674156E0,4.173657163E0,9.206724698E0
8.766439250E0,8.006759623E0,1.598196943E0,4.556550971E0,9.350111758E0
8.776425250E0,7.526552945E0,1.638407952E0,5.023952247E0,9.196383856E0
8.786410250E0,6.857507513E0,1.355809973E0,5.684523894E0,9.009852489E0
8.796396250E0,6.296886417E0,1.332960662E0,6.553330092E0,9.185515662E0
8.806381250E0,5.991213863E0,1.415201897E0,7.977783161E0,1.007682808E1
8.816367250E0,5.586174896E0,1.257471208E0,9.766766272E0,1.132149757E1
8.826352250E0,5.119505691E0,1.222222219E0,1.128543728E1,1.245248009E1
8.836338250E0,4.707537189E0,9.493710364E-1,1.241066377E1,1.330739595E1
8.846323250E0,4.041802450E0,4.968719009E-1,1.309415416E1,1.371276493E1
8.856309250E0,3.178917727E0,-8.741349857E-2,1.336019546E1,1.373346211E1
8.866294250E0,2.167872306E0,-6.233416937E-1,1.324859199E1,1.343924905E1
8.876279250E0,6.738607599E-1,-1.063744402E0,1.312756047E1,1.318781576E1
8.886265250E0,-8.587010407E-1,-1.597734428E0,1.316337350E1,1.328775845E1
8.896250250E0,-1.981923832E0,-2.064041398E0,1.308292634E1,1.339220857E1
8.906236250E0,-2.782643444E0,-2.572724601E0,1.277631355E1,1.332652259E1
8.916221250E0,-3.440737625E0,-3.209939252E0,1.233628484E1,1.320326888E1
8.926207250E0,-3.973777698E0,-3.689346032E0,1.186557463E1,1.304584396E1
8.936192250E0,-4.224794865E0,-4.118811450E0,1.169084111E1,1.309539100E1
8.946178250E0,-4.380870499E0,-4.864606265E0,1.185853809E1,1.354552864E1
8.956163250E0,-4.861876492E0,-5.733682605E0,1.155014775E1,1.378110563E1
8.966149250E0,-5.622487274E0,-6.639695807E0,1.068192627E1,1.377684552E1
8.976134250E0,-6.378276150E0,-7.554186301E0,9.691372274E0,1.384452361E1
8.986120250E0,-7.122033795E0,-8.016394665E0,8.637519826E0,1.376926641E1
8.996105250E0,-7.922339863E0,-8.271796367E0,7.810156937E0,1.386306732E1
9.006091250E0,-8.582831402E0,-8.761188437E0,7.468727490E0,1.435985056E1
9.016076250E0,-9.035198318E0,-9.069429088E0,6.765393986E0,1.447963772E1
9.026062250E0,-9.029838760E0,-9.108037083E0,5.869797599E0,1.410492295E1
9.036047250E0,-9.003849056E0,-9.418141826E0,5.380690874E0,1.409689780E1
9.046033250E0,-9.094394360E0,-9.457325188E0,4.768799636E0,1.396031728E1
9.056018250E0,-8.594042269E0,-9.489013588E0,4.278755602E0,1.349839586E1
9.066004250E0,-7.946076635E0,-9.786923379E0,4.042196553E0,1.323870674E1
9.075989250E0,-7.788580127E0,-9.966010730E0,3.472182489E0,1.311637913E1
9.085975250E0,-8.138570482E0,-1.009995875E1,2.732778681E0,1.325569974E1
9.095960250E0,-8.798892453E0,-1.039227041E1,2.071124130E0,1.377350166E1
9.105946250E0,-9.620754281E0,-1.059114357E1,1.394467962E0,1.437622259E1
9.115931250E0,-1.031795698E1,-1.030368042E1,7.866072106E-1,1.460290441E1
9.125917250E0,-1.076876327E1,-1.025864984E1,7.402890766E-1,1.489141319E1
9.135902250E0,-1.109395968E1,-1.060903137E1,8.683492389E-1,1.537470385E1
9.145888250E0,-1.117137097E1,-1.099473945E1,7.291977856E-1,1.569125725E1
9.155873250E0,-1.079692463E1,-1.155061436E1,6.142251536E-1,1.582300686E1
9.165858250E0,-1.015697144E1,-1.201385300E1,2.596722159E-1,1.573417181E1
9.175844250E0,-9.491905037E0,-1.238917291E1,-2.125454119E-1,1.560874890E1
9.185829250E0,-9.192511808E0,-1.255358375E1,-8.546764022E-1,1.558284987E1
9.195815250E0,-9.431790397E0,-1.245074526E1,-1.529794460E0,1.569458501E1
9.205800250E0,-1.002260827E1,-1.235447787E1,-1.932383151E0,1.602560154E1
9.215786250E0,-1.041212756E1,-1.252247890E1,-1.905074607E0,1.639677369E1
9.225771250E0,-1.030076266E1,-1.316690288E1,-1.585501322E0,1.679246430E1
9.235757250E0,-9.936298689E0,-1.379744556E1,-1.567203630E0,1.707500111E1
9.245742250E0,-8.889964591E0,-1.376215060E1,-2.054961403E0,1.651215086E1
9.255728250E0,-7.126513932E0,-1.345520803E1,-2.197186445E0,1.538367486E1
9.265713250E0,-5.377314107E0,-1.342354419E1,-1.919945977E0,1.458743426E1
9.275699250E0,-3.904870600E0,-1.331443982E1,-1.663432866E0,1.397459592E1
9.285684250E0,-3.291440668E0,-1.298323482E1,-1.603028204E0,1.348953919E1
9.295670250E0,-3.326838834E0,-1.274155536E1,-1.718635844E0,1.328039152E1
9.305655250E0,-3.248119524E0,-1.285037321E1,-1.898093909E0,1.338973983E1
9.315641250E0,-3.386404420E0,-1.316458738E1,-2.257330467E0,1.377931916E1
9.325626250E0,-3.143728598E0,-1.351141498E1,-2.988219559E0,1.419051868E1
9.335612250E0,-2.094579066E0,-1.383094075E1,-3.969416260E0,1.454092325E1
9.345597250E0,-1.104027698E0,-1.403449403E1,-4.697087045E0,1.484077243E1
9.355583250E0,-2.475830975E-1,-1.418679177E1,-5.130234162E0,1.508793096E1
9.365568250E0,8.003487521E-1,-1.427681434E1,-5.478936961E0,1.531295974E1
9.375554250E0,1.719281377E0,-1.423288070E1,-5.833360675E0,1.547769098E1
9.385539250E0,2.163415997E0,-1.392034351E1,-6.165691270E0,1.537764875E1
9.395525250E0,1.990892437E0,-1.361395760E1,-6.163037803E0,1.507602498E1
9.405510250E0,7.079785323E-1,-1.348371672E1,-5.630944102E0,1.462940127E1
9.415496250E0,-5.231819594E-1,-1.376617465E1,-4.738649054E0,1.456832450E1
9.425481250E0,-5.944808605E-1,-1.366222753E1,-3.992041476E0,1.424592095E1
9.435467250E0,-3.400781554E-1,-1.349359968E1,-3.141218973E0,1.385857648E1
9.445452250E0,2.358462739E-1,-1.324671036E1,-2.637422873E0,1.350877338E1
9.455437250E0,1.295640078E0,-1.260274246E1,-3.008036942E0,1.302137040E1
9.465423250E0,2.198365974E0,-1.224685987E1,-3.773855547E0,1.300232192E1
9.475408250E0,3.065988697E0,-1.230996536E1,-4.278887749E0,1.338821923E1
9.485394250E0,3.717880152E0,-1.232364784E1,-4.111840400E0,1.351303668E1
9.495379250E0,3.705681106E0,-1.257618441E1,-3.290285550E0,1.351733945E1
9.505365250E0,3.336429437E0,-1.294888710E1,-2.490954798E0,1.360184893E1
9.515350250E0,3.808104444E0,-1.257135812E1,-1.969391933E0,1.328228930E1
9.525336250E0,4.505294278E0,-1.198159040E1,-1.439319030E0,1.288129747E1
9.535321250E0,4.789432706E0,-1.139731907E1,-1.449957454E0,1.244748667E1
9.545307250E0,5.511473207E0,-1.069784122E1,-1.719750323E0,1.215638453E1
9.555292250E0,6.990187268E0,-1.010444824E1,-1.212364617E0,1.234635251E1
9.565278250E0,8.134916557E0,-9.504390596E0,-4.077848196E-3,1.251040865E1
9.575263250E0,9.056029608E0,-8.735524423E0,1.473583714E0,1.266856378E1
9.585249250E0,9.776415932E0,-8.283938695E0,3.126084040E0,1.318993367E1
9.595234250E0,1.012640570E1,-8.155133305E0,4.708418364E0,1.382821374E1
9.605220250E0,1.019620158E1,-8.736321983E0,6.507659245E0,1.492097441E1
9.615205250E0,9.600265052E0,-9.799308366E0,8.429613887E0,1.610123982E1
9.625191250E0,9.163052366E0,-9.335849867E0,9.988054733E0,1.645845858E1
9.635176250E0,8.902129723E0,-7.683647749E0,1.153713536E1,1.647397489E1
9.645162250E0,8.497656766E0,-6.016727019E0,1.324123268E1,1.684462578E1
9.655147250E0,7.452836512E0,-4.505247208E0,1.493927113E1,1.729230598E1
9.665133917E0,6.308875548E0,-3.949656764E0,1.653196145E1,1.813029092E1
9.675118917E0,5.550101084E0,-4.084859008E0,1.757583914E1,1.887855441E1
9.685104917E0,5.198341945E0,-4.313888013E0,1.776947319E1,1.901017007E1
9.695089917E0,5.191046374E0,-3.845467859E0,1.652406070E1,1.774201700E1
9.705075917E0,5.530007712E0,-1.897642943E0,1.404973655E1,1.521765853E1
9.715060917E0,4.535312422E0,-7.484737167E-1,1.307089394E1,1.385559598E1
9.725046917E0,2.409217740E0,-5.461024600E-1,1.375619463E1,1.397624587E1
9.735031917E0,2.272847807E-1,-8.229459018E-2,1.440950637E1,1.441153374E1
9.745017917E0,-2.595323797E0,-1.945101137E-1,1.489251679E1,1.511822067E1
9.755002917E0,-5.338375744E0,-4.130625165E-1,1.509895859E1,1.602021931E1
9.764987917E0,-7.673975869E0,-5.218074252E-1,1.508614617E1,1.693381218E1
9.774973917E0,-9.499242123E0,-9.107169941E-2,1.490674307E1,1.767639340E1
9.784958917E0,-9.901743983E0,6.656322657E-1,1.438990300E1,1.748018617E1
9.794944917E0,-9.616147259E0,1.041326689E0,1.253058899E1,1.582941281E1
9.804929917E0,-9.898581809E0,1.041974268E0,9.455720127E0,1.372873903E1
9.814915917E0,-1.076560928E1,8.915425122E-1,6.021302465E0,1.236726626E1
9.824900917E0,-1.199772170E1,5.388310088E-1,3.775516741E0,1.258928876E1
9.834886917E0,-1.250209317E1,5.540706070E-1,2.964724277E0,1.286075106E1
9.844871917E0,-1.162592299E1,7.418184158E-1,3.331930590E0,1.211668855E1
9.854857917E0,-1.012129641E1,1.168292691E0,3.971838761E0,1.093531215E1
9.864842917E0,-8.687636896E0,1.480598034E0,4.430232986E0,9.863780699E0
9.874828917E0,-7.316435004E0,1.569252494E0,4.685746955E0,8.828873036E0
9.884813917E0,-5.797314345E0,1.513106945E0,4.520107614E0,7.505312724E0
9.894799917E0,-4.386581475E0,1.203494391E0,3.898199512E0,5.990530462E0
9.904784917E0,-3.275140969E0,7.466873923E-1,2.937062269E0,4.462109950E0
9.914770917E0,-2.503693542E0,1.956407460E-1,1.663249263E0,3.012167785E0
9.924755917E0,-2.200442905E0,-2.311319563E-1,2.203564149E-1,2.223494527E0
9.934741917E0,-2.378061144E0,-4.488264263E-1,-1.108275992E0,2.661746727E0
9.944726917E0,-2.753513785E0,-7.355570711E-1,-1.904036434E0,3.427570147E0
9.954712917E0,-2.741246619E0,-7.986163683E-1,-2.384694518E0,3.720079175E0
9.964697917E0,-2.398496286E0,-8.337115029E-1,-2.547885044E0,3.597162423E0
9.974683917E0,-1.956466224E0,-7.738921478E-1,-2.201530488E0,3.045226696E0
9.984668917E0,-1.449678103E0,-6.110169326E-1,-1.680575733E0,2.302008490E0
9.994654917E0,-1.071310480E0,-4.685722543E-1,-1.039979344E0,1.564871604E0
1.000463992E1,-6.763708234E-1,-3.415155472E-1,-5.113945574E-1,9.141305995E-1
1.001462592E1,-1.663793054E-1,-3.632990567E-1,-1.870705551E-1,4.412070608E-1
1.002461092E1,4.260620463E-1,-3.770387710E-1,-1.417242283E-1,5.863214639E-1
1.003459692E1,1.155072575E0,-3.712290506E-1,-2.978752917E-1,1.249293140E0
1.004458192E1,1.991057475E0,-2.615860827E-1,-3.446957016E-1,2.037535834E0
1.005456792E1,3.020476309E0,1.098201386E-1,-3.806841445E-1,3.046351591E0
1.006455292E1,4.292242790E0,3.567392482E-1,-2.227374011E-1,4.312797585E0
1.007453892E1,5.206577164E0,4.639815687E-1,-1.736681521E-2,5.227238876E0
1.008452392E1,5.781501135E0,6.446816920E-1,1.553166658E-1,5.819406595E0
1.009450892E1,6.096815747E0,7.924566190E-1,5.115857613E-1,6.169349215E0
1.010449492E1,6.000681090E0,8.623767467E-1,1.211544253E0,6.182208883E0
1.011447992E1,5.873208865E0,9.208196671E-1,2.119665375E0,6.311534879E0
1.012446592E1,5.816774463E0,1.087836246E0,3.259497036E0,6.755928788E0
1.013445092E1,5.626655754E0,1.142772810E0,4.694011409E0,7.416126198E0
1.014443692E1,5.451051005E0,1.062779977E0,5.871767526E0,8.082147748E0
1.015442192E1,5.401296462E0,9.727373873E-1,6.434108874E0,8.456830286E0
1.016440792E1,5.313140915E0,8.132944876E-1,6.728829008E0,8.612087675E0
1.017439292E1,5.112613578E0,6.136414553E-1,7.117089974E0,8.784551391E0
1.018437892E1,4.949332420E0,5.283765892E-1,7.675966846E0,9.148526671E0
1.019436392E1,4.303354838E0,4.646262608E-1,8.538421215E0,9.572845829E0
1.020434992E1,3.770989827E0,6.344527922E-1,9.511690845E0,1.025159292E1
1.021433492E1,3.203365228E0,6.614422240E-1,1.056501821E1,1.105977687E1
1.022432092E1,2.449597881E0,3.057486224E-1,1.171443580E1,1.197171742E1
1.023430592E1,1.569692936E0,2.084180816E-1,1.265449500E1,1.275318069E1
1.024429192E1,7.130400284E-1,-9.068278648E-2,1.367976216E1,1.369863286E1
1.025427692E1,1.143485878E-1,-1.091327253E-1,1.427422870E1,1.427510387E1
1.026426292E1,-1.449504295E-1,-2.280935238E-1,1.468471961E1,1.468720624E1
1.027424792E1,-5.094749165E-1,-8.193855321E-1,1.493003837E1,1.496118321E1
1.028423392E1,-8.932744575E-1,-1.699785444E0,1.476706712E1,1.489138949E1
1.029421892E1,-1.689772818E0,-2.690262406E0,1.450237887E1,1.484627350E1
1.030420492E1,-3.026335219E0,-3.613133131E0,1.427233303E1,1.503040006E1
1.031418992E1,-4.160756451E0,-4.313257391E0,1.394823590E1,1.518121762E1
1.032417592E1,-4.728151255E0,-4.976519049E0,1.382182378E1,1.543256196E1
1.033416092E1,-5.354858460E0,-5.796495734E0,1.353161243E1,1.566455894E1
1.034414692E1,-5.985475405E0,-6.471818737E0,1.263593126E1,1.540704749E1
1.035413192E1,-6.552338989E0,-7.020523208E0,1.156495056E1,1.503226443E1
1.036411792E1,-6.958835083E0,-7.869669313E0,1.060325082E1,1.492601784E1
1.037410292E1,-7.403217040E0,-8.585587780E0,9.635557677E0,1.487830339E1
1.038408892E1,-7.555064553E0,-9.101474168E0,8.829435384E0,1.476058134E1
1.039407392E1,-7.820891840E0,-9.839626672E0,8.085315796E0,1.494513077E1
1.040405892E1,-8.241179177E0,-1.037988835E1,7.356404817E0,1.515835770E1
1.041404492E1,-8.626379126E0,-1.111654864E1,7.060517578E0,1.574302954E1
1.042402992E1,-9.113895993E0,-1.210464623E1,6.569138625E0,1.651481586E1
1.043401592E1,-1.006551631E1,-1.296403256E1,5.511153365E0,1.731339280E1
1.044400092E1,-1.093134627E1,-1.368967436E1,4.164889848E0,1.800688266E1
1.045398692E1,-1.152692963E1,-1.383237449E1,2.447225811E0,1.817123014E1
1.046397192E1,-1.141602900E1,-1.365533484E1,6.767924076E-1,1.781156746E1
1.047395792E1,-1.128917716E1,-1.308727550E1,-7.258487928E-1,1.729881954E1
1.048394292E1,-1.120900949E1,-1.279709222E1,-1.241954452E0,1.705725400E1
1.049392892E1,-1.091470159E1,-1.277109550E1,-1.158551522E0,1.683965061E1
1.050391392E1,-1.032439359E1,-1.254598471E1,-1.228528660E0,1.629429710E1
1.051389992E1,-9.904777519E0,-1.214619186E1,-1.298795820E0,1.572645749E1
1.052388492E1,-1.007109455E1,-1.190650631E1,-1.403815614E0,1.565766701E1
1.053387092E1,-1.041741578E1,-1.215979950E1,-1.651965306E0,1.609696446E1
1.054385592E1,-1.023124160E1,-1.262674177E1,-1.960375234E0,1.636936112E1
1.055384192E1,-9.462114058E0,-1.323938029E1,-2.571019845E0,1.647491839E1
1.056382692E1,-8.939537870E0,-1.365105584E1,-3.477221035E0,1.668405613E1
1.057381292E1,-8.619067767E0,-1.367738819E1,-4.258975641E0,1.671819818E1
1.058379792E1,-8.514085688E0,-1.376925965E1,-4.413263489E0,1.677972172E1
1.059378392E1,-8.308322169E0,-1.391693692E1,-4.251208492E0,1.675655467E1
1.060376892E1,-8.160499880E0,-1.400111461E1,-3.983353683E0,1.668808183E1
1.061375492E1,-7.903039958E0,-1.430589371E1,-3.871575385E0,1.679600343E1
1.062373992E1,-6.808630053E0,-1.451758631E1,-4.337437674E0,1.661117458E1
1.063372592E1,-5.651875965E0,-1.477135546E1,-4.639087343E0,1.648204403E1
1.064371092E1,-4.444226250E0,-1.492566816E1,-4.889916523E0,1.632292868E1
1.065369692E1,-3.005519716E0,-1.461679250E1,-5.446125895E0,1.588534101E1
1.066368229E1,-1.721035541E0,-1.428688675E1,-6.040455605E0,1.560654351E1
1.067366829E1,-9.023551834E-1,-1.437592113E1,-6.599351188E0,1.584401431E1
1.068365329E1,-3.329066916E-1,-1.462328058E1,-6.958456768E0,1.619787894E1
1.069363829E1,1.206733748E-2,-1.484086950E1,-7.069539832E0,1.643867229E1
1.070362429E1,2.103768258E-1,-1.493008515E1,-6.685763095E0,1.636004673E1
1.071360929E1,2.618008947E-1,-1.506399925E1,-5.929298866E0,1.619102215E1
1.072359529E1,9.294605362E-1,-1.513740754E1,-5.396121091E0,1.609730184E1
1.073358029E1,1.486075413E0,-1.528480883E1,-4.897702090E0,1.611897288E1
1.074356629E1,1.267769324E0,-1.547117128E1,-4.484981051E0,1.615795269E1
1.075355129E1,1.023811208E0,-1.517485778E1,-4.252560953E0,1.579268099E1
1.076353729E1,1.311839789E0,-1.459481516E1,-3.905823404E0,1.516525666E1
1.077352229E1,9.743040025E-1,-1.415311649E1,-3.601900629E0,1.463672309E1
1.078350829E1,5.595493019E-2,-1.395636353E1,-3.431223328E0,1.437207387E1
1.079349329E1,8.020333350E-3,-1.396500221E1,-3.645050742E0,1.443287033E1
1.080347929E1,1.418155033E0,-1.394437908E1,-3.936057894E0,1.455848286E1
1.081346429E1,2.419327869E0,-1.406667242E1,-3.824381338E0,1.477668139E1
1.082345029E1,3.234087084E0,-1.400107602E1,-3.602073707E0,1.481433036E1
1.083343529E1,4.550112894E0,-1.355747583E1,-2.778566473E0,1.456808532E1
1.084342129E1,5.695688567E0,-1.292641158E1,-1.625844625E0,1.421887321E1
1.085340629E1,6.112716665E0,-1.208545333E1,-6.635250753E-1,1.355963689E1
1.086339229E1,6.337854348E0,-1.117980148E1,1.854263180E-1,1.285265505E1
1.087337729E1,6.434618166E0,-1.054701931E1,9.897289574E-1,1.239449437E1
1.088336329E1,7.420869200E0,-9.769663568E0,1.020298786E0,1.231083407E1
1.089334829E1,9.810373052E0,-8.828549531E0,1.353438635E0,1.326719648E1
1.090333429E1,1.175987802E1,-7.973798284E0,2.443594106E0,1.441691168E1
1.091331929E1,1.317213848E1,-6.814231685E0,3.450577027E0,1.522647258E1
1.092330529E1,1.360200238E1,-5.797166410E0,4.763410842E0,1.553421031E1
1.093329029E1,1.290911551E1,-5.366759883E0,5.628851384E0,1.507087731E1
1.094327629E1,1.253146023E1,-5.298224083E0,5.767978864E0,1.477762681E1
1.095326129E1,1.240271155E1,-5.644471636E0,6.046751302E0,1.490806880E1
1.096324729E1,1.162753916E1,-5.802169288E0,6.149370521E0,1.437635535E1
1.097323229E1,1.094051120E1,-5.665260242E0,6.291640295E0,1.383382436E1
1.098321729E1,1.005187358E1,-5.351582850E0,6.881783983E0,1.330558350E1
1.099320329E1,8.473645760E0,-5.359373680E0,8.055261692E0,1.286129075E1
1.100318829E1,6.520338932E0,-5.640870920E0,9.786088981E0,1.304230739E1
1.101317429E1,5.022639547E0,-5.610254315E0,1.177664199E1,1.397823873E1
1.102315929E1,4.387123804E0,-5.178492987E0,1.378754272E1,1.536749749E1
1.103314529E1,4.711496631E0,-3.821858557E0,1.510337674E1,1.627626469E1
1.104313029E1,4.602051664E0,-2.176850852E0,1.524156048E1,1.606931004E1
1.105311629E1,3.195986334E0,-1.740917098E0,1.483920422E1,1.527897584E1
1.106310129E1,1.360267890E0,-1.073410946E0,1.353499914E1,1.364546597E1
1.107308729E1,-8.447570394E-1,-8.457924351E-1,1.251073535E1,1.256771572E1
1.108307229E1,-3.312552332E0,-1.427785105E0,1.192738204E1,1.246089947E1
1.109305829E1,-5.660694151E0,-2.456950901E0,1.123481326E1,1.281799887E1
1.110304329E1,-7.642748814E0,-3.145473992E0,1.047682349E1,1.334426643E1
1.111302929E1,-9.211400653E0,-3.064176352E0,9.808256945E0,1.380003562E1
1.112301429E1,-1.037303541E1,-2.458985147E0,8.780390693E0,1.381092800E1
1.113300029E1,-1.134917895E1,-1.751793942E0,7.520342032E0,1.372691477E1
1.114298529E1,-1.207685558E1,-1.137016519E0,6.773712820E0,1.389339529E1
1.115297129E1,-1.232975935E1,-8.417541287E-1,7.199753816E0,1.430272599E1
1.116295629E1,-1.190365988E1,-6.019960675E-1,8.380491428E0,1.457024895E1
1.117294229E1,-1.125477097E1,-1.488891140E-2,9.330317817E0,1.461933384E1
1.118292729E1,-1.064674475E1,3.023476808E-1,9.707298920E0,1.441097638E1
1.119291329E1,-9.919749899E0,4.750485572E-1,9.181016182E0,1.352472430E1
1.120289829E1,-9.283903204E0,5.928286567E-1,7.972710117E0,1.225179216E1
1.121288429E1,-8.787072891E0,7.775658073E-1,6.155857422E0,1.075694377E1
1.122286929E1,-8.361831794E0,7.982908977E-1,4.030056564E0,9.316590321E0
1.123285529E1,-7.994443048E0,8.255522981E-1,1.946867874E0,8.269398452E0
1.124284029E1,-7.943352417E0,7.702790071E-1,4.905720377E-1,7.995676225E0
1.125282629E1,-7.638035374E0,6.146563127E-1,1.137330222E-1,7.663571097E0
1.126281129E1,-6.793466468E0,6.834425922E-1,4.319987243E-1,6.841410917E0
1.127279729E1,-5.781062593E0,8.399255582E-1,1.077283995E0,5.940260976E0
1.128278229E1,-4.841895387E0,1.007115799E0,1.587526066E0,5.194080494E0
1.129276829E1,-4.008271300E0,1.132203603E0,1.989520388E0,4.615876427E0
1.130275329E1,-3.283429398E0,1.147620518E0,2.180634293E0,4.105253632E0
1.131273829E1,-2.645041210E0,9.698904511E-1,1.984383025E0,3.445969599E0
1.132272429E1,-2.023105479E0,6.664630088E-1,1.453149449E0,2.578521290E0
1.133270929E1,-1.676551825E0,3.395961986E-1,8.381474930E-1,1.904899688E0
1.134269529E1,-1.361232973E0,1.142997636E-1,2.909679759E-1,1.396668181E0
1.135268029E1,-6.843644057E-1,5.199197978E-2,-1.485034901E-1,7.022186927E-1
1.136266629E1,1.054036635E-1,6.664195932E-2,-3.771986192E-1,3.972780907E-1
1.137265129E1,1.026007422E0,1.910078508E-1,-5.205308318E-1,1.166245076E0
1.138263729E1,1.901661734E0,5.045377468E-1,-4.325097710E-1,2.014433019E0
1.139262229E1,2.468385131E0,7.975933979E-1,3.926756144E-2,2.594344296E0
1.140260829E1,2.953108783E0,1.122313915E0,8.090967715E-1,3.261146669E0
1.141259329E1,3.665611306E0,1.317465102E0,1.775115854E0,4.280590712E0
1.142257929E1,4.240290279E0,1.436572885E0,2.734694229E0,5.246175352E0
1.143256429E1,4.434413161E0,1.538613815E0,3.275304984E0,5.723545692E0
1.144255029E1,4.680832370E0,1.710769000E0,3.568116587E0,6.129304873E0
1.145253529E1,4.935419555E0,1.727349511E0,3.924457603E0,6.537849034E0
1.146252129E1,5.204366916E0,1.733375505E0,4.372971788E0,7.015191223E0
1.147250629E1,5.454371054E0,1.767490793E0,4.923281320E0,7.557306812E0
1.148249229E1,5.383261310E0,1.823805034E0,5.685160071E0,8.039080306E0
1.149247729E1,5.011195377E0,1.907983890E0,6.492133718E0,8.420230510E0
1.150246329E1,4.594438589E0,1.383062676E0,7.394494749E0,8.814776282E0
1.151244829E1,4.080702222E0,1.219070789E0,8.107906514E0,9.158406644E0
1.152243429E1,3.606440408E0,7.762184626E-1,8.845466110E0,9.583903079E0
1.153241929E1,2.908878105E0,6.564707751E-1,9.640514361E0,1.009118640E1
1.154240529E1,2.289611044E0,4.401748494E-1,1.022485059E1,1.048730863E1
1.155239029E1,1.792842127E0,9.062387578E-2,1.037469602E1,1.052885621E1
1.156237629E1,1.458063888E0,-1.874317303E-1,1.020084427E1,1.030622650E1
1.157236129E1,1.348558110E0,-6.297144279E-1,1.003789874E1,1.014763816E1
1.158234729E1,1.083164248E0,-8.237800071E-1,1.013840770E1,1.022932886E1
1.159233229E1,6.473287265E-1,-1.131130200E0,1.033878242E1,1.042060037E1
1.160231829E1,-1.118864715E-3,-1.476605409E0,1.029286541E1,1.039824231E1
1.161230329E1,-8.717980729E-1,-1.978105746E0,1.024250217E1,1.046813187E1
1.162228929E1,-1.683026739E0,-2.477268806E0,1.030588365E1,1.073222612E1
1.163227429E1,-2.470168532E0,-3.042605097E0,1.021198672E1,1.093818317E1
1.164225929E1,-3.295352747E0,-3.867040284E0,9.825235505E0,1.106113028E1
1.165224529E1,-3.942680451E0,-4.396126762E0,9.130081086E0,1.087331781E1
1.166222962E1,-4.181791225E0,-4.541061989E0,8.879276465E0,1.081435030E1
1.167221563E1,-4.579823474E0,-4.577310340E0,8.743825715E0,1.088030519E1
1.168220063E1,-4.827733723E0,-4.657332118E0,8.495309109E0,1.082441833E1
1.169218663E1,-5.260333541E0,-4.729279183E0,8.168761411E0,1.080582498E1
1.170217162E1,-5.692212982E0,-4.972127790E0,7.669746578E0,1.076793183E1
1.171215763E1,-4.934888628E0,-5.727623720E0,7.196417980E0,1.043777903E1
1.172214263E1,-4.048459213E0,-6.827012529E0,6.743262860E0,1.041487955E1
1.173212863E1,-4.182461608E0,-7.955592393E0,5.874236221E0,1.073736870E1
1.174211362E1,-4.809789203E0,-8.625315517E0,5.149025359E0,1.113744145E1
1.175209963E1,-6.218179970E0,-9.003117569E0,4.459276691E0,1.181554217E1
1.176208463E1,-7.347343386E0,-9.490359617E0,3.512400223E0,1.250549223E1
1.177207063E1,-8.181663877E0,-1.001260836E1,2.624899306E0,1.319401555E1
1.178205562E1,-8.907090501E0,-1.040420575E1,1.844607673E0,1.381978060E1
1.179204163E1,-9.355344484E0,-1.078577048E1,1.170197421E0,1.432566499E1
1.180202663E1,-9.405318882E0,-1.097205459E1,4.320928645E-1,1.445796353E1
1.181201262E1,-9.238496650E0,-1.074255956E1,1.094481826E-1,1.416913495E1
1.182199762E1,-8.964428297E0,-1.048474296E1,4.508483934E-1,1.380195906E1
1.183198363E1,-8.812718194E0,-1.028081547E1,3.867862988E-1,1.354654097E1
1.184196863E1,-8.531985769E0,-1.018890893E1,6.019883931E-2,1.328955493E1
1.185195462E1,-8.015509982E0,-1.039654356E1,1.709082663E-2,1.312771154E1
1.186193962E1,-7.932219318E0,-1.072632535E1,-2.273789209E-1,1.334263317E1
1.187192563E1,-8.292119535E0,-1.109055894E1,-7.386635506E-1,1.386742109E1
1.188191063E1,-8.688097072E0,-1.165492284E1,-1.344184831E0,1.459887290E1
1.189189662E1,-9.117580909E0,-1.221362429E1,-2.031684953E0,1.537630137E1
1.190188163E1,-9.453527421E0,-1.307316733E1,-2.862775733E0,1.638512648E1
1.191186763E1,-9.309011732E0,-1.402708677E1,-3.702128338E0,1.723724505E1
1.192185263E1,-8.626712417E0,-1.438013464E1,-4.414807154E0,1.734067362E1
1.193183862E1,-7.630626951E0,-1.420053975E1,-4.928958966E0,1.685753343E1
1.194182363E1,-6.742671706E0,-1.400519714E1,-4.894134119E0,1.629606447E1
1.195180863E1,-6.322157498E0,-1.381333362E1,-4.746926080E0,1.591575221E1
1.196179463E1,-6.085373915E0,-1.333944720E1,-4.915487566E0,1.546397896E1
1.197177962E1,-5.760949341E0,-1.281393220E1,-4.997360280E0,1.491170699E1
1.198176563E1,-5.457084162E0,-1.266784068E1,-4.724405821E0,1.457991651E1
1.199175063E1,-5.395355691E0,-1.266295007E1,-4.499190370E0,1.448112156E1
1.200173663E1,-5.480275388E0,-1.273592683E1,-4.305946032E0,1.451821001E1
1.201172162E1,-5.287256461E0,-1.303662925E1,-3.995394854E0,1.462436198E1
1.202170763E1,-4.101603971E0,-1.285727878E1,-4.001324515E0,1.407634081E1
1.203169263E1,-2.216662643E0,-1.234343248E1,-3.991378986E0,1.316073801E1
1.204167862E1,-5.584681517E-1,-1.220545924E1,-3.851940435E0,1.281103302E1
1.205166362E1,7.174446628E-1,-1.197455153E1,-3.854435441E0,1.260005094E1
1.206164963E1,1.760068045E0,-1.173776853E1,-3.941417744E0,1.250631134E1
1.207163463E1,2.638265457E0,-1.189656019E1,-4.206166513E0,1.289109870E1
1.208162062E1,3.308901331E0,-1.180609207E1,-4.759887310E0,1.315253456E1
1.209160562E1,3.496406919E0,-1.161402975E1,-5.200144057E0,1.319666801E1
1.210159163E1,3.360126448E0,-1.163864419E1,-5.560699162E0,1.332928593E1
1.211157663E1,3.375050589E0,-1.145837921E1,-5.802206125E0,1.327972200E1
1.212156262E1,3.606827786E0,-1.135366961E1,-5.502935688E0,1.312239770E1
1.213154763E1,3.737056680E0,-1.131279991E1,-4.946607032E0,1.290015332E1
1.214153363E1,3.810868130E0,-1.145613388E1,-4.638510515E0,1.293373493E1
1.215151863E1,3.813041832E0,-1.148691713E1,-4.795131695E0,1.301851916E1
1.216150462E1,3.710403610E0,-1.122825619E1,-5.003311576E0,1.284032549E1
1.217148963E1,3.650761133E0,-1.071587988E1,-4.816612026E0,1.230275945E1
1.218147563E1,3.146660685E0,-1.084451278E1,-4.167239844E0,1.203622943E1
1.219146063E1,2.913671945E0,-1.097760477E1,-3.749995691E0,1.196075910E1
1.220144662E1,3.648965453E0,-1.088267639E1,-3.335294493E0,1.195289854E1
1.221143163E1,4.804312408E0,-1.091073367E1,-2.630223781E0,1.220834158E1
1.222141663E1,5.887307087E0,-1.071874970E1,-2.439496962E0,1.247008922E1
1.223140263E1,6.528053164E0,-1.043484867E1,-2.658224342E0,1.259236679E1
1.224138762E1,6.209731328E0,-1.032944091E1,-2.965349929E0,1.241174496E1
1.225137363E1,5.274423577E0,-9.958755505E0,-3.302003371E0,1.174306525E1
1.226135863E1,5.204399661E0,-9.583088272E0,-2.738466268E0,1.124368953E1
1.227134462E1,6.192850417E0,-8.875227853E0,-1.564628370E0,1.093476692E1
1.228132962E1,7.565714672E0,-7.910685192E0,1.447472388E-1,1.094714257E1
1.229131563E1,8.964951038E0,-7.027203067E0,2.113786585E0,1.158533659E1
1.230130063E1,1.018940828E1,-6.395731843E0,3.329672980E0,1.248263390E1
1.231128662E1,1.080817701E1,-6.193050392E0,3.299083271E0,1.288621411E1
1.232127162E1,1.099436639E1,-6.234418858E0,1.854934441E0,1.277438267E1
1.233125763E1,1.148573014E1,-5.375972756E0,-4.062160116E-1,1.268810827E1
1.234124263E1,1.207045639E1,-4.589433373E0,-6.485614657E-1,1.292978917E1
1.235122862E1,1.219947871E1,-4.035098033E0,1.871427682E0,1.298505058E1
1.236121363E1,1.219338825E1,-2.947538141E0,5.392097622E0,1.365435516E1
1.237119963E1,1.186977878E1,-3.020996127E0,8.750945869E0,1.505314317E1
1.238118463E1,1.146935443E1,-3.888429399E0,1.073669597E1,1.618464132E1
1.239117062E1,1.127965555E1,-4.784057653E0,1.102994202E1,1.648567433E1
1.240115563E1,1.119543577E1,-4.862531088E0,9.850214810E0,1.568466520E1
1.241114163E1,1.003466172E1,-3.986397451E0,8.456430387E0,1.371484653E1
1.242112663E1,7.730240117E0,-3.348012479E0,8.563830875E0,1.201270157E1
1.243111262E1,5.152243082E0,-3.001724581E0,1.015176975E1,1.177346119E1
1.244109763E1,2.510940582E0,-3.951845669E0,1.260349558E1,1.344507373E1
1.245108363E1,-4.537804797E-2,-5.563953722E0,1.438920250E1,1.542753346E1
1.246106863E1,-2.733098524E0,-7.041083187E0,1.527542755E1,1.704069737E1
1.247105462E1,-5.482796708E0,-7.225244753E0,1.538514705E1,1.785967444E1
1.248103963E1,-7.270955946E0,-5.937776159E0,1.439463690E1,1.718515515E1
1.249102563E1,-9.136784334E0,-4.351579750E0,1.283237432E1,1.634279367E1
1.250101062E1,-1.149527280E1,-3.662837680E0,1.151680459E1,1.667916259E1
1.251099562E1,-1.367364715E1,-3.665622708E0,1.099757652E1,1.792629647E1
1.252098163E1,-1.542004908E1,-3.701665238E0,1.100148713E1,1.930059476E1
1.253096663E1,-1.666189009E1,-3.322493184E0,1.137448102E1,2.044593752E1
1.254095262E1,-1.723567970E1,-2.766951271E0,1.251033774E1,2.147634104E1
1.255093762E1,-1.668194370E1,-1.916885398E0,1.344727687E1,2.151257657E1
1.256092363E1,-1.495984865E1,-9.872810206E-1,1.389956602E1,2.044430803E1
1.257090863E1,-1.279051176E1,-5.116515425E-1,1.291804772E1,1.818611930E1
1.258089462E1,-1.129354269E1,-6.940791891E-1,1.054065287E1,1.546386806E1
1.259087963E1,-9.782138017E0,-1.110520007E0,7.361518207E0,1.229290158E1
1.260086563E1,-7.758037781E0,-1.299910007E0,4.046104247E0,8.845782939E0
1.261085063E1,-6.235351489E0,-1.112665424E0,1.654405349E0,6.546349333E0
1.262083662E1,-5.789729921E0,-7.101905340E-1,2.909586203E-1,5.840376707E0
1.263082163E1,-5.791008707E0,-6.013340896E-1,-3.570017517E-1,5.833081071E0
1.264080763E1,-5.583921964E0,-3.662826716E-1,-7.698140073E-1,5.648624708E0
1.265079263E1,-5.202269520E0,-3.128212135E-1,-7.366135168E-1,5.263465089E0
1.266077862E1,-4.842651724E0,-3.031499919E-1,-2.833478844E-1,4.860397274E0
1.267076388E1,-4.590826472E0,-2.357208511E-1,2.721691775E-1,4.604924329E0
1.268074988E1,-4.211238973E0,-2.081050363E-1,6.826887399E-1,4.271288483E0
1.269073488E1,-3.693245248E0,-2.435857947E-1,6.279640639E-1,3.754162139E0
1.270072088E1,-3.326691777E0,-3.969820521E-1,1.472638804E-1,3.353529421E0
1.271070588E1,-3.134261664E0,-7.395304734E-1,-5.325977308E-1,3.264071360E0
1.272069188E1,-3.085036587E0,-8.548787159E-1,-1.104857125E0,3.386587903E0
1.273067687E1,-3.047009804E0,-8.770322811E-1,-1.340361922E0,3.442386447E0
1.274066288E1,-2.912221251E0,-7.721803755E-1,-1.340304619E0,3.297531140E0
1.275064788E1,-2.739301835E0,-5.846565515E-1,-1.319563376E0,3.096263123E0
1.276063388E1,-2.522639983E0,-4.706828798E-1,-1.315200768E0,2.883575544E0
1.277061887E1,-2.258729998E0,-3.808307634E-1,-1.340071315E0,2.653805645E0
1.278060488E1,-1.899038819E0,-3.245122826E-1,-1.386183627E0,2.373428260E0
1.279058988E1,-1.542229879E0,-3.371229726E-1,-1.375022462E0,2.093516580E0
1.280057588E1,-1.228036909E0,-3.066054039E-1,-1.301029456E0,1.815147148E0
1.281056087E1,-8.484136688E-1,-2.521712980E-1,-1.244864026E0,1.527443145E0
1.282054588E1,-4.691846770E-1,-1.994111768E-1,-1.094381254E0,1.207298392E0
1.283053188E1,-1.903213877E-1,-6.478678398E-3,-9.871076506E-1,1.005308767E0
1.284051688E1,3.691751430E-1,3.050740730E-1,-9.756014997E-1,1.086811282E0
1.285050287E1,1.312815104E0,5.589001878E-1,-6.948667359E-1,1.587038972E0
1.286048788E1,2.519256492E0,8.016148936E-1,-1.574228328E-1,2.648399829E0
1.287047388E1,3.706630986E0,1.009196385E0,6.544525355E-1,3.896908869E0
1.288045888E1,4.396177048E0,1.184037342E0,1.624280494E0,4.833901550E0
1.289044487E1,4.721362345E0,1.302141304E0,2.534396102E0,5.514526088E0
1.290042988E1,4.963414269E0,1.484880827E0,3.560830371E0,6.286482738E0
1.291041588E1,4.781154218E0,1.535057831E0,4.693030831E0,6.873163506E0
1.292040088E1,4.125090190E0,1.632691860E0,5.671555939E0,7.200597097E0
1.293038687E1,3.589116862E0,1.847394456E0,6.200625460E0,7.398809513E0
1.294037188E1,3.544554062E0,1.843128474E0,6.411388348E0,7.554262811E0
1.295035788E1,3.781844013E0,1.579958600E0,6.521970305E0,7.702902699E0
1.296034287E1,4.138193800E0,1.450202160E0,6.740883628E0,8.041594762E0
1.297032888E1,4.346212590E0,1.317626632E0,7.332784404E0,8.625278601E0
1.298031388E1,4.413560820E0,1.273208112E0,7.914538507E0,9.150983433E0
1.299029988E1,4.308386952E0,1.362662325E0,8.614989334E0,9.728159537E0
1.300028487E1,4.107804651E0,1.490406446E0,9.605139876E0,1.055244438E1
1.301027088E1,3.522698924E0,1.184427936E0,1.052874209E1,1.116542373E1
1.302025588E1,2.489576025E0,7.073467407E-1,1.131871379E1,1.161084019E1
1.303024188E1,1.511597340E0,4.658820234E-1,1.222741086E1,1.232929637E1
1.304022687E1,8.001629569E-1,-2.278067909E-2,1.280731666E1,1.283230843E1
1.305021288E1,1.972891492E-1,-4.995975074E-1,1.247868793E1,1.249024312E1
1.306019788E1,-6.763578133E-1,-1.059192856E0,1.174692527E1,1.181395796E1
1.307018388E1,-1.846880925E0,-1.744897736E0,1.099125684E1,1.128110652E1
1.308016887E1,-2.999595317E0,-2.383779867E0,1.024814239E1,1.094095065E1
1.309015488E1,-3.856384318E0,-3.098123240E0,9.670483680E0,1.086224297E1
1.310013988E1,-4.155909987E0,-3.589143759E0,9.282722651E0,1.078529001E1
1.311012488E1,-3.978166033E0,-4.000844167E0,9.417637212E0,1.097836280E1
1.312011087E1,-4.128290956E0,-4.480941795E0,9.848823173E0,1.158105969E1
1.313009588E1,-4.701019590E0,-4.869348649E0,1.010560014E1,1.216278322E1
1.314008188E1,-5.048312332E0,-5.189951191E0,1.024783015E1,1.254747280E1
1.315006688E1,-5.338489764E0,-5.745145487E0,1.012703369E1,1.280870724E1
1.316005287E1,-5.910443349E0,-6.564506460E0,9.548622444E0,1.300777753E1
1.317003788E1,-6.808705482E0,-7.392119025E0,8.503505736E0,1.316478271E1
1.318002388E1,-7.343850845E0,-8.364571214E0,7.641626149E0,1.350157943E1
1.319000887E1,-7.644809373E0,-8.952646158E0,6.626461803E0,1.350936637E1
1.319999488E1,-7.373951726E0,-8.944516774E0,5.506473838E0,1.283358089E1
1.320997988E1,-6.947028385E0,-9.104156286E0,4.953238360E0,1.247723669E1
1.321996588E1,-7.012848153E0,-9.498151617E0,4.613081267E0,1.267578172E1
1.322995087E1,-7.517471049E0,-9.777226941E0,3.899009351E0,1.293479074E1
1.323993688E1,-8.107108954E0,-1.016824955E1,3.072675573E0,1.336262884E1
1.324992188E1,-8.516746171E0,-1.080554226E1,2.326291943E0,1.395372148E1
1.325990788E1,-8.682904159E0,-1.102023097E1,1.298926213E0,1.408990861E1
1.326989287E1,-8.908012607E0,-1.076633551E1,5.653906703E-1,1.398521846E1
1.327987888E1,-8.875911393E0,-1.055984460E1,3.576578093E-1,1.379927679E1
1.328986388E1,-8.452473577E0,-1.053254979E1,2.534364527E-1,1.350715162E1
1.329984988E1,-8.011608719E0,-1.074947214E1,1.500547564E-1,1.340744353E1
1.330983487E1,-7.472463861E0,-1.117895481E1,8.389234185E-2,1.344670163E1
1.331982088E1,-7.313885034E0,-1.169636322E1,-1.559908497E-1,1.379572978E1
1.332980588E1,-7.812275383E0,-1.187813211E1,-5.610450196E-1,1.422801605E1
1.333979187E1,-8.700704838E0,-1.212722116E1,-8.212215579E-1,1.494811568E1
1.334977687E1,-9.417708548E0,-1.243688736E1,-1.062689053E0,1.563645451E1
1.335976288E1,-9.660327067E0,-1.273361601E1,-1.469804366E0,1.605077010E1
1.336974788E1,-9.564002375E0,-1.289864432E1,-2.187007758E0,1.620580666E1
1.337973387E1,-9.004519147E0,-1.300580975E1,-2.755114460E0,1.605687105E1
1.338971887E1,-8.162163997E0,-1.327667383E1,-3.327533484E0,1.593623130E1
1.339970388E1,-7.185388377E0,-1.364635351E1,-3.991307943E0,1.593057781E1
1.340968988E1,-6.095160400E0,-1.387243844E1,-4.489535447E0,1.580352673E1
1.341967488E1,-4.886075779E0,-1.349955565E1,-4.747300009E0,1.512113080E1
1.342966088E1,-3.736215266E0,-1.287917777E1,-4.592344117E0,1.417470102E1
1.343964588E1,-2.844194452E0,-1.259058961E1,-4.310879620E0,1.360867635E1
1.344963188E1,-2.105875887E0,-1.253056911E1,-4.229768214E0,1.339181894E1
1.345961687E1,-1.270417967E0,-1.252528790E1,-4.389010116E0,1.333267448E1
1.346960288E1,-3.469360257E-1,-1.265402956E1,-4.828301488E0,1.354833289E1
1.347958788E1,7.059300334E-1,-1.290243331E1,-5.233245145E0,1.394123299E1
1.348957388E1,1.666085163E0,-1.304081352E1,-5.693130995E0,1.432656266E1
1.349955887E1,2.744757579E0,-1.337743773E1,-6.061109140E0,1.494076900E1
1.350954488E1,4.032677870E0,-1.374506153E1,-6.401973746E0,1.568994822E1
1.351952988E1,4.594816612E0,-1.340562598E1,-6.715769252E0,1.568198662E1
1.352951588E1,3.973035101E0,-1.314914371E1,-6.827201979E0,1.533935055E1
1.353950087E1,2.468129607E0,-1.250463671E1,-7.170800743E0,1.462456790E1
1.354948688E1,6.201209012E-1,-1.171454339E1,-7.725123804E0,1.404608894E1
1.355947188E1,-1.231336201E0,-1.204828609E1,-8.067601072E0,1.455209859E1
1.356945787E1,-1.841278561E0,-1.288347547E1,-8.480067172E0,1.553337652E1
1.357944287E1,-4.465218924E-1,-1.347609429E1,-8.007997479E0,1.568223589E1
1.358942888E1,1.502207296E0,-1.390338542E1,-6.207595925E0,1.530016340E1
1.359941388E1,3.038292483E0,-1.361903766E1,-4.401588646E0,1.463158879E1
1.360939987E1,3.926381337E0,-1.272272382E1,-2.998745132E0,1.364832020E1
1.361938487E1,3.604733898E0,-1.140322593E1,-2.331665534E0,1.218459406E1
1.362937088E1,3.133781607E0,-1.013120393E1,-2.163998964E0,1.082334383E1
1.363935588E1,3.421992329E0,-9.696961627E0,-1.719860836E0,1.042588210E1
1.364934187E1,4.452752075E0,-9.606492922E0,-1.661517903E0,1.071785189E1
1.365932688E1,6.161921570E0,-9.308684288E0,-1.547877266E0,1.127017323E1
1.366931188E1,7.817855966E0,-9.166246115E0,-7.072178096E-1,1.206810245E1
1.367929788E1,8.679954239E0,-8.969491401E0,4.327559388E-1,1.248922172E1
1.368928287E1,8.773979806E0,-8.363705826E0,1.114197468E0,1.217274549E1
1.369926888E1,8.529035264E0,-7.344108707E0,9.283758777E-1,1.129346081E1
1.370925388E1,8.626619446E0,-6.590009676E0,9.929589593E-1,1.090104390E1
1.371923988E1,8.915087737E0,-5.929602921E0,2.269103251E0,1.094476175E1
1.372922487E1,8.860322131E0,-4.968782598E0,3.727552616E0,1.082075585E1
1.373921088E1,9.609718246E0,-4.702947124E0,5.358401873E0,1.196565364E1
1.374919588E1,1.064445848E1,-4.865432184E0,6.867532564E0,1.356981688E1
1.375918188E1,1.119421721E1,-4.991003187E0,7.437992186E0,1.433681762E1
1.376916687E1,1.120990763E1,-4.994574081E0,7.341485061E0,1.430053153E1
1.377915288E1,1.104297781E1,-4.967405578E0,7.017438802E0,1.399524649E1
1.378913788E1,1.099636614E1,-4.166277977E0,6.257369764E0,1.332038351E1
1.379912388E1,1.099869216E1,-3.184550057E0,6.226019332E0,1.303364512E1
1.380910887E1,1.017317992E1,-3.035002547E0,7.281632377E0,1.287349992E1
1.381909488E1,8.510987248E0,-3.116194060E0,8.648107379E0,1.252746306E1
1.382907988E1,7.032291314E0,-3.542012277E0,1.041408053E1,1.305572845E1
1.383906587E1,6.016475589E0,-3.785752585E0,1.218285040E1,1.410502552E1
1.384905087E1,5.204425389E0,-4.021045420E0,1.311718517E1,1.467362930E1
1.385903688E1,4.643459306E0,-3.626322695E0,1.240654499E1,1.373441987E1
1.386902188E1,3.304376171E0,-3.336177715E0,1.097269077E1,1.193519695E1
1.387900787E1,8.430373733E-1,-3.941162221E0,1.020014728E1,1.096751914E1
1.388899287E1,-1.597540885E0,-3.939840750E0,9.832831038E0,1.071256497E1
1.389897888E1,-4.198094139E0,-4.076750381E0,1.039794806E1,1.193152178E1
1.390896388E1,-6.552640706E0,-4.253800563E0,1.124133524E1,1.368939507E1
1.391894987E1,-8.453294526E0,-4.122191725E0,1.180083660E1,1.509007612E1
1.392893488E1,-9.908881094E0,-3.870227602E0,1.240313489E1,1.634020628E1
1.393891988E1,-1.032577003E1,-2.884857743E0,1.267787918E1,1.660338976E1
1.394890588E1,-1.027044835E1,-1.711704408E0,1.191421177E1,1.582278368E1
1.395889087E1,-1.110039863E1,-1.289975295E0,1.076157003E1,1.551432485E1
1.396887688E1,-1.281062969E1,-1.512625865E0,9.522477204E0,1.603364719E1
1.397886188E1,-1.457591228E1,-1.858498173E0,8.197318627E0,1.682579172E1
1.398884788E1,-1.482278874E1,-1.958921324E0,7.154581152E0,1.657529699E1
1.399883287E1,-1.331710849E1,-1.743662366E0,6.662547895E0,1.499250751E1
1.400881888E1,-1.142850345E1,-1.005096171E0,6.914892088E0,1.339539629E1
1.401880388E1,-9.848929592E0,-9.227023244E-2,7.580015207E0,1.242845761E1
1.402878988E1,-8.077485205E0,5.144751629E-1,7.643489072E0,1.113253687E1
1.403877487E1,-6.463347875E0,7.127286641E-1,6.619888363E0,9.279319471E0
1.404876088E1,-5.242624664E0,4.230571622E-1,4.772895611E0,7.102437838E0
1.405874588E1,-4.483433878E0,1.608123176E-1,2.862322574E0,5.321647344E0
1.406873187E1,-4.129953904E0,6.337431595E-2,1.333086816E0,4.340236861E0
1.407871687E1,-4.038088299E0,2.953092411E-2,1.083301950E-1,4.039649071E0
1.408870288E1,-3.895038507E0,-1.899285279E-2,-7.608970034E-1,3.968708852E0
1.409868788E1,-3.522433460E0,-8.779696628E-2,-1.334816422E0,3.767888092E0
1.410867387E1,-2.994909651E0,1.452901527E-2,-1.585031644E0,3.388512981E0
1.411865887E1,-2.470250393E0,2.202676834E-1,-1.439779206E0,2.867685306E0
1.412864488E1,-2.115973736E0,3.702514692E-1,-9.080106103E-1,2.332147995E0
1.413862988E1,-2.042952976E0,5.242695415E-1,-1.867051041E-1,2.117397981E0
1.414861587E1,-2.073338617E0,5.807971334E-1,2.477786869E-1,2.167360747E0
1.415860088E1,-2.067983444E0,4.471330726E-1,2.792121488E-1,2.134114086E0
1.416858688E1,-2.126908029E0,2.566944482E-1,2.242986077E-1,2.154051919E0
1.417857188E1,-2.170221571E0,-7.026679449E-2,1.953174680E-1,2.180125685E0
1.418855787E1,-2.137109959E0,-1.409269604E-1,1.227102524E-1,2.145263897E0
1.419854288E1,-1.763416014E0,-1.885871036E-1,2.628645033E-1,1.792846586E0
1.420852788E1,-9.326041456E-1,-2.307500600E-1,3.772424734E-1,1.032137571E0
1.421851388E1,-2.194620833E-1,5.772203185E-2,5.729306549E-1,6.162345124E-1
1.422849887E1,3.663871175E-1,5.155742202E-1,1.039400470E0,1.216720852E0
1.423848488E1,1.215893558E0,8.520941987E-1,1.561155124E0,2.154452828E0
1.424846988E1,2.014138043E0,9.822964154E-1,1.886359132E0,2.929165253E0
1.425845588E1,2.541563619E0,1.110241899E0,2.087744256E0,3.471434687E0
1.426844087E1,2.708820300E0,1.134469033E0,2.288172190E0,3.722963789E0
1.427842688E1,2.608632937E0,1.151892274E0,2.425898092E0,3.743902131E0
1.428841188E1,2.668505209E0,1.127355676E0,2.621729531E0,3.907085436E0
1.429839787E1,3.013014677E0,1.047576485E0,2.996255388E0,4.376439224E0
1.430838287E1,3.569681009E0,1.125460959E0,3.452204307E0,5.091856190E0
1.431836888E1,4.246468739E0,1.331880243E0,4.034340819E0,6.006855049E0
1.432835388E1,4.822291719E0,1.355287086E0,4.704524703E0,6.871961379E0
1.433833987E1,5.184087603E0,1.403421073E0,5.323152518E0,7.561766177E0
1.434832487E1,5.074081011E0,1.541846010E0,5.956421760E0,7.975120527E0
1.435831088E1,4.531567572E0,1.498217741E0,6.687585672E0,8.216055208E0
1.436829588E1,4.127508599E0,1.375623263E0,7.239966872E0,8.446643529E0
1.437828187E1,3.959167845E0,1.105260291E0,7.578238238E0,8.621270505E0
1.438826688E1,4.100158247E0,8.302725361E-1,7.784297041E0,8.837190196E0
1.439825288E1,4.229618233E0,6.858545686E-1,8.414721029E0,9.442859571E0
1.440823788E1,4.071950694E0,5.520133738E-1,9.559916925E0,1.040564812E1
1.441822387E1,3.863224391E0,4.668824820E-1,1.072073658E1,1.140511617E1
1.442820888E1,3.480324737E0,-3.750952296E-2,1.207435297E1,1.256598850E1
1.443819488E1,2.462912722E0,-5.356871071E-1,1.320609560E1,1.344447324E1
1.444817988E1,1.041898693E0,-1.179448447E0,1.368403765E1,1.377423457E1
1.445816587E1,-6.685832092E-1,-1.973649145E0,1.338195178E1,1.354322442E1
1.446815088E1,-2.402871319E0,-2.824544883E0,1.268746511E1,1.321830607E1
1.447813588E1,-3.915644680E0,-3.695012569E0,1.181494710E1,1.298377318E1
1.448812188E1,-4.963338255E0,-4.556123539E0,1.100092580E1,1.290013011E1
1.449810687E1,-5.624561282E0,-5.092683928E0,1.039123429E1,1.286657954E1
1.450809288E1,-5.677276855E0,-5.460643362E0,1.006804347E1,1.278341104E1
1.451807788E1,-5.606040226E0,-5.846670692E0,9.892138177E0,1.278536831E1
1.452806387E1,-5.612499061E0,-6.232278192E0,9.694581810E0,1.281898411E1
1.453804887E1,-6.062363952E0,-6.732583505E0,9.700959953E0,1.327360393E1
1.454803488E1,-6.938902509E0,-7.189489614E0,9.710660484E0,1.393319978E1
1.455801988E1,-7.856617159E0,-7.730046574E0,9.634734389E0,1.463926774E1
1.456800587E1,-8.337371137E0,-8.334286146E0,9.127377334E0,1.490909454E1
1.457799087E1,-8.431915351E0,-8.816176822E0,8.417623002E0,1.482155684E1
1.458797688E1,-8.578788053E0,-9.271268540E0,7.552388282E0,1.471701714E1
1.459796188E1,-8.738293664E0,-9.927172354E0,6.753406025E0,1.484974815E1
1.460794787E1,-8.788787879E0,-1.087640233E1,5.990551958E0,1.521268000E1
1.461793288E1,-8.110669323E0,-1.146499124E1,4.706889317E0,1.481160991E1
1.462791888E1,-7.567942461E0,-1.149904542E1,3.445319796E0,1.419056120E1
1.463790388E1,-7.523365043E0,-1.180266093E1,2.893511038E0,1.429252366E1
1.464788987E1,-7.517386265E0,-1.159678982E1,2.279708930E0,1.400691626E1
1.465787488E1,-7.966855300E0,-1.049974925E1,1.583458743E0,1.327489583E1
1.466786088E1,-8.858192575E0,-1.043018376E1,1.707879891E0,1.379032859E1
1.467784588E1,-9.213875780E0,-1.120014044E1,1.755402551E0,1.460890450E1
1.468783187E1,-8.730990492E0,-1.164764656E1,9.109850889E-1,1.458518972E1
1.469781688E1,-8.296676270E0,-1.217814105E1,1.493244392E-1,1.473649396E1
1.470780288E1,-8.024167954E0,-1.286977428E1,-4.803984672E-1,1.517396270E1
1.471778788E1,-7.776268229E0,-1.284828693E1,-1.664709898E0,1.511026418E1
1.472777287E1,-7.807068438E0,-1.262998581E1,-2.544667906E0,1.506460069E1
1.473775888E1,-7.828669222E0,-1.314300180E1,-2.801853886E0,1.555239349E1
1.474774388E1,-7.308028463E0,-1.300751947E1,-3.363584784E0,1.529433050E1
1.475772988E1,-6.811116289E0,-1.269853038E1,-3.868292466E0,1.492004241E1
1.476771487E1,-6.837304798E0,-1.312025379E1,-4.224993670E0,1.538636955E1
1.477770088E1,-6.773591782E0,-1.330623150E1,-4.750280627E0,1.566851966E1
1.478768588E1,-6.595068687E0,-1.347539262E1,-5.079881449E0,1.583939181E1
1.479767187E1,-6.393671869E0,-1.358499634E1,-5.320566879E0,1.592920580E1
1.480765687E1,-6.094766883E0,-1.331432756E1,-5.656777686E0,1.569766338E1
1.481764288E1,-5.544568448E0,-1.302607854E1,-5.870219768E0,1.532580965E1
1.482762788E1,-4.628303908E0,-1.284355185E1,-6.126989719E0,1.496389068E1
1.483761387E1,-4.041610954E0,-1.280225882E1,-6.340280943E0,1.484693949E1
1.484759887E1,-4.226360457E0,-1.286226528E1,-6.423854027E0,1.498552273E1
1.485758488E1,-4.245263920E0,-1.299909481E1,-6.483731269E0,1.513398502E1
1.486756988E1,-3.733624949E0,-1.288754864E1,-6.592871888E0,1.494974331E1
1.487755587E1,-2.936480764E0,-1.273076608E1,-6.632086240E0,1.465195865E1
1.488754088E1,-1.694080169E0,-1.257257317E1,-6.787588847E0,1.438787219E1
1.489752688E1,-5.620492789E-1,-1.245148318E1,-7.119717713E0,1.435429250E1
1.490751188E1,3.892305811E-1,-1.252942072E1,-7.685011904E0,1.470364893E1
1.491749787E1,1.359165983E0,-1.269328543E1,-8.250106705E0,1.519970683E1
1.492748288E1,1.544718016E0,-1.323558661E1,-8.424587620E0,1.576516994E1
1.493746888E1,6.625393809E-1,-1.380247417E1,-8.132036219E0,1.603362918E1
1.494745388E1,-9.169983655E-2,-1.410748833E1,-7.429749366E0,1.594461700E1
1.495743987E1,-1.555558169E-1,-1.438785062E1,-6.110316383E0,1.563235137E1
1.496742488E1,-2.178853816E-1,-1.465284059E1,-4.760364151E0,1.540825357E1
1.497740988E1,-1.758541337E-1,-1.453488939E1,-3.484945207E0,1.494786865E1
1.498739588E1,-3.268301189E-3,-1.411010905E1,-2.291269460E0,1.429493280E1
1.499738087E1,-2.018064156E-1,-1.336818158E1,-1.407970353E0,1.344363735E1
1.500736688E1,-9.005174035E-1,-1.292833531E1,-8.829646468E-1,1.298970408E1
1.501735188E1,-1.074305131E0,-1.303087559E1,-8.852526623E-1,1.310501898E1
1.502733787E1,7.632236105E-1,-1.299274707E1,-1.444095036E0,1.309501421E1
1.503732287E1,4.195948211E0,-1.286441238E1,-1.319724759E0,1.359561550E1
1.504730888E1,7.233840160E0,-1.275613832E1,-5.180902040E-1,1.467364732E1
1.505729388E1,9.391325326E0,-1.198755924E1,2.656846154E-1,1.523053368E1
1.506727987E1,1.068475516E1,-1.064527242E1,1.305544676E0,1.513903116E1
1.507726487E1,1.010322149E1,-9.304708766E0,2.244856017E0,1.391732978E1
1.508725088E1,9.128379546E0,-8.552775545E0,2.940463595E0,1.285004314E1
1.509723588E1,9.152125674E0,-7.955411714E0,3.613263524E0,1.265328626E1
1.510722187E1,9.498501281E0,-7.402044674E0,4.583717719E0,1.288496256E1
1.511720688E1,1.003009855E1,-6.578903475E0,4.852134154E0,1.293939928E1
1.512719288E1,1.114084149E1,-5.943906380E0,4.359599791E0,1.335868565E1
1.513717788E1,1.183631750E1,-5.574301540E0,4.117057870E0,1.371573604E1
1.514716387E1,1.132508608E1,-5.287323704E0,4.183509722E0,1.318010320E1
1.515714888E1,1.009653929E1,-4.992336352E0,4.131139719E0,1.199707645E1
1.516713488E1,8.906908067E0,-4.868218090E0,4.194048743E0,1.098283222E1
1.517711988E1,8.354188313E0,-4.708269260E0,4.215136142E0,1.047509592E1
1.518710587E1,8.410602250E0,-3.849453029E0,3.461376250E0,9.876114842E0
1.519709088E1,8.398105581E0,-3.229706642E0,2.972010493E0,9.475865592E0
1.520707588E1,8.354018744E0,-3.203252669E0,3.634269646E0,9.657037470E0
1.521706188E1,7.344030354E0,-3.575023610E0,4.753641315E0,9.450538683E0
1.522704687E1,5.401074268E0,-4.916861077E0,6.162464191E0,9.556311579E0
1.523703288E1,3.767729419E0,-5.967091175E0,8.144413605E0,1.077652240E1
1.524701788E1,2.512583064E0,-6.379533886E0,1.047790639E1,1.252190276E1
1.525700387E1,1.620433904E0,-6.043447040E0,1.225899869E1,1.376343369E1
1.526698887E1,1.479762759E0,-4.062682565E0,1.286153555E1,1.356886820E1
1.527697488E1,5.087438683E-1,-1.948725826E0,1.275476305E1,1.291279726E1
1.528695988E1,-1.956170355E0,-1.394147827E0,1.285007033E1,1.307266454E1
1.529694587E1,-4.335312796E0,-6.515683964E-1,1.269143069E1,1.342728161E1
1.530693087E1,-6.128363814E0,-3.740035544E-1,1.283518332E1,1.422809378E1
1.531691688E1,-6.891567544E0,-6.251486295E-1,1.321169723E1,1.491420322E1
1.532690188E1,-6.897349271E0,-9.825555933E-1,1.386391788E1,1.551602596E1
1.533688787E1,-6.992668827E0,-1.285736064E0,1.468378990E1,1.631454015E1
1.534687288E1,-6.678914836E0,-1.036211544E0,1.515706821E1,1.659573302E1
1.535685888E1,-5.634132004E0,-6.396966483E-1,1.482099365E1,1.586866434E1
1.536684388E1,-4.658368537E0,-1.494871379E-1,1.333569094E1,1.412669094E1
1.537682987E1,-4.197966670E0,1.942063509E-1,1.082748335E1,1.161443223E1
1.538681488E1,-5.338222547E0,-2.818156216E-1,8.295305682E0,9.868542768E0
1.539680088E1,-7.747517470E0,-8.023023069E-1,6.536240435E0,1.016809495E1
1.540678588E1,-9.504785868E0,-9.365777671E-1,5.673038208E0,1.110862254E1
1.541677187E1,-1.011640229E1,-1.113712002E0,5.420120988E0,1.153081355E1
1.542675688E1,-9.708170155E0,-1.179885234E0,5.372098975E0,1.115796327E1
1.543674288E1,-8.523452927E0,-1.129725041E0,5.247713495E0,1.007293529E1
1.544672788E1,-6.894928524E0,-1.041856154E0,5.408303180E0,8.824695286E0
1.545671287E1,-5.549553784E0,-7.347318828E-1,5.518024428E0,7.860405316E0
1.546669888E1,-4.869217087E0,-6.536611149E-1,4.932674287E0,6.961883618E0
1.547668388E1,-4.469085688E0,-8.207866712E-1,3.642423588E0,5.823544216E0
1.548666987E1,-4.211109164E0,-9.497870658E-1,2.048907634E0,4.778447275E0
1.549665487E1,-4.194805665E0,-1.005791917E0,7.354721403E-1,4.375949179E0
1.550664088E1,-4.276111784E0,-1.065340984E0,-2.435324389E-1,4.413546357E0
1.551662588E1,-4.385219951E0,-1.170965453E0,-7.115693074E-1,4.594305713E0
1.552661187E1,-4.389121798E0,-1.059575045E0,-5.774295026E-1,4.551979159E0
1.553659687E1,-3.770548947E0,-1.012303157E0,-3.069261968E-1,3.916120623E0
1.554658288E1,-2.383812465E0,-1.047751317E0,-2.512782454E-1,2.616005629E0
1.555656788E1,-1.254447467E0,-9.592383590E-1,-2.342230868E-1,1.596445154E0
1.556655387E1,-1.042559282E0,-6.630250653E-1,2.253446746E-1,1.255910950E0
1.557653888E1,-1.332787292E0,-3.016696961E-1,7.057396334E-1,1.537984071E0
1.558652488E1,-1.123030418E0,6.731972471E-3,9.147161973E-1,1.448429619E0
1.559650988E1,-4.397202650E-1,9.260264665E-2,1.029553174E0,1.123347186E0
1.560649587E1,2.134374046E-1,3.181049037E-1,1.003137792E0,1.073793130E0
1.561648088E1,8.728020398E-1,6.018158271E-1,1.197898021E0,1.599664139E0
1.562646688E1,1.394333915E0,9.555109052E-1,1.791925430E0,2.463364549E0
1.563645188E1,2.050724218E0,1.198730518E0,2.618791305E0,3.535603565E0
1.564643787E1,2.426955708E0,1.539070336E0,3.688170449E0,4.675623249E0
1.565642288E1,2.269977994E0,1.760033985E0,4.862008347E0,5.647091719E0
1.566640754E1,1.929798389E0,1.960738346E0,5.748972489E0,6.373327339E0
1.567639354E1,1.643504824E0,2.045370946E0,6.667758349E0,7.165448472E0
1.568637854E1,1.487029679E0,2.201611033E0,7.589765439E0,8.041323761E0
1.569636454E1,1.422190927E0,2.288584857E0,8.606589224E0,9.018515718E0
1.570634954E1,1.686294748E0,2.241472525E0,9.757048784E0,1.015223079E1
1.571633554E1,2.406572606E0,2.115127790E0,1.089402934E1,1.135540544E1
1.572632054E1,3.364383221E0,1.927151501E0,1.161146633E1,1.224169669E1
1.573630654E1,3.887445897E0,1.787087443E0,1.215948843E1,1.289027060E1
1.574629154E1,3.849407421E0,1.380718381E0,1.278300861E1,1.342123802E1
1.575627754E1,3.334219190E0,1.072918610E0,1.291396285E1,1.338053095E1
1.576626254E1,2.176418450E0,5.268055520E-1,1.323973346E1,1.342776465E1
1.577624854E1,8.665117514E-1,-3.800076216E-1,1.367973176E1,1.371241443E1
1.578623354E1,-4.141951221E-1,-1.283628873E0,1.352798482E1,1.359505917E1
1.579621954E1,-1.414868167E0,-2.288210489E0,1.293760782E1,1.321436549E1
1.580620454E1,-2.322402083E0,-3.324309329E0,1.213492779E1,1.279457136E1
1.581619054E1,-3.007037361E0,-4.491043737E0,1.120567892E1,1.244102036E1
1.582617554E1,-3.141818898E0,-5.403831815E0,1.027350294E1,1.202569278E1
1.583616154E1,-3.439231090E0,-6.013185360E0,9.787186503E0,1.199065171E1
1.584614654E1,-4.502604559E0,-6.560804003E0,9.633411164E0,1.249480723E1
1.585613254E1,-5.513230296E0,-7.067940034E0,9.445493932E0,1.302186009E1
1.586611754E1,-5.862475131E0,-7.665402097E0,9.243596592E0,1.336304913E1
1.587610354E1,-5.847647177E0,-8.238045654E0,8.893550688E0,1.345940628E1
1.588608854E1,-6.089992631E0,-8.762858986E0,8.349696482E0,1.354965458E1
1.589607354E1,-6.957476190E0,-9.004030319E0,7.915764084E0,1.386139812E1
1.590605954E1,-7.763186254E0,-8.957387080E0,7.699244612E0,1.413436280E1
1.591604454E1,-7.983292408E0,-8.733504794E0,7.129885436E0,1.381456948E1
1.592603054E1,-7.645197043E0,-8.453805572E0,6.390751185E0,1.306742389E1
1.593601554E1,-7.193646984E0,-8.508432600E0,6.165182562E0,1.273387051E1
1.594600154E1,-7.238046647E0,-9.137431036E0,5.898492810E0,1.306423295E1
1.595598654E1,-7.543864211E0,-1.021498985E1,4.908218892E0,1.361420279E1
1.596597254E1,-7.856412506E0,-1.140344579E1,3.699743843E0,1.433352357E1
1.597595754E1,-8.677017767E0,-1.214214676E1,2.240674088E0,1.509115588E1
1.598594354E1,-9.511857491E0,-1.239251401E1,1.027123656E0,1.565582382E1
1.599592854E1,-9.822929363E0,-1.234347224E1,4.836267149E-1,1.578243147E1
1.600591454E1,-9.912060810E0,-1.203683490E1,-1.145294130E-2,1.559276996E1
1.601589954E1,-9.895214982E0,-1.167408533E1,-5.221177661E-1,1.531248363E1
1.602588554E1,-9.649816112E0,-1.166182021E1,-7.571854833E-1,1.515553798E1
1.603587054E1,-9.189413953E0,-1.163301449E1,-8.241159296E-1,1.484760998E1
1.604585654E1,-8.646626279E0,-1.182663802E1,-8.311995390E-1,1.467393627E1
1.605584154E1,-7.993011650E0,-1.160038352E1,-1.139889841E0,1.413352334E1
1.606582754E1,-7.537264459E0,-1.127646181E1,-1.272730102E0,1.362309760E1
1.607581254E1,-6.901109616E0,-1.140617059E1,-1.363165186E0,1.340090522E1
1.608579854E1,-6.272442716E0,-1.122611377E1,-1.877511710E0,1.299593083E1
1.609578354E1,-6.223500937E0,-1.131862140E1,-2.163033004E0,1.309663568E1
1.610576854E1,-6.465154665E0,-1.201369630E1,-2.154663592E0,1.381194044E1
1.611575454E1,-6.875704633E0,-1.264341920E1,-2.511432917E0,1.460953999E1
1.612573954E1,-7.660132586E0,-1.326142897E1,-3.081311325E0,1.562170314E1
1.613572554E1,-8.169904541E0,-1.400713607E1,-3.519115165E0,1.659311221E1
1.614571054E1,-7.951907478E0,-1.426605780E1,-3.914006875E0,1.679501972E1
1.615569654E1,-7.412384305E0,-1.371626048E1,-3.883791972E0,1.606745415E1
1.616568154E1,-6.854615480E0,-1.327885835E1,-3.221376699E0,1.528695850E1
1.617566754E1,-6.033224353E0,-1.302966288E1,-2.455656327E0,1.456716029E1
1.618565254E1,-4.608266085E0,-1.271805891E1,-2.180032030E0,1.370173998E1
1.619563854E1,-3.375923871E0,-1.258288181E1,-2.265366295E0,1.322337555E1
1.620562354E1,-2.484623433E0,-1.210209918E1,-2.389471693E0,1.258347063E1
1.621560954E1,-2.132324013E0,-1.163350332E1,-2.467865313E0,1.208203478E1
1.622559454E1,-2.234352663E0,-1.173856375E1,-2.627598966E0,1.223480638E1
1.623558054E1,-2.222431945E0,-1.194622761E1,-2.879598173E0,1.248773973E1
1.624556554E1,-1.849082255E0,-1.172483332E1,-3.044910654E0,1.225407289E1
1.625555154E1,-1.140671029E0,-1.139061934E1,-3.091642771E0,1.185772298E1
1.626553654E1,-9.712342143E-2,-1.122432452E1,-3.070734882E0,1.163719496E1
1.627552254E1,1.349975329E0,-1.086495231E1,-3.178993741E0,1.140068521E1
1.628550754E1,2.636995149E0,-1.047988743E1,-3.561396382E0,1.137828318E1
1.629549354E1,3.338077475E0,-1.003728712E1,-4.108355459E0,1.134761995E1
1.630547854E1,3.309350397E0,-9.611527959E0,-4.466359423E0,1.110322639E1
1.631546454E1,2.678488453E0,-9.544042320E0,-4.484064792E0,1.087979234E1
1.632544954E1,2.013177346E0,-9.436860518E0,-4.390049166E0,1.060093162E1
1.633543454E1,1.741241180E0,-9.208584634E0,-4.254365112E0,1.029220940E1
1.634542054E1,2.323584682E0,-8.917919544E0,-4.001397606E0,1.004686606E1
1.635540554E1,2.847337622E0,-8.511418188E0,-3.904981990E0,9.787770709E0
1.636539154E1,2.809534204E0,-8.180355270E0,-3.972324080E0,9.517933251E0
1.637537654E1,2.285304423E0,-7.669515613E0,-4.403255103E0,9.134152481E0
1.638536254E1,1.573751196E0,-7.529785870E0,-4.570907055E0,8.948047797E0
1.639534754E1,7.731618306E-1,-7.721268734E0,-4.595154873E0,9.018382249E0
1.640533354E1,-2.199927181E-1,-7.730897344E0,-5.172772656E0,9.304447727E0
1.641531854E1,-3.448728722E-1,-7.737029319E0,-5.327220426E0,9.399991354E0
1.642530454E1,4.616622341E-1,-7.978936817E0,-5.012925568E0,9.434298463E0
1.643528954E1,1.895451552E0,-8.089408847E0,-4.994397495E0,9.694084713E0
1.644527554E1,3.433853990E0,-8.114705071E0,-5.071548582E0,1.016663153E1
1.645526054E1,4.151776005E0,-8.353260945E0,-5.137967105E0,1.064955015E1
1.646524654E1,4.158157656E0,-8.143994359E0,-5.602748829E0,1.072407169E1
1.647523154E1,4.577388108E0,-7.897350617E0,-5.721430349E0,1.077290090E1
1.648521754E1,5.586636826E0,-7.832978035E0,-4.530891634E0,1.063461494E1
1.649520254E1,6.470801321E0,-7.555263358E0,-3.217611676E0,1.045496528E1
1.650518854E1,7.463231108E0,-7.699676721E0,-1.834714769E0,1.087892543E1
1.651517354E1,8.463572761E0,-8.158176781E0,-1.985287589E-1,1.175701178E1
1.652515954E1,9.129806852E0,-8.824741824E0,1.170854648E0,1.275148391E1
1.653514454E1,9.532322745E0,-9.081206549E0,2.219596630E0,1.335140811E1
