"Time (s)","Linear Acceleration x (m/s^2)","Linear Acceleration y (m/s^2)","Linear Acceleration z (m/s^2)","Absolute acceleration (m/s^2)"
-5.700000329E-4,1.825316539E-1,1.483406451E-1,-3.092130429E-1,3.885041281E-1
9.414999979E-3,1.923675478E-1,2.704565281E-1,-1.745347095E-1,3.749858288E-1
1.940100000E-2,2.177466564E-1,3.528104675E-1,-2.328296953E-1,4.754981592E-1
2.938599995E-2,2.359797366E-1,3.558007336E-1,-3.379562008E-1,5.445135368E-1
3.937199997E-2,2.433751488E-1,3.977518746E-1,-4.424395126E-1,6.427991437E-1
4.935699998E-2,1.750909258E-1,5.192172548E-1,-6.766093898E-1,8.706570257E-1
5.934300000E-2,2.681386918E-3,6.578582463E-1,-1.011690515E0,1.206773533E0
6.932799995E-2,-3.519789934E-2,8.804085365E-1,-1.363487075E0,1.623408478E0
7.931299997E-2,-1.579778798E-1,9.410581961E-1,-1.667001421E0,1.920791836E0
8.929899998E-2,5.742550492E-2,7.716149497E-1,-1.787786186E0,1.948041777E0
9.928400000E-2,2.917098413E-1,6.896703154E-1,-1.670955893E0,1.831074377E0
1.092700000E-1,2.330413646E-1,5.760574535E-1,-1.498449583E0,1.622190377E0
1.192550000E-1,1.956108521E-1,6.001368722E-1,-1.293679506E0,1.439456333E0
1.292410000E-1,3.746094722E-1,4.514971420E-1,-8.488981837E-1,1.031896338E0
1.392260000E-1,5.364671257E-1,6.607251361E-1,-1.838697892E-1,8.707254342E-1
1.492110000E-1,3.861739491E-1,6.653581774E-1,-3.721150500E-1,8.545767570E-1
1.591970000E-1,5.010571186E-1,6.329321507E-1,-5.133375871E-1,9.566487453E-1
1.691820000E-1,6.281223772E-1,5.738331726E-1,-6.753861523E-1,1.086263635E0
1.791680000E-1,6.966143225E-1,3.437557617E-1,-8.039097065E-1,1.117904448E0
1.891530000E-1,7.724389686E-1,1.403121257E-1,-8.014363343E-1,1.121895561E0
1.991390000E-1,8.553149182E-1,-5.264599085E-2,-5.857600307E-1,1.038002901E0
2.091240000E-1,8.154787150E-1,-1.742669070E-1,-3.346987170E-1,8.985531262E-1
2.191090000E-1,7.788362610E-1,-1.009572946E-1,-2.527809799E-1,8.250312240E-1
2.290950000E-1,7.671852453E-1,1.313708559E-2,-2.826362783E-1,8.176974070E-1
2.390800000E-1,7.460118927E-1,6.555254996E-2,-4.059300828E-1,8.518275136E-1
2.490660000E-1,7.732156250E-1,8.003917292E-2,-6.056890959E-1,9.854582451E-1
2.590510000E-1,8.685810810E-1,-7.294474617E-2,-6.716433495E-1,1.100390303E0
2.690370000E-1,9.459701496E-1,-4.264482549E-1,-4.789325702E-1,1.142844716E0
2.790220000E-1,1.219112011E0,-9.656087543E-1,-4.538491845E-2,1.555858012E0
2.890070000E-1,1.626261093E0,-1.926987048E0,4.612272012E-1,2.563344447E0
2.989930000E-1,1.486550938E0,-2.671227965E0,8.715333402E-1,3.178814700E0
3.089780000E-1,1.479661310E-1,-1.988459119E0,2.686105621E0,3.345299247E0
3.189640000E-1,-7.472741604E-2,5.495431079E-1,3.013056777E0,3.063673115E0
3.289490000E-1,1.805684513E-1,1.017800855E0,-1.269881338E0,1.637413253E0
3.389349999E-1,-1.084569187E0,3.843753456E-1,-2.351444911E0,2.617886150E0
3.489200000E-1,-7.509901390E-1,3.999977902E-1,-3.019130865E0,3.136739645E0
3.589050000E-1,-9.458184875E-1,-8.236183316E-2,-3.800648074E0,3.917433071E0
3.688910000E-1,-1.182237715E0,-5.059953846E-1,-2.901042836E0,3.173289600E0
3.788760000E-1,-8.274564439E-1,-4.546941072E-1,-1.716909161E0,1.959389692E0
3.888620000E-1,-6.221916926E-1,-4.053421453E-1,-6.418412608E-1,9.815217578E-1
3.988470000E-1,1.133722490E-1,-3.745222025E-1,1.042722273E-1,4.049602997E-1
4.088330000E-1,-5.798044954E-1,-1.566809674E-1,-5.880661726E-1,8.405617180E-1
4.188180000E-1,-2.444865583E0,-6.273841663E-1,-1.779505359E0,3.088303407E0
4.288040000E-1,-1.081885023E0,-1.093521128E0,-2.453555422E0,2.895893277E0
4.387890000E-1,-4.042580715E-1,-1.030388302E0,-3.340223111E0,3.518837176E0
4.487739166E-1,-1.538257720E-1,-1.555882251E0,-4.086906118E0,4.375755199E0
4.587599167E-1,-8.501047567E-1,-3.410249950E0,-4.477426448E0,5.692084892E0
4.687449167E-1,2.893914496E0,-1.147730080E0,-5.000277455E0,5.890229204E0
4.787309166E-1,5.719976732E0,-6.894256825E-1,-3.528603442E0,6.756070147E0
4.887159166E-1,7.553424994E0,-1.066367244E0,-6.464050126E-1,7.655665071E0
4.987019167E-1,8.887228678E0,-5.818537618E-1,2.789058132E0,9.332750540E0
5.086869167E-1,8.847731906E0,-3.845806925E-2,5.291850033E0,1.030958368E1
5.186719166E-1,7.854426792E0,-1.036930606E-1,6.371769953E0,1.011445623E1
5.286579166E-1,7.092888349E0,-7.254074925E-2,5.448160726E0,8.944092049E0
5.386429167E-1,7.405133173E0,8.503698913E-2,3.691557156E0,8.274709834E0
5.486289167E-1,8.261750851E0,8.035247404E-2,2.969013210E0,8.779409039E0
5.586139166E-1,8.882831572E0,1.941327856E-1,3.554675592E0,9.569644865E0
5.685999166E-1,9.358906024E0,4.948558906E-1,4.835771306E0,1.054602714E1
5.785849167E-1,9.726612858E0,7.104645491E-1,6.204165949E0,1.155869511E1
5.885699167E-1,9.607037297E0,8.095763893E-1,7.504150507E0,1.221731781E1
5.985559166E-1,8.609630361E0,8.342598255E-1,9.021286038E0,1.249821292E1
6.085409166E-1,7.538016411E0,1.175914098E0,1.041005764E1,1.290634594E1
6.185269167E-1,6.737807992E0,1.479420404E0,1.155841337E1,1.346044802E1
6.285119167E-1,6.215973231E0,1.855238496E0,1.245350515E1,1.404172438E1
6.384979166E-1,6.191953454E0,2.132021273E0,1.292561402E1,1.448990338E1
6.484829166E-1,6.805753223E0,2.210309205E0,1.310771268E1,1.493371606E1
6.584679167E-1,7.454426370E0,2.158878558E0,1.314568918E1,1.526559443E1
6.684539166E-1,7.983597633E0,2.147160153E0,1.311464280E1,1.550296693E1
6.784389166E-1,8.278768002E0,1.936992365E0,1.337820605E1,1.585138278E1
6.884249166E-1,8.200576696E0,1.569898465E0,1.408597876E1,1.637464006E1
6.984099167E-1,7.310695378E0,1.042999796E0,1.474717138E1,1.649282205E1
7.083959166E-1,5.555768205E0,9.071953258E-2,1.536102845E1,1.633511510E1
7.183809166E-1,3.560766052E0,-7.489077263E-1,1.595671705E1,1.636632936E1
7.283669166E-1,1.415789250E0,-1.573819023E0,1.657876608E1,1.671337339E1
7.383519167E-1,-6.422989516E-1,-2.466982968E0,1.699678820E1,1.718689507E1
7.483369167E-1,-1.631569195E0,-3.154069692E0,1.691683454E1,1.728552761E1
7.583229166E-1,-1.913769125E0,-3.943569812E0,1.650048706E1,1.707279498E1
7.683079166E-1,-2.443143286E0,-4.761256728E0,1.561363518E1,1.650527547E1
7.782939167E-1,-3.208045047E0,-5.545399337E0,1.420731433E1,1.558495388E1
7.882789166E-1,-3.737952766E0,-6.173265168E0,1.271363140E1,1.461909426E1
7.982649166E-1,-4.448752288E0,-6.592730970E0,1.165782072E1,1.411241590E1
8.082499166E-1,-5.018087490E0,-7.133876161E0,1.145427680E1,1.439700831E1
8.182349167E-1,-5.518593362E0,-7.953794374E0,1.113405404E1,1.475414779E1
8.282209166E-1,-6.157280050E0,-8.742188494E0,1.030728230E1,1.485186944E1
8.382059166E-1,-6.641770983E0,-9.364387203E0,9.772816386E0,1.507689655E1
8.481919167E-1,-7.337109005E0,-9.784859312E0,9.010169896E0,1.519078016E1
8.581769167E-1,-8.168951445E0,-1.032914855E1,7.907842276E0,1.536089343E1
8.681629166E-1,-9.211301250E0,-1.108811129E1,7.000148000E0,1.602486676E1
8.781479166E-1,-1.032238449E1,-1.184464861E1,5.884405698E0,1.677717356E1
8.881329166E-1,-1.107301846E1,-1.268841587E1,4.424890385E0,1.741227412E1
8.981189167E-1,-1.163146147E1,-1.311889607E1,3.039528292E0,1.779424239E1
9.081039166E-1,-1.175933423E1,-1.307237679E1,2.002027583E0,1.769681019E1
9.180899166E-1,-1.120171802E1,-1.282708142E1,1.297560303E0,1.707911493E1
9.280749167E-1,-1.048731573E1,-1.260129235E1,6.338732600E-1,1.640664974E1
9.380609167E-1,-9.634733804E0,-1.244065764E1,1.265337467E-2,1.573525399E1
9.480459166E-1,-8.569062379E0,-1.240876225E1,-3.025068712E-1,1.508302758E1
9.580319166E-1,-7.710400515E0,-1.252812030E1,-4.312660682E-1,1.471699917E1
9.680169167E-1,-7.296524650E0,-1.263273283E1,-5.631336451E-1,1.459939486E1
9.780019167E-1,-7.043341967E0,-1.297122347E1,-6.645851755E-1,1.477507962E1
9.879879166E-1,-7.555553965E0,-1.386411318E1,-8.880508474E-1,1.581419186E1
9.979729166E-1,-8.578556503E0,-1.444934462E1,-1.804826726E0,1.690066836E1
1.007958917E0,-9.121537135E0,-1.469356060E1,-3.274624660E0,1.760188426E1
1.017943917E0,-9.456876122E0,-1.479558165E1,-4.623467968E0,1.815814413E1
1.027929917E0,-9.113859740E0,-1.512591893E1,-5.499637274E0,1.849599613E1
1.037914917E0,-7.979066041E0,-1.545465173E1,-5.969602554E0,1.838879848E1
1.047899917E0,-6.400941712E0,-1.541091923E1,-6.076537018E0,1.775930147E1
1.057885917E0,-4.872643263E0,-1.534105904E1,-5.677953377E0,1.706838889E1
1.067870917E0,-3.827180692E0,-1.551809870E1,-5.089481993E0,1.677383457E1
1.077856917E0,-3.252188601E0,-1.548650385E1,-4.783066843E0,1.653137201E1
1.087841917E0,-3.010925759E0,-1.544741522E1,-4.577444826E0,1.639028102E1
1.097827917E0,-2.777370425E0,-1.574391934E1,-4.147821241E0,1.651633142E1
1.107812917E0,-2.238854434E0,-1.571259346E1,-3.805067400E0,1.632104777E1
1.117797917E0,-1.184437438E0,-1.506885478E1,-3.795951006E0,1.558468865E1
1.127783917E0,1.421621847E-1,-1.478495375E1,-3.810200086E0,1.526868338E1
1.137768917E0,1.332350067E0,-1.523810361E1,-3.779136168E0,1.575616795E1
1.147754917E0,2.647775368E0,-1.588664870E1,-4.215951828E0,1.664844050E1
1.157739917E0,4.604948082E0,-1.626366430E1,-5.219525238E0,1.769055587E1
1.167725917E0,6.476847927E0,-1.635501418E1,-6.246701519E0,1.866701175E1
1.177710917E0,7.314371522E0,-1.622478850E1,-7.196738407E0,1.919731326E1
1.187695917E0,6.762156383E0,-1.612140505E1,-7.960816880E0,1.920940044E1
1.197681917E0,5.306065199E0,-1.660416755E1,-8.163422318E0,1.924822516E1
1.207666917E0,3.510101975E0,-1.687628995E1,-7.896823198E0,1.896021611E1
1.217652917E0,2.363247808E0,-1.683424145E1,-7.410464079E0,1.854431458E1
1.227637917E0,2.372893375E0,-1.684106398E1,-6.759964846E0,1.830161697E1
1.237623917E0,3.046354624E0,-1.662881473E1,-5.832631527E0,1.788343777E1
1.247608917E0,3.713354699E0,-1.654326997E1,-4.532901907E0,1.755038416E1
1.257594917E0,4.261128878E0,-1.641411316E1,-3.500740290E0,1.731575909E1
1.267579917E0,5.061703041E0,-1.591130758E1,-3.661650110E0,1.709380672E1
1.277564917E0,6.363917727E0,-1.568625760E1,-4.103778843E0,1.741835604E1
1.287550917E0,7.900147340E0,-1.573367384E1,-4.031054683E0,1.806129072E1
1.297535917E0,9.553665667E0,-1.525715150E1,-3.938503785E0,1.842728986E1
1.307521917E0,1.114659164E1,-1.424003067E1,-3.900178794E0,1.849963171E1
1.317506917E0,1.241427735E1,-1.340286142E1,-3.464001065E0,1.859436150E1
1.327492917E0,1.316575916E1,-1.283384898E1,-2.762764957E0,1.859241147E1
1.337477917E0,1.348255312E1,-1.225835432E1,-2.240341966E0,1.835934698E1
1.347462917E0,1.458109174E1,-1.175597676E1,-1.238237377E0,1.877084063E1
1.357448917E0,1.673502824E1,-1.141646637E1,8.623187131E-1,2.027659902E1
1.367433917E0,1.861399590E1,-1.063038891E1,3.428909000E0,2.170814199E1
1.377419917E0,1.989006418E1,-9.462318710E0,5.771116480E0,2.276962700E1
1.387404917E0,2.053770646E1,-8.811228908E0,7.919306912E0,2.370971454E1
1.397390917E0,1.997494704E1,-8.879379376E0,1.018628236E1,2.411643082E1
1.407375917E0,1.800875763E1,-7.802103567E0,1.148008173E1,2.273720405E1
1.417360917E0,1.524877594E1,-7.107670695E0,1.197534324E1,2.065073839E1
1.427346917E0,1.286561340E1,-7.727669681E0,1.268856555E1,1.965300442E1
1.437331917E0,1.180040156E1,-7.227425764E0,1.396746622E1,1.966151756E1
1.447317542E0,1.053309943E1,-7.156296140E0,1.704412258E1,2.127582837E1
1.457302542E0,8.710564998E0,-7.476963294E0,2.085561022E1,2.380620508E1
1.467288542E0,6.796750265E0,-7.132787994E0,2.367220699E1,2.564070713E1
1.477273542E0,4.526553293E0,-6.331028309E0,2.489063341E1,2.607901907E1
1.487258542E0,1.935448846E0,-5.099278418E0,2.330346052E1,2.393323786E1
1.497244542E0,-1.954736179E0,-5.190732964E0,2.101380313E1,2.173349085E1
1.507229542E0,-8.716699896E0,-5.764609113E0,1.973186191E1,2.232841127E1
1.517215542E0,-1.779177915E1,-5.801092815E0,1.881938754E1,2.653995913E1
1.527200542E0,-2.569132306E1,-5.117403032E0,1.829327846E1,3.195114914E1
1.537186542E0,-2.872086372E1,-3.696564127E0,1.808698051E1,3.414222405E1
1.547171542E0,-2.650091684E1,-1.868225747E0,1.722620488E1,3.166276986E1
1.557157542E0,-2.209972464E1,-7.066538456E-1,1.566260445E1,2.709639029E1
1.567142542E0,-1.739261312E1,7.233385831E-2,1.320963433E1,2.184039062E1
1.577127542E0,-1.376641088E1,7.624566020E-1,1.017857105E1,1.713764037E1
1.587113542E0,-1.123759536E1,9.586461823E-1,7.278377817E0,1.342301515E1
1.597098542E0,-8.708955259E0,1.242091423E0,4.694522456E0,9.971320570E0
1.607084542E0,-6.133265535E0,1.339286326E0,2.561179858E0,6.780138366E0
1.617069542E0,-3.960217712E0,1.353221265E0,7.671868533E-1,4.254774705E0
1.627055542E0,-2.361906018E0,1.219333475E0,-7.149905133E-1,2.752559826E0
1.637040542E0,-1.440849539E0,9.728690227E-1,-1.531594525E0,2.316959930E0
1.647025542E0,-1.312040056E0,7.470230225E-1,-1.205867191E0,1.932254690E0
1.657011542E0,-1.294267005E0,4.073291022E-1,-5.206425136E-1,1.453310946E0
1.666996542E0,-9.034209115E-1,2.715848214E-1,-2.942529416E-1,9.881864461E-1
1.676982542E0,-7.088383654E-1,9.707002904E-2,-2.070101452E-1,7.448003887E-1
1.686967542E0,-6.142555591E-1,-2.172037424E-1,-2.086479503E-1,6.841208408E-1
1.696953542E0,-2.375880133E-1,-5.179340468E-1,-6.559084922E-1,8.688611460E-1
1.706938542E0,5.013386621E-1,-6.867082621E-1,-1.310312496E0,1.561994727E0
1.716923542E0,1.497976251E0,-5.792610698E-1,-1.941981940E0,2.520073430E0
1.726909542E0,2.490877908E0,-5.236679361E-1,-2.413578009E0,3.507714308E0
1.736894542E0,3.598817977E0,-4.822589416E-1,-2.783885685E0,4.575378020E0
1.746880542E0,5.093549316E0,-1.627403090E-1,-2.884275361E0,5.855747040E0
1.756865542E0,6.837406540E0,2.468385277E-1,-2.539770863E0,7.298047238E0
1.766851542E0,8.488307653E0,6.732047754E-1,-1.856429574E0,8.714981483E0
1.776836542E0,9.940318065E0,1.311434430E0,-6.751826692E-1,1.004916191E1
1.786822542E0,1.135543664E1,2.038084438E0,1.348220580E0,1.161539617E1
1.796807542E0,1.255473799E1,2.614135752E0,3.477501701E0,1.328714303E1
1.806792542E0,1.313763523E1,3.043773955E0,4.841151329E0,1.432825060E1
1.816778542E0,1.291139359E1,3.313299899E0,5.360018043E0,1.436703985E1
1.826763542E0,1.204630154E1,3.261551163E0,5.384804975E0,1.359217501E1
1.836749542E0,1.104673990E1,3.194439746E0,5.434148458E0,1.271868221E1
1.846734542E0,1.049388566E1,3.075058605E0,5.974696648E0,1.246092379E1
1.856720542E0,1.058044200E1,3.066049215E0,7.271485704E0,1.319927706E1
1.866705542E0,1.122959754E1,2.926726146E0,9.212594655E0,1.481693245E1
1.876690542E0,1.180935014E1,2.683901221E0,1.090744403E1,1.629835610E1
1.886676542E0,1.139376280E1,2.471832941E0,1.234290155E1,1.697866330E1
1.896661542E0,9.850569152E0,2.056194434E0,1.367613806E1,1.697935218E1
1.906647542E0,7.831599846E0,1.686564305E0,1.457162159E1,1.662860822E1
1.916632542E0,5.768869979E0,1.305994473E0,1.519337475E1,1.630411355E1
1.926618542E0,4.121223426E0,9.658809422E-1,1.548473449E1,1.605286300E1
1.936603542E0,2.985506451E0,7.087425441E-1,1.537815378E1,1.568130028E1
1.946588542E0,2.479649792E0,3.914893605E-1,1.511286326E1,1.531994005E1
1.956574542E0,2.661481534E0,7.606131211E-3,1.513463830E1,1.536687405E1
1.966559542E0,3.189917217E0,-1.072204665E0,1.535780781E1,1.572219626E1
1.976545542E0,3.280227170E0,-2.271141151E0,1.557837530E1,1.608116132E1
1.986530542E0,2.682443217E0,-3.591504572E0,1.582859637E1,1.645110543E1
1.996516542E0,1.356279212E0,-5.453192840E0,1.533402835E1,1.633123482E1
2.006501542E0,-6.528705713E-1,-7.465116835E0,1.419483403E1,1.605140251E1
2.016487542E0,-2.961138472E0,-9.426226187E0,1.324163848E1,1.652159408E1
2.026472542E0,-5.458289273E0,-1.099190589E1,1.231272992E1,1.738442507E1
2.036457542E0,-7.658264401E0,-1.198364629E1,1.118138374E1,1.809088539E1
2.046443542E0,-9.286288283E0,-1.251733569E1,9.748839294E0,1.838365335E1
2.056428542E0,-1.037263078E1,-1.298118128E1,8.045707927E0,1.846174295E1
2.066414542E0,-1.072227206E1,-1.348131000E1,6.359227676E0,1.836171599E1
2.076399542E0,-1.080145155E1,-1.374559012E1,4.889304904E0,1.815262806E1
2.086385542E0,-1.078325969E1,-1.411410387E1,3.879324700E0,1.818064294E1
2.096370542E0,-1.058816500E1,-1.445288920E1,2.870123345E0,1.814477480E1
2.106355542E0,-1.066425248E1,-1.439162909E1,1.308053132E0,1.795985167E1
2.116341542E0,-1.092148553E1,-1.407507604E1,-3.449395305E-1,1.781868668E1
2.126326542E0,-1.105791276E1,-1.345357315E1,-1.733315864E0,1.750086995E1
2.136312542E0,-1.087319922E1,-1.264526926E1,-2.725583682E0,1.689846450E1
2.146297542E0,-1.044981520E1,-1.214736014E1,-3.091973723E0,1.631923091E1
2.156283542E0,-9.901818827E0,-1.218148917E1,-3.203215832E0,1.602171296E1
2.166268542E0,-9.311129594E0,-1.224874384E1,-3.590102702E0,1.579929421E1
2.176253542E0,-8.664854389E0,-1.206462554E1,-4.250245163E0,1.544990211E1
2.186239542E0,-8.171725949E0,-1.179927890E1,-4.855520861E0,1.515177119E1
2.196224542E0,-7.798442041E0,-1.191435678E1,-5.444657659E0,1.524506126E1
2.206210542E0,-7.773366841E0,-1.246710343E1,-6.273661276E0,1.597537874E1
2.216195542E0,-8.052724586E0,-1.323669057E1,-7.180186694E0,1.707663408E1
2.226181542E0,-8.488476638E0,-1.391809818E1,-7.860654076E0,1.809855174E1
2.236166542E0,-8.424982892E0,-1.410819233E1,-7.995678565E0,1.827436191E1
2.246152542E0,-7.605846452E0,-1.432291846E1,-7.182001085E0,1.773629141E1
2.256137542E0,-6.559783664E0,-1.472160852E1,-5.813585392E0,1.713342623E1
2.266122542E0,-5.517351998E0,-1.517093898E1,-4.453555775E0,1.674612557E1
2.276108542E0,-4.626004491E0,-1.554045143E1,-3.167082085E0,1.652077351E1
2.286093542E0,-3.662599990E0,-1.568302409E1,-1.969991273E0,1.622506545E1
2.296079542E0,-2.873461812E0,-1.586053737E1,-8.421309087E-1,1.614071290E1
2.306064542E0,-2.102796889E0,-1.611621974E1,-1.738339207E-1,1.625375377E1
2.316050542E0,-8.601172364E-1,-1.633434895E1,-1.730734903E-1,1.635789448E1
2.326035542E0,1.728442794E-1,-1.656253771E1,-6.007502452E-1,1.657433050E1
2.336020542E0,8.471951091E-1,-1.697121833E1,-1.477271260E0,1.705644516E1
2.346006542E0,1.503671878E0,-1.741673172E1,-2.523920523E0,1.766277860E1
2.355991542E0,2.018726353E0,-1.766544187E1,-3.358617282E0,1.809484464E1
2.365977542E0,2.613563309E0,-1.804620787E1,-4.183625204E0,1.870826159E1
2.375962542E0,3.538807711E0,-1.830330293E1,-5.191883111E0,1.935173657E1
2.385948542E0,5.077308674E0,-1.833304888E1,-5.690608506E0,1.985605122E1
2.395933542E0,6.873003804E0,-1.822323584E1,-5.728530623E0,2.030124550E1
2.405918542E0,8.968772779E0,-1.748552772E1,-5.825775667E0,2.049688335E1
2.415904542E0,1.047214806E1,-1.653356242E1,-5.780731641E0,2.040689662E1
2.425889542E0,1.069051583E1,-1.586669800E1,-5.536298731E0,1.991707403E1
2.435875542E0,1.045855445E1,-1.509019361E1,-5.525762633E0,1.917366311E1
2.445860750E0,9.811998578E0,-1.475445233E1,-5.713367039E0,1.861751172E1
2.455846750E0,8.731008618E0,-1.474832211E1,-5.920675977E0,1.813278579E1
2.465831750E0,8.211974673E0,-1.441113424E1,-6.012421714E0,1.764274732E1
2.475817750E0,7.875604237E0,-1.406763020E1,-5.795735012E0,1.713224754E1
2.485802750E0,7.415059991E0,-1.327478401E1,-5.217001580E0,1.607545056E1
2.495787750E0,7.554752312E0,-1.245146447E1,-4.755012487E0,1.532068516E1
2.505773750E0,8.469397173E0,-1.188411030E1,-4.697951848E0,1.533080291E1
2.515758750E0,9.416840236E0,-1.101443053E1,-5.114777632E0,1.536735209E1
2.525744750E0,1.069339149E1,-1.029772094E1,-5.160748442E0,1.571702906E1
2.535729750E0,1.201656377E1,-9.995015259E0,-4.088001886E0,1.615580064E1
2.545715750E0,1.255203775E1,-9.324627891E0,-2.772975365E0,1.588054562E1
2.555700750E0,1.294748260E1,-9.146257408E0,-1.434971625E0,1.591698696E1
2.565685750E0,1.281157694E1,-9.467200550E0,1.728448641E-1,1.593092167E1
2.575671750E0,1.223278328E1,-9.249394106E0,1.601386891E0,1.541936179E1
2.585656750E0,1.268093026E1,-9.195220238E0,3.000630274E0,1.594872564E1
2.595642750E0,1.339924199E1,-9.069406868E0,4.233447282E0,1.672470935E1
2.605627750E0,1.468195388E1,-7.892127299E0,5.104756089E0,1.743284193E1
2.615613750E0,1.620497931E1,-7.401093916E0,7.280116779E0,1.924519799E1
2.625598750E0,1.637096773E1,-7.777233605E0,1.150179829E1,2.146591043E1
2.635583750E0,1.506943365E1,-7.058506136E0,1.626456594E1,2.326900180E1
2.645569750E0,1.229944037E1,-6.467070213E0,2.050238928E1,2.476786621E1
2.655554750E0,8.516648523E0,-6.477660690E0,2.356045968E1,2.587641108E1
2.665540750E0,4.746858837E0,-6.244704110E0,2.426381189E1,2.550022678E1
2.675525750E0,1.770281084E0,-5.993842771E0,2.268748441E1,2.353257307E1
2.685511750E0,-1.298733108E-1,-5.495416753E0,2.093664328E1,2.164623533E1
2.695496750E0,-1.613994365E0,-4.130491848E0,1.932717846E1,1.982941673E1
2.705482750E0,-4.551584638E0,-3.321460565E0,1.828963448E1,1.913791400E1
2.715467750E0,-8.916025046E0,-2.925349127E0,1.815195828E1,2.043396093E1
2.725452750E0,-1.336456450E1,-2.121084202E0,1.803801592E1,2.254951443E1
2.735438750E0,-1.625034084E1,-1.516035961E0,1.719756171E1,2.370924020E1
2.745423750E0,-1.634576272E1,-8.213722698E-1,1.557978331E1,2.259620011E1
2.755409750E0,-1.462335191E1,-6.162965298E-3,1.415917070E1,2.035496436E1
2.765394750E0,-1.249365915E1,5.046135414E-1,1.284529900E1,1.792617807E1
2.775380750E0,-1.084908063E1,8.194555525E-1,1.132517145E1,1.570457151E1
2.785365750E0,-1.007747269E1,7.804861991E-1,9.567028894E0,1.391735091E1
2.795350750E0,-9.972549087E0,7.791777384E-1,7.107926803E0,1.227116444E1
2.805336750E0,-8.978862149E0,1.237702649E0,4.139673731E0,9.964375140E0
2.815321750E0,-7.296324091E0,1.603577404E0,1.975343814E0,7.727210940E0
2.825307750E0,-5.060699074E0,2.031879519E0,9.073890513E-1,5.528341920E0
2.835292750E0,-2.988941690E0,2.435352163E0,6.563160431E-1,3.910941490E0
2.845278750E0,-1.802785463E0,2.605155013E0,6.713667762E-1,3.238456641E0
2.855263750E0,-1.355172919E0,2.510885325E0,6.438796002E-1,2.924999094E0
2.865248750E0,-1.420915796E0,2.135599038E0,5.201881850E-1,2.617323193E0
2.875234750E0,-1.479989923E0,1.633779150E0,3.049510074E-1,2.225443686E0
2.885219750E0,-1.343438434E0,1.166567689E0,-7.157167375E-2,1.780682314E0
2.895205750E0,-1.341470700E0,6.260686889E-1,-4.718632865E-1,1.553756932E0
2.905190750E0,-1.360386150E0,1.790578962E-1,-8.568901581E-1,1.617706077E0
2.915176750E0,-1.126424434E0,-7.454841815E-2,-1.209439255E0,1.654428235E0
2.925161750E0,-7.731576645E-1,-5.939148501E-2,-1.392626089E0,1.593959707E0
2.935147750E0,-1.808971927E-1,-8.622647725E-2,-1.441335150E0,1.455199579E0
2.945132750E0,9.967942943E-1,-1.694027545E-1,-1.571630995E0,1.868775038E0
2.955117750E0,2.486946240E0,-7.165448494E-2,-1.750282729E0,3.041960815E0
2.965103750E0,3.603791034E0,2.644593313E-2,-1.593921166E0,3.940633691E0
2.975088750E0,4.547610286E0,1.250788133E-1,-1.132906219E0,4.688270525E0
2.985074750E0,5.460579627E0,2.747833946E-1,-3.797696400E-1,5.480662438E0
2.995059750E0,5.903052469E0,5.258300903E-1,5.940589839E-1,5.956125570E0
3.005045750E0,6.321474543E0,7.122898306E-1,1.518214926E0,6.540135608E0
3.015030750E0,7.244359301E0,9.106626881E-1,2.391299533E0,7.682991713E0
3.025015750E0,8.288403629E0,1.404250354E0,3.121131449E0,8.967218928E0
3.035001750E0,9.070912526E0,1.865020888E0,3.804600792E0,1.001173033E1
3.044986750E0,9.499331000E0,2.117077105E0,4.500011904E0,1.072237903E1
3.054972750E0,9.613500225E0,2.226184541E0,5.045660035E0,1.108304874E1
3.064957750E0,9.591197190E0,2.401131041E0,5.492553372E0,1.131037737E1
3.074943750E0,9.345971398E0,2.406451276E0,6.110419294E0,1.142258347E1
3.084928750E0,8.664555012E0,2.293672227E0,6.666609371E0,1.117045775E1
3.094914750E0,7.768824139E0,2.078769072E0,6.929916508E0,1.061600924E1
3.104899750E0,7.185093677E0,1.917721404E0,7.627506292E0,1.065279676E1
3.114884750E0,7.160098584E0,1.984193575E0,9.271278480E0,1.188110435E1
3.124870750E0,7.690398359E0,2.245932197E0,1.130938046E1,1.385960045E1
3.134855750E0,8.782081123E0,2.627317422E0,1.321570608E1,1.608361380E1
3.144841750E0,9.581909473E0,2.581652422E0,1.497659975E1,1.796598059E1
3.154826750E0,9.342315134E0,2.182592672E0,1.607927703E1,1.872393422E1
3.164812750E0,8.184732496E0,1.581951331E0,1.618336449E1,1.820422210E1
3.174797750E0,6.428195584E0,6.844932637E-1,1.571474758E1,1.699245482E1
3.184782750E0,4.923182502E0,-3.428348983E-1,1.504652426E1,1.583518721E1
3.194768750E0,3.829116413E0,-1.495902390E0,1.451096375E1,1.508203983E1
3.204753750E0,2.437561972E0,-2.495345765E0,1.440613370E1,1.482245415E1
3.214739750E0,8.878260219E-1,-3.637518359E0,1.439799788E1,1.487689880E1
3.224724750E0,-5.023859715E-1,-4.787166910E0,1.412846580E1,1.492591386E1
3.234710750E0,-2.021414026E0,-5.909631171E0,1.355289863E1,1.492283206E1
3.244695750E0,-3.489222445E0,-7.165344706E0,1.267878433E1,1.497559382E1
3.254680750E0,-4.642296880E0,-8.327334391E0,1.148590088E1,1.492720126E1
3.264666750E0,-5.955095612E0,-9.257219435E0,1.028196386E1,1.506247178E1
3.274651750E0,-6.703219373E0,-9.862623771E0,9.462191241E0,1.522292878E1
3.284637750E0,-7.255930356E0,-1.020743525E1,8.894997289E0,1.536102980E1
3.294622750E0,-8.099750233E0,-1.058223943E1,7.968472640E0,1.552695403E1
3.304608750E0,-8.714093208E0,-1.089963098E1,6.840087488E0,1.554104799E1
3.314593750E0,-8.905486025E0,-1.089500349E1,6.133304712E0,1.535012082E1
3.324579750E0,-8.628342621E0,-1.090282356E1,5.635456399E0,1.500260733E1
3.334564750E0,-7.986531181E0,-1.099587381E1,4.817257851E0,1.441873414E1
3.344549750E0,-7.386129137E0,-1.132680165E1,4.061149718E0,1.411893326E1
3.354535750E0,-7.430097275E0,-1.213727135E1,3.313839889E0,1.461168150E1
3.364520750E0,-8.122139221E0,-1.293819255E1,2.019525960E0,1.540923285E1
3.374506750E0,-9.311365821E0,-1.342964868E1,4.548402876E-1,1.634820715E1
3.384491750E0,-1.059431627E1,-1.375174139E1,-9.821895576E-1,1.738719715E1
3.394477750E0,-1.160349190E1,-1.376203483E1,-2.503819842E0,1.817426039E1
3.404462750E0,-1.202521297E1,-1.325266750E1,-3.872579936E0,1.830944615E1
3.414447750E0,-1.207604633E1,-1.354471487E1,-4.219761289E0,1.863052820E1
3.424433750E0,-1.164944049E1,-1.447909759E1,-4.271233159E0,1.906822392E1
3.434418750E0,-1.079698544E1,-1.502324533E1,-4.752611620E0,1.910131179E1
3.444404875E0,-9.769616205E0,-1.540606020E1,-5.290302275E0,1.899419358E1
3.454389875E0,-9.079571668E0,-1.595579086E1,-5.663987303E0,1.921214813E1
3.464375875E0,-9.033234823E0,-1.639385256E1,-6.046871170E0,1.967034275E1
3.474360875E0,-9.296058396E0,-1.672223687E1,-6.170290689E0,2.010279569E1
3.484345875E0,-9.467263116E0,-1.698942071E1,-6.327266795E0,2.045247643E1
3.494331875E0,-8.989887074E0,-1.720686229E1,-6.490671329E0,2.047005114E1
3.504316875E0,-7.567361832E0,-1.739020875E1,-6.338305753E0,1.999646082E1
3.514302875E0,-5.349543926E0,-1.736445995E1,-6.031346812E0,1.914469206E1
3.524287875E0,-3.494151648E0,-1.711582932E1,-5.780203053E0,1.840031132E1
3.534273875E0,-2.287443919E0,-1.710335838E1,-5.339315391E0,1.806282250E1
3.544258875E0,-1.544964622E0,-1.705458910E1,-4.661696772E0,1.774760101E1
3.554243875E0,-6.144046631E-1,-1.720102793E1,-4.031429490E0,1.767781884E1
3.564229875E0,9.278227311E-1,-1.713289969E1,-3.626975244E0,1.753716214E1
3.574214875E0,2.566024277E0,-1.715149266E1,-3.230774636E0,1.764075072E1
3.584200875E0,4.371776032E0,-1.696490333E1,-3.319193015E0,1.783079956E1
3.594185875E0,6.083745466E0,-1.600025425E1,-3.863053653E0,1.754831270E1
3.604171875E0,6.922898680E0,-1.540927500E1,-4.097700078E0,1.738284867E1
3.614156875E0,6.945425663E0,-1.533363074E1,-4.302447935E0,1.737441301E1
3.624142875E0,7.074601182E0,-1.516126418E1,-4.941670228E0,1.744517177E1
3.634127875E0,7.113054811E0,-1.510992796E1,-5.377927480E0,1.754501569E1
3.644112875E0,6.699507560E0,-1.506983243E1,-5.709434202E0,1.745224599E1
3.654098875E0,7.241997610E0,-1.478813580E1,-5.890948148E0,1.748824634E1
3.664083875E0,8.141128054E0,-1.448392038E1,-5.530059167E0,1.751123839E1
3.674069875E0,8.457529664E0,-1.406125205E1,-4.786359410E0,1.709262571E1
3.684054875E0,8.509865168E0,-1.363243480E1,-3.722212062E0,1.649593727E1
3.694040875E0,7.739249507E0,-1.298092868E1,-2.744432182E0,1.536009115E1
3.704025875E0,6.385812042E0,-1.228560586E1,-2.265474468E0,1.403022029E1
3.714010875E0,5.304536737E0,-1.197631622E1,-2.260014923E0,1.329202496E1
3.723996875E0,4.792428820E0,-1.158049948E1,-2.954880490E0,1.287659353E1
3.733981875E0,5.455818239E0,-1.087848627E1,-3.662190685E0,1.270901479E1
3.743967875E0,7.766098752E0,-1.065436016E1,-3.668933110E0,1.368534802E1
3.753952875E0,1.055554689E1,-1.013323876E1,-3.624870247E0,1.507454086E1
3.763938875E0,1.289022901E1,-9.282102846E0,-3.264646679E0,1.621645322E1
3.773923875E0,1.404214335E1,-8.906514550E0,-1.933549086E0,1.674056162E1
3.783908875E0,1.312234710E1,-8.627324036E0,-4.877682978E-1,1.571192640E1
3.793894875E0,1.123751584E1,-8.771810489E0,2.583814430E-1,1.425809182E1
3.803879875E0,1.044417147E1,-8.729918697E0,6.182839984E-1,1.362624208E1
3.813865875E0,1.133142914E1,-8.212765217E0,1.475383487E0,1.407222638E1
3.823850875E0,1.288248145E1,-6.717464359E0,2.906181954E0,1.481649585E1
3.833836875E0,1.460324801E1,-4.603227831E0,4.690242879E0,1.601383581E1
3.843821875E0,1.603566850E1,-3.952389168E0,6.972667256E0,1.792713399E1
3.853806875E0,1.669858956E1,-3.501592814E0,8.798492503E0,1.919681004E1
3.863792875E0,1.665569906E1,-3.846801901E0,1.062071996E1,2.012485748E1
3.873777875E0,1.576289472E1,-4.348102118E0,1.205492852E1,2.031492416E1
3.883763875E0,1.462280110E1,-4.022236497E0,1.213673341E1,1.942434031E1
3.893748875E0,1.301272116E1,-4.743673566E0,1.235667175E1,1.856126848E1
3.903734875E0,1.129448877E1,-4.952104000E0,1.265425409E1,1.766971865E1
3.913719875E0,9.681446625E0,-4.629335357E0,1.252476984E1,1.649336273E1
3.923705875E0,7.826679999E0,-5.117424082E0,1.300236691E1,1.601582012E1
3.933690875E0,6.556096410E0,-4.588783747E0,1.301360175E1,1.527721070E1
3.943675875E0,5.738137599E0,-4.527414003E0,1.295504656E1,1.487470780E1
3.953661875E0,4.140421005E0,-5.007873573E0,1.354139248E1,1.501969355E1
3.963646875E0,1.251757601E0,-4.261221264E0,1.382143201E1,1.451746833E1
3.973632875E0,-3.646683285E0,-4.317164208E0,1.409992203E1,1.519026027E1
3.983617875E0,-9.765331365E0,-4.420553505E0,1.413471530E1,1.773959319E1
3.993603875E0,-1.581143830E1,-4.318372535E0,1.305749446E1,2.095586038E1
4.003588875E0,-2.077168864E1,-4.398923485E0,1.121916026E1,2.401422774E1
4.013573875E0,-2.319625767E1,-4.066071319E0,9.152665957E0,2.526599691E1
4.023559875E0,-2.329440903E1,-3.452551632E0,7.474987519E0,2.470678132E1
4.033544875E0,-2.184864753E1,-3.052315568E0,6.526688424E0,2.300603597E1
4.043530875E0,-1.809036839E1,-2.535549173E0,5.493124645E0,1.907524197E1
4.053515875E0,-1.410067281E1,-1.611753858E0,4.616030602E0,1.492429103E1
4.063501875E0,-1.084739780E1,-6.848829076E-1,4.683240838E0,1.183502633E1
4.073486875E0,-8.483240456E0,9.127861775E-2,5.258434365E0,9.981223993E0
4.083472875E0,-6.902679593E0,7.859170199E-1,5.658405551E0,8.960033733E0
4.093457875E0,-5.694333767E0,1.116852834E0,5.164343310E0,7.768091087E0
4.103442875E0,-4.956918012E0,8.326238476E-1,4.083877845E0,6.476291910E0
4.113428875E0,-4.690527053E0,2.209118273E-1,2.812324787E0,5.473483058E0
4.123413875E0,-4.564681232E0,-3.202547787E-1,1.305772718E0,4.758562836E0
4.133399875E0,-4.294893040E0,-7.320238911E-1,-2.216346163E-1,4.362463422E0
4.143384875E0,-3.673003941E0,-9.249739677E-1,-1.281022038E0,3.998443729E0
4.153370875E0,-2.492989045E0,-8.062253501E-1,-1.752732128E0,3.152310836E0
4.163355875E0,-1.063558753E0,-5.616557613E-1,-1.841388196E0,2.199391940E0
4.173340875E0,6.840803772E-3,-2.241396365E-1,-1.724841494E0,1.739357224E0
4.183326875E0,3.555942172E-1,3.941454582E-2,-1.473994773E0,1.516793112E0
4.193311875E0,2.988189592E-1,8.071474560E-2,-1.244844146E0,1.282748841E0
4.203297875E0,1.664250964E-1,-4.392538033E-3,-1.383547118E0,1.393527622E0
4.213282875E0,2.298897884E-1,-1.641001704E-1,-1.773390341E0,1.795742599E0
4.223268875E0,4.162121557E-1,-4.263478290E-1,-2.196856808E0,2.276221620E0
4.233253875E0,7.428647020E-1,-5.531185706E-1,-2.584717240E0,2.745642244E0
4.243239875E0,1.135050977E0,-3.984127562E-1,-2.647836764E0,2.908283510E0
4.253224875E0,1.664068604E0,-2.837366877E-1,-2.314883441E0,2.865015911E0
4.263209875E0,2.484790079E0,-8.107603043E-2,-1.913694865E0,3.137352880E0
4.273195875E0,3.530008821E0,1.658035009E-1,-1.521509247E0,3.847524329E0
4.283180875E0,4.469000903E0,4.805366077E-1,-1.111186152E0,4.630077663E0
4.293166875E0,5.014502562E0,9.905007899E-1,-4.086274034E-1,5.127699690E0
4.303151875E0,5.551622529E0,1.310024228E0,5.394185078E-1,5.729541736E0
4.313137875E0,6.093978093E0,1.666480288E0,1.263535355E0,6.442844647E0
4.323122875E0,6.757688525E0,2.000258507E0,1.866066955E0,7.290376820E0
4.333107875E0,7.507847117E0,2.213873667E0,2.539135271E0,8.228986139E0
4.343093875E0,8.166372238E0,2.452693835E0,3.325932516E0,9.152440641E0
4.353078875E0,8.505478002E0,2.708556005E0,4.225822513E0,9.876082603E0
4.363064875E0,8.399546335E0,2.970843681E0,5.382725120E0,1.040922766E1
4.373049875E0,8.215667775E0,3.049733145E0,6.714225002E0,1.103987711E1
4.383035875E0,8.572901076E0,3.056431423E0,7.669916148E0,1.190226952E1
4.393020875E0,9.098705512E0,2.983491208E0,8.436727025E0,1.276189738E1
4.403005875E0,9.265983242E0,2.770168701E0,9.291677077E0,1.341147057E1
4.412991875E0,9.004011024E0,2.487473659E0,9.987011590E0,1.367479946E1
4.422976875E0,8.247917508E0,2.037682003E0,1.033736506E1,1.338063554E1
4.432962875E0,7.153675418E0,1.570101656E0,1.021551142E1,1.256968436E1
4.442947875E0,6.139885168E0,1.226901087E0,9.841177354E0,1.166414368E1
4.452933875E0,5.186968526E0,9.031713085E-1,9.817037709E0,1.113977514E1
4.462918875E0,4.524254460E0,7.735425574E-1,1.045037887E1,1.141392418E1
4.472904875E0,4.403054543E0,8.471518397E-1,1.166817731E1,1.250003669E1
4.482889875E0,4.825510612E0,1.028820810E0,1.314192357E1,1.403759880E1
4.492874875E0,5.612283883E0,1.195477127E0,1.467984888E1,1.576149926E1
4.502860875E0,5.985681227E0,8.735642975E-1,1.602849046E1,1.713195846E1
4.512845875E0,5.852264138E0,-8.129155515E-2,1.689331587E1,1.787847099E1
4.522831875E0,5.378257263E0,-1.164461449E0,1.700070934E1,1.786912812E1
4.532816875E0,4.412970836E0,-2.490247578E0,1.655638410E1,1.731443037E1
4.542802875E0,3.108631271E0,-4.132693909E0,1.610976442E1,1.691943430E1
4.552787875E0,1.520889735E0,-5.795951359E0,1.566350258E1,1.677055368E1
4.562772875E0,-1.509590283E-2,-7.093838521E0,1.516424860E1,1.674148166E1
4.572758875E0,-1.100244111E0,-8.214560897E0,1.470074917E1,1.687606512E1
4.582743875E0,-2.174403500E0,-9.335519500E0,1.383347611E1,1.682988461E1
4.592729875E0,-3.302861742E0,-1.053754332E1,1.248374227E1,1.666710940E1
4.602714875E0,-4.504321302E0,-1.161606458E1,1.099860446E1,1.661900017E1
4.612700875E0,-5.919758549E0,-1.245543005E1,9.382614729E0,1.667977033E1
4.622685875E0,-7.392795548E0,-1.331074906E1,7.699781971E0,1.706212498E1
4.632670875E0,-8.725162572E0,-1.415013792E1,5.903736593E0,1.764111592E1
4.642656875E0,-9.929531121E0,-1.472404564E1,3.958902381E0,1.819521960E1
4.652641875E0,-1.068817578E1,-1.509090346E1,2.083475204E0,1.860949590E1
4.662627875E0,-1.105206204E1,-1.528951233E1,6.012943286E-1,1.887534946E1
4.672612875E0,-1.104563127E1,-1.518760705E1,-5.410674226E-1,1.878728645E1
4.682598875E0,-1.063661269E1,-1.484960524E1,-1.288685399E0,1.831144493E1
4.692583875E0,-1.069090643E1,-1.494857288E1,-1.414566597E0,1.843247976E1
4.702569875E0,-1.124913543E1,-1.532436524E1,-1.619194002E0,1.907881042E1
4.712554875E0,-1.215720334E1,-1.581153654E1,-2.341207606E0,2.008192057E1
4.722539875E0,-1.332819131E1,-1.658961617E1,-3.526406059E0,2.157061862E1
4.732525875E0,-1.419705832E1,-1.705528491E1,-5.277127914E0,2.280980682E1
4.742510875E0,-1.425286297E1,-1.679020724E1,-7.419102756E0,2.324001394E1
4.752496875E0,-1.395763705E1,-1.674855402E1,-8.846030951E0,2.352832245E1
4.762481875E0,-1.362198349E1,-1.668093331E1,-9.438542762E0,2.351378446E1
4.772467875E0,-1.320432974E1,-1.608209773E1,-9.638245642E0,2.293216017E1
4.782452875E0,-1.266774011E1,-1.554409542E1,-9.418876237E0,2.215413667E1
4.792437875E0,-1.177291029E1,-1.540113100E1,-8.787913721E0,2.128435295E1
4.802423875E0,-1.040304449E1,-1.541683194E1,-8.167966189E0,2.031299371E1
4.812408875E0,-9.491530230E0,-1.599756804E1,-7.640675976E0,2.010948181E1
4.822394875E0,-9.028179905E0,-1.694907843E1,-7.460571209E0,2.060192745E1
4.832379875E0,-8.428038062E0,-1.775020311E1,-7.574650387E0,2.105889039E1
4.842365875E0,-7.323623571E0,-1.835182663E1,-7.477180810E0,2.112660020E1
4.852350875E0,-5.224834510E0,-1.862189900E1,-7.247346643E0,2.065425020E1
4.862335875E0,-1.990191941E0,-1.849730536E1,-7.156126571E0,1.993292043E1
4.872321875E0,1.443867579E0,-1.823630787E1,-6.860456849E0,1.953749079E1
4.882306875E0,4.850996578E0,-1.781736656E1,-6.523512801E0,1.958435443E1
4.892292875E0,8.061824607E0,-1.707286281E1,-6.270835901E0,1.989469888E1
4.902277875E0,9.894429116E0,-1.636576955E1,-5.869141542E0,2.000462354E1
4.912263875E0,1.016350629E1,-1.588636102E1,-5.495469963E0,1.964366352E1
4.922248875E0,9.401286643E0,-1.533047792E1,-5.359497056E0,1.876517925E1
4.932234875E0,7.882440217E0,-1.524746383E1,-5.259169360E0,1.795207173E1
4.942219875E0,6.571065282E0,-1.546882889E1,-5.475064350E0,1.767596944E1
4.952204875E0,6.133725126E0,-1.532500610E1,-5.710940444E0,1.746691835E1
4.962190875E0,6.126825997E0,-1.525406417E1,-5.650914683E0,1.738267261E1
4.972175875E0,6.701572797E0,-1.489181512E1,-6.107620817E0,1.743502990E1
4.982161875E0,7.886889364E0,-1.457739397E1,-6.342565450E0,1.774631159E1
4.992146875E0,8.462144871E0,-1.406728053E1,-5.720203604E0,1.738438974E1
5.002132875E0,8.553496506E0,-1.339935777E1,-4.958523073E0,1.665208822E1
5.012117875E0,8.616497916E0,-1.298889726E1,-4.163410503E0,1.613348925E1
5.022102875E0,8.035254275E0,-1.284856876E1,-3.637070462E0,1.558458572E1
5.032088875E0,8.123826728E0,-1.277700352E1,-3.346399525E0,1.550634610E1
5.042073875E0,8.728076824E0,-1.234053226E1,-3.053193235E0,1.542044262E1
5.052059875E0,9.633258551E0,-1.159746576E1,-2.625336678E0,1.530337463E1
5.062044875E0,1.169688947E1,-1.073994586E1,-1.411602058E0,1.594227966E1
5.072030875E0,1.374092638E1,-9.698085462E0,-1.158415282E-1,1.681901717E1
5.082015875E0,1.525725558E1,-9.240234443E0,7.960235667E-1,1.785495544E1
5.092000875E0,1.632713115E1,-9.148465902E0,1.878266585E0,1.880950625E1
5.101986875E0,1.673904761E1,-9.412657138E0,3.142988926E0,1.945950176E1
5.111971875E0,1.671362626E1,-9.525289714E0,4.455851392E0,1.974667209E1
5.121957875E0,1.656894275E1,-9.208436115E0,6.163330164E0,1.993268166E1
5.131942875E0,1.595755555E1,-7.011775773E0,7.801645145E0,1.909644589E1
5.141928875E0,1.531872268E1,-4.642830438E0,9.926750185E0,1.883506061E1
5.151913875E0,1.433087301E1,-3.815967194E0,1.264098325E1,1.948666171E1
5.161899875E0,1.340439573E1,-3.309081425E0,1.487292277E1,2.029363635E1
5.171884875E0,1.259474347E1,-3.923758861E0,1.721842808E1,2.169095923E1
5.181869875E0,1.146760378E1,-4.835615477E0,1.955305406E1,2.317781345E1
5.191855875E0,1.023349980E1,-4.502682619E0,2.050629990E1,2.335609138E1
5.201840875E0,8.797117823E0,-3.528004687E0,2.057890127E1,2.265672696E1
5.211826875E0,6.655800793E0,-2.967646716E0,2.082492637E1,2.206318585E1
5.221811875E0,3.758445795E0,-2.685900384E0,2.081283667E1,2.131933737E1
5.231797875E0,1.342197655E-1,-3.023750165E0,2.095264126E1,2.117012649E1
5.241782875E0,-3.948628238E0,-3.053854263E0,2.113250863E1,2.171406484E1
5.251767875E0,-8.036903189E0,-2.710718013E0,2.074881902E1,2.241547000E1
5.261753875E0,-1.190771785E1,-2.258369078E0,1.945777953E1,2.292376844E1
5.271738875E0,-1.474871855E1,-1.979923646E0,1.705285598E1,2.263282337E1
5.281724875E0,-1.611462930E1,-1.782356607E0,1.358022969E1,2.114901206E1
5.291709875E0,-1.615264088E1,-1.354720345E0,9.564162589E0,1.882063444E1
5.301695875E0,-1.508923817E1,-9.678057725E-1,5.693497615E0,1.615666029E1
5.311680875E0,-1.363284060E1,-9.823910672E-1,2.892490699E0,1.397089608E1
5.321665875E0,-1.222798856E1,-9.698019388E-1,1.949635361E0,1.242035821E1
5.331651875E0,-1.105779699E1,-7.467914727E-1,2.366199775E0,1.133276106E1
5.341636875E0,-1.014037002E1,-5.919338865E-1,2.985933883E0,1.058741192E1
5.351622875E0,-9.076659755E0,-4.350346718E-1,3.219985646E0,9.640711334E0
5.361607875E0,-7.829819369E0,-4.265076041E-1,3.021238786E0,8.403324574E0
5.371593875E0,-6.294509524E0,-5.760149150E-1,2.543447592E0,6.813352257E0
5.381578875E0,-4.875237088E0,-5.857916057E-1,1.529238682E0,5.142923236E0
5.391564875E0,-4.004683741E0,-6.424856240E-1,1.289872384E-1,4.057944966E0
5.401549875E0,-3.565672743E0,-9.453737336E-1,-1.252101710E0,3.895575991E0
5.411534875E0,-3.352031271E0,-1.218219799E0,-2.380120241E0,4.287790279E0
5.421520875E0,-3.175145103E0,-1.366630100E0,-3.158160696E0,4.682222041E0
5.431505875E0,-2.613778487E0,-1.496230419E0,-3.731983051E0,4.795648125E0
5.441491875E0,-1.811406598E0,-1.485373162E0,-4.261735527E0,4.863118032E0
5.451477250E0,-1.009289429E0,-1.326471569E0,-4.594573660E0,4.887565763E0
5.461463250E0,-3.027626869E-1,-1.117790435E0,-4.653701289E0,4.795628884E0
5.471448250E0,2.391291931E-1,-1.030993343E0,-4.486030626E0,4.609186569E0
5.481433250E0,6.524095184E-1,-1.025603526E0,-4.239119081E0,4.409946866E0
5.491419250E0,1.151011537E0,-8.913070156E-1,-3.685088966E0,3.962213579E0
5.501404250E0,1.698048090E0,-6.882526579E-1,-2.889085865E0,3.421092833E0
5.511390250E0,2.857766424E0,-5.296220462E-1,-2.522659571E0,3.848524361E0
5.521375250E0,4.688473804E0,-2.598532237E-1,-2.601438523E0,5.368127485E0
5.531361250E0,6.581578576E0,6.988774873E-2,-2.870729116E0,7.180748325E0
5.541346250E0,7.966594514E0,3.205730134E-1,-2.897811665E0,8.483319377E0
5.551331250E0,8.442381282E0,4.675784469E-1,-2.592995728E0,8.843984293E0
5.561317250E0,8.249853521E0,5.237110593E-1,-1.913711237E0,8.485083800E0
5.571302250E0,7.819849867E0,6.418026692E-1,-1.101454046E0,7.923077913E0
5.581288250E0,7.359713171E0,4.459140743E-1,-2.999569005E-1,7.379308332E0
5.591273250E0,6.904903289E0,9.335635275E-2,3.194287133E-1,6.912918309E0
5.601259250E0,7.409113373E0,-1.158742726E-2,1.103602898E0,7.490863408E0
5.611244250E0,8.841550230E0,-1.640142529E-1,2.252257422E0,9.125380794E0
5.621229250E0,9.891866866E0,-6.130016237E-2,3.592859665E0,1.052432555E1
5.631215250E0,1.023683271E1,4.583353145E-1,5.649762197E0,1.170139428E1
5.641200250E0,1.002590376E1,5.843590379E-1,8.263243060E0,1.300543762E1
5.651186250E0,9.226772398E0,4.470962352E-1,1.021318891E1,1.377107300E1
5.661171250E0,8.205070866E0,2.524117282E-1,1.119504868E1,1.388221937E1
5.671157250E0,7.040617749E0,-3.596406001E-1,1.162392324E1,1.359467657E1
5.681142250E0,6.062796062E0,-9.420244485E-1,1.188377116E1,1.337418869E1
5.691128250E0,5.466257274E0,-1.148020687E0,1.269228672E1,1.386694135E1
5.701113250E0,5.148809597E0,-1.363287100E0,1.410516230E1,1.507728078E1
5.711098250E0,4.929120349E0,-1.212838826E0,1.517544952E1,1.600192094E1
5.721084250E0,4.379019856E0,-1.485857897E0,1.559098073E1,1.626229593E1
5.731069250E0,3.642492000E0,-2.178244536E0,1.535673426E1,1.593241301E1
5.741055250E0,3.191505320E0,-2.738048192E0,1.474741696E1,1.533521833E1
5.751040250E0,2.490065729E0,-2.982599800E0,1.433077712E1,1.484814809E1
5.761026250E0,1.368434843E0,-3.285748696E0,1.444814126E1,1.488010566E1
5.771011250E0,1.167192683E-1,-3.581027824E0,1.505729600E1,1.547771129E1
5.780996250E0,-1.023623074E0,-4.164327054E0,1.585356515E1,1.642330515E1
5.790982250E0,-1.891800258E0,-5.003340812E0,1.636398030E1,1.721604423E1
5.800967250E0,-2.432310003E0,-5.939900452E0,1.638038525E1,1.759305460E1
5.810953250E0,-3.333564302E0,-6.913384675E0,1.557145337E1,1.736023326E1
5.820938250E0,-4.480285152E0,-7.981400834E0,1.422363742E1,1.691412356E1
5.830924250E0,-5.534422359E0,-8.862004375E0,1.282596109E1,1.654298130E1
5.840909250E0,-6.365026360E0,-9.537633187E0,1.170830558E1,1.638793541E1
5.850894250E0,-6.923935976E0,-1.030168535E1,1.107539360E1,1.663520225E1
5.860880250E0,-7.611473812E0,-1.101590871E1,1.045681900E1,1.698910950E1
5.870865250E0,-8.440661616E0,-1.170463587E1,9.546324488E0,1.730247325E1
5.880851250E0,-9.177872134E0,-1.257172883E1,8.601160669E0,1.778374729E1
5.890836250E0,-9.859417158E0,-1.334663459E1,7.603314607E0,1.825242873E1
5.900822250E0,-1.051160858E1,-1.406196191E1,6.489505979E0,1.871754192E1
5.910807250E0,-1.087244844E1,-1.475885763E1,5.099635683E0,1.902735656E1
5.920793250E0,-1.099194097E1,-1.592106424E1,3.562006831E0,1.967208544E1
5.930778250E0,-1.162395832E1,-1.689098166E1,1.453986771E0,2.055567431E1
5.940763250E0,-1.235528362E1,-1.786936585E1,-8.417996639E-1,2.174111073E1
5.950749250E0,-1.280613786E1,-1.838354778E1,-3.112053062E0,2.261939146E1
5.960734250E0,-1.289162415E1,-1.821317629E1,-5.105686381E0,2.289064868E1
5.970720250E0,-1.279643967E1,-1.792115932E1,-6.206256328E0,2.287868958E1
5.980705250E0,-1.266494163E1,-1.748519326E1,-6.509274246E0,2.255001954E1
5.990691250E0,-1.266051529E1,-1.736255376E1,-6.135117933E0,2.234695936E1
6.000676250E0,-1.228513457E1,-1.754349000E1,-5.725012938E0,2.216922069E1
6.010661250E0,-1.138057850E1,-1.762920784E1,-5.865917972E0,2.178796754E1
6.020647250E0,-1.039206225E1,-1.806548147E1,-6.342618075E0,2.178498066E1
6.030632250E0,-9.795921074E0,-1.883405469E1,-7.068359279E0,2.237506176E1
6.040618250E0,-9.906063906E0,-1.944048112E1,-8.313948360E0,2.334917870E1
6.050603250E0,-9.916275483E0,-1.983094181E1,-9.536653193E0,2.413600064E1
6.060589250E0,-9.479277390E0,-1.980155838E1,-1.010717187E1,2.416843680E1
6.070574250E0,-7.910868795E0,-1.908383137E1,-1.007700258E1,2.298522234E1
6.080559250E0,-6.003412324E0,-1.874575238E1,-9.166069529E0,2.171315321E1
6.090545250E0,-4.292318511E0,-1.885350019E1,-8.037706597E0,2.093999033E1
6.100530250E0,-2.368388680E0,-1.910979652E1,-7.401700273E0,2.062956022E1
6.110516250E0,-5.738790002E-2,-1.920552830E1,-7.288647866E0,2.054215175E1
6.120501250E0,2.377645846E0,-1.892838198E1,-7.303173519E0,2.042726579E1
6.130487250E0,4.249026604E0,-1.850930618E1,-7.196080595E0,2.030842728E1
6.140472250E0,5.075630524E0,-1.811722465E1,-7.179903688E0,2.013819434E1
6.150458250E0,5.059767612E0,-1.781482186E1,-7.302320411E0,1.990710952E1
6.160443250E0,4.667005459E0,-1.784753820E1,-7.695750901E0,1.998850023E1
6.170428250E0,4.443094522E0,-1.791064369E1,-8.166328969E0,2.017972188E1
6.180414250E0,4.760350994E0,-1.767536693E1,-8.037993110E0,1.999222026E1
6.190399250E0,5.707773008E0,-1.721132137E1,-7.280714364E0,1.954013966E1
6.200385250E0,6.715060569E0,-1.654886225E1,-6.687589180E0,1.907041502E1
6.210370250E0,7.189926986E0,-1.597143099E1,-6.375160169E0,1.863932201E1
6.220356250E0,6.435089452E0,-1.534410661E1,-6.475769116E0,1.785462320E1
6.230341250E0,5.552117788E0,-1.548139222E1,-6.745238049E0,1.777632564E1
6.240326250E0,5.381783134E0,-1.582700242E1,-6.719872828E0,1.801705543E1
6.250312250E0,6.144778703E0,-1.562062612E1,-6.233106158E0,1.790569401E1
6.260297250E0,7.572777523E0,-1.541015442E1,-5.273661100E0,1.796194088E1
6.270283250E0,8.695472749E0,-1.486422328E1,-4.255579578E0,1.773883699E1
6.280268250E0,8.862572140E0,-1.432881713E1,-3.629928088E0,1.723474872E1
6.290254250E0,8.730860099E0,-1.400990765E1,-3.445550176E0,1.686348856E1
6.300239250E0,8.665818011E0,-1.390739310E1,-3.160175062E0,1.668828005E1
6.310224250E0,9.634679425E0,-1.379495699E1,-2.378741468E0,1.699371345E1
6.320210250E0,1.205453091E1,-1.298385228E1,-7.362340325E-1,1.773229190E1
6.330195250E0,1.441132836E1,-1.219534005E1,1.570291398E0,1.894408930E1
6.340181250E0,1.689257328E1,-1.145351666E1,4.060600664E0,2.080938619E1
6.350166250E0,1.925849940E1,-1.061214326E1,6.657286570E0,2.297448255E1
6.360152250E0,2.055217715E1,-9.785360418E0,9.523736109E0,2.467482145E1
6.370137250E0,2.126050886E1,-8.007000529E0,1.217314753E1,2.577415013E1
6.380122250E0,2.140017077E1,-5.994908718E0,1.423828119E1,2.639384191E1
6.390108250E0,2.061922834E1,-4.289311873E0,1.546169996E1,2.612690069E1
6.400093250E0,1.915976683E1,-3.455365020E0,1.660249291E1,2.558669543E1
6.410079250E0,1.617340200E1,-4.418485638E0,1.802959243E1,2.462048234E1
6.420064250E0,1.180433791E1,-6.037541353E0,1.865014807E1,2.288279533E1
6.430050250E0,6.849079921E0,-7.353019279E0,1.839801379E1,2.096338951E1
6.440035250E0,2.683331117E0,-7.552742624E0,1.718688586E1,1.896399833E1
6.450020792E0,2.284686957E-1,-6.019870482E0,1.445761492E1,1.566249239E1
6.460005792E0,-1.347413664E0,-4.751667002E0,1.234349095E1,1.329494760E1
6.469990792E0,-3.389287682E0,-4.456417987E0,1.246613513E1,1.366570369E1
6.479976792E0,-6.331415979E0,-3.917079294E0,1.399583925E1,1.585288160E1
6.489961792E0,-1.023238532E1,-3.209877857E0,1.545418161E1,1.881054902E1
6.499947792E0,-1.409250659E1,-2.527401371E0,1.590028441E1,2.139639091E1
6.509932792E0,-1.689377312E1,-1.692961159E0,1.538260936E1,2.291048577E1
6.519918792E0,-1.810474669E1,-1.154997146E0,1.410437995E1,2.297932559E1
6.529903792E0,-1.757255183E1,-7.510831828E-1,1.189821963E1,2.123502612E1
6.539888792E0,-1.585185075E1,-4.990554705E-1,9.094844010E0,1.828240729E1
6.549874792E0,-1.365804560E1,-6.582001622E-1,5.977302167E0,1.492325629E1
6.559859792E0,-1.121197871E1,-5.874203476E-1,2.898915619E0,1.159556989E1
6.569845792E0,-8.147109171E0,-1.936556894E-1,5.504305691E-1,8.167977974E0
6.579830792E0,-5.186938121E0,3.729627500E-1,-5.721418655E-1,5.231708573E0
6.589816792E0,-2.996157154E0,9.720307513E-1,-5.163506573E-1,3.191930368E0
6.599801792E0,-1.687141279E0,1.317518458E0,3.371054310E-1,2.167011918E0
6.609786792E0,-1.343037315E0,1.506861241E0,1.282230658E0,2.391337595E0
6.619772792E0,-1.782158533E0,1.480185951E0,1.860607994E0,2.971346765E0
6.629757792E0,-2.190240391E0,1.109531682E0,1.813294664E0,3.052253440E0
6.639743792E0,-2.248369755E0,6.063289274E-1,1.043226888E0,2.551690354E0
6.649728792E0,-2.176487740E0,1.768766655E-1,8.176044703E-2,2.185193128E0
6.659714792E0,-2.007346795E0,-2.847209568E-1,-9.464279866E-1,2.237461309E0
6.669699792E0,-1.786510762E0,-6.005523900E-1,-1.988411171E0,2.739719486E0
6.679685792E0,-1.460209962E0,-8.014863279E-1,-2.663426610E0,3.141406496E0
6.689670792E0,-7.704702841E-1,-8.065398572E-1,-2.992866341E0,3.193959915E0
6.699655792E0,6.904523805E-2,-6.078751505E-1,-2.879322769E0,2.943599676E0
6.709641792E0,7.245280530E-1,-3.300337353E-1,-2.290484179E0,2.424908440E0
6.719626792E0,1.081610789E0,-7.394520476E-2,-1.658876715E0,1.981721915E0
6.729612792E0,1.218905824E0,-3.866471350E-4,-1.235652323E0,1.735675148E0
6.739597792E0,1.412054194E0,-1.115349808E-1,-1.064375682E0,1.771787993E0
6.749583792E0,1.796864280E0,-1.660211635E-1,-1.198017304E0,2.165993936E0
6.759568792E0,2.271217311E0,-4.721343780E-1,-1.471613787E0,2.747177840E0
6.769553792E0,2.700204427E0,-5.752224711E-1,-1.863183108E0,3.330681032E0
6.779539792E0,3.269487004E0,-3.372042489E-1,-2.248288917E0,3.982217351E0
6.789524792E0,3.949509414E0,-2.802590197E-1,-2.331379021E0,4.594833824E0
6.799510792E0,4.925840061E0,-1.390332665E-1,-2.330308980E0,5.451015548E0
6.809495792E0,6.351243888E0,5.814222738E-2,-2.109866027E0,6.692773273E0
6.819481792E0,7.480773339E0,2.797657339E-1,-1.364465899E0,7.609336752E0
6.829466792E0,7.590800981E0,5.412595037E-1,6.618697286E-2,7.610361496E0
6.839451792E0,7.405581070E0,7.054243223E-1,1.822132730E0,7.659009214E0
6.849437792E0,7.317084045E0,8.816605715E-1,3.427134370E0,8.127871448E0
6.859422792E0,7.323422427E0,1.006019739E0,4.714250377E0,8.767482442E0
6.869408792E0,7.618775815E0,1.040576199E0,5.590089022E0,9.506715469E0
6.879393792E0,7.728378949E0,9.934603581E-1,6.281383694E0,1.000852565E1
6.889379792E0,7.477833359E0,8.562025255E-1,7.143069738E0,1.037663336E1
6.899364792E0,6.988780428E0,7.197713430E-1,8.188379989E0,1.078937855E1
6.909349792E0,6.361525047E0,7.237848718E-1,9.137356192E0,1.115724624E1
6.919335792E0,5.656585312E0,6.845002073E-1,1.027726854E1,1.175107428E1
6.929320792E0,5.406146727E0,7.491598874E-1,1.149173874E1,1.272193862E1
6.939306792E0,5.691898402E0,6.637721202E-1,1.237012385E1,1.363298445E1
6.949291792E0,5.915919852E0,2.316666842E-1,1.274956605E1,1.405714094E1
6.959277792E0,6.234151055E0,-8.569971621E-3,1.311389553E1,1.452029507E1
6.969262792E0,6.691765262E0,-1.679861203E-1,1.376172142E1,1.530336296E1
6.979248792E0,5.972538441E0,-4.354988676E-1,1.432810845E1,1.552918435E1
6.989233792E0,4.354745724E0,-1.040573860E0,1.456972242E1,1.524215915E1
6.999218792E0,2.656351772E0,-1.764238571E0,1.475007394E1,1.509083906E1
7.009204792E0,1.140606271E0,-2.681647119E0,1.480940681E1,1.509340067E1
7.019189792E0,-6.803089231E-2,-3.428401462E0,1.454067345E1,1.493953645E1
7.029175792E0,-9.304766361E-1,-4.084330419E0,1.423630483E1,1.483980852E1
7.039160792E0,-1.704413369E0,-4.851048618E0,1.373529434E1,1.466615179E1
7.049146792E0,-2.736578786E0,-5.715814683E0,1.275826670E1,1.424544735E1
7.059131792E0,-3.897427679E0,-6.701466377E0,1.147908303E1,1.385167648E1
7.069116792E0,-4.973562112E0,-7.616639827E0,1.028789527E1,1.373281877E1
7.079102792E0,-6.173000289E0,-8.325869663E0,9.187360411E0,1.385040178E1
7.089087792E0,-7.532894250E0,-8.920875896E0,8.443463017E0,1.440897603E1
7.099073792E0,-9.322114758E0,-9.598209756E0,8.129611963E0,1.565624619E1
7.109058792E0,-1.151182861E1,-1.020075305E1,7.757919667E0,1.722680697E1
7.119044792E0,-1.351303115E1,-1.071109569E1,7.234793841E0,1.869951400E1
7.129029792E0,-1.523986830E1,-1.107078483E1,6.442108449E0,1.990770262E1
7.139014792E0,-1.635886750E1,-1.167900518E1,5.519473368E0,2.084409494E1
7.149000792E0,-1.636530177E1,-1.251657789E1,4.527501419E0,2.109469349E1
7.158985792E0,-1.592606244E1,-1.315001144E1,3.462710000E0,2.094164813E1
7.168971792E0,-1.564543702E1,-1.382457080E1,2.150752097E0,2.098866818E1
7.178956792E0,-1.551640301E1,-1.448490037E1,4.792307782E-1,2.123206921E1
7.188942792E0,-1.534474162E1,-1.491500518E1,-1.086262395E0,2.142658257E1
7.198927792E0,-1.488499025E1,-1.568371056E1,-1.936166884E0,2.170922509E1
7.208913792E0,-1.431109773E1,-1.636807101E1,-2.484491286E0,2.188364604E1
7.218898792E0,-1.328699767E1,-1.648504339E1,-3.275972151E0,2.142505441E1
7.228883792E0,-1.188954587E1,-1.643658284E1,-3.956787443E0,2.066830238E1
7.238869792E0,-1.059418062E1,-1.660414182E1,-4.442950096E0,2.019093842E1
7.248854792E0,-9.491591041E0,-1.686563866E1,-5.043934522E0,1.999953358E1
7.258840792E0,-8.434067711E0,-1.702873856E1,-5.739287746E0,1.985071431E1
7.268825792E0,-7.487552016E0,-1.713207172E1,-6.331972049E0,1.973993887E1
7.278811792E0,-6.788445464E0,-1.744748340E1,-6.915348170E0,1.995794852E1
7.288796792E0,-5.859552108E0,-1.745053330E1,-7.626929757E0,1.992549927E1
7.298781792E0,-4.498844215E0,-1.710674977E1,-8.153974972E0,1.947736622E1
7.308767792E0,-3.404080553E0,-1.703221531E1,-8.248350202E0,1.922808893E1
7.318752792E0,-2.620820289E0,-1.703878992E1,-8.209435228E0,1.909407991E1
7.328738792E0,-1.278342990E0,-1.686493700E1,-8.339709438E0,1.885765134E1
7.338723792E0,4.584322321E-1,-1.682255872E1,-8.411598616E0,1.881392126E1
7.348709792E0,2.321227231E0,-1.688692720E1,-8.571298939E0,1.907940177E1
7.358694792E0,3.853408086E0,-1.666815714E1,-8.737127144E0,1.920972689E1
7.368679792E0,4.485548231E0,-1.651452973E1,-8.712146085E0,1.920289886E1
7.378665792E0,4.226176270E0,-1.653135451E1,-8.555414978E0,1.908772834E1
7.388650792E0,3.431205786E0,-1.640325488E1,-8.554131514E0,1.881523611E1
7.398636792E0,2.453197280E0,-1.647231401E1,-8.803144548E0,1.883748018E1
7.408621792E0,1.363602265E0,-1.665617035E1,-9.224566244E0,1.908874129E1
7.418607792E0,3.331971520E-1,-1.713933747E1,-9.698228134E0,1.969577463E1
7.428592792E0,-6.777767864E-1,-1.775336060E1,-1.020214001E1,2.048718758E1
7.438577792E0,-9.867044851E-1,-1.836226040E1,-1.085980910E1,2.135606814E1
7.448563750E0,-1.993036611E-1,-1.881570145E1,-1.153687925E1,2.207192619E1
7.458548750E0,1.217828840E0,-1.996152885E1,-1.210242429E1,2.337550886E1
7.468534750E0,3.636127891E0,-2.056872243E1,-1.260890660E1,2.439832564E1
7.478519750E0,7.224237278E0,-1.957599619E1,-1.128966833E1,2.372479383E1
7.488505750E0,1.073248364E1,-1.803053032E1,-8.015302990E0,2.246177443E1
7.498490750E0,1.367823019E1,-1.589441146E1,-5.516208867E0,2.168305461E1
7.508476750E0,1.603049371E1,-1.421113139E1,-3.883190879E0,2.177182022E1
7.518461750E0,1.724720223E1,-1.299208166E1,-1.832775248E0,2.167069993E1
7.528446750E0,1.826514751E1,-1.162737310E1,7.019623321E-1,2.166342932E1
7.538432750E0,1.971190420E1,-1.001884617E1,3.283881680E0,2.235442517E1
7.548417750E0,2.102132031E1,-8.830041740E0,5.146701091E0,2.337421821E1
7.558403750E0,2.292044684E1,-7.270356022E0,6.315439047E0,2.486141047E1
7.568388750E0,2.444583104E1,-5.467032030E0,7.542130512E0,2.616048216E1
7.578374750E0,2.384910397E1,-4.196925573E0,8.862894906E0,2.578652459E1
7.588359750E0,2.157273146E1,-3.258763795E0,9.626107407E0,2.384668170E1
7.598344750E0,1.870334720E1,-3.686820912E0,1.075656832E1,2.188861821E1
7.608330750E0,1.624055494E1,-4.613360471E0,1.193481736E1,2.067555525E1
7.618315750E0,1.448041088E1,-5.370348319E0,1.272192977E1,2.000925879E1
7.628301750E0,1.357144132E1,-5.331594143E0,1.303580596E1,1.955868484E1
7.638286750E0,1.300642137E1,-3.664837135E0,1.184337509E1,1.796840453E1
7.648272750E0,1.163326943E1,-3.302966115E0,1.075995503E1,1.618700636E1
7.658257750E0,9.075970953E0,-4.549938939E0,1.136103710E1,1.523641549E1
7.668242750E0,5.512109385E0,-4.092102538E0,1.199809476E1,1.382327497E1
7.678228750E0,-1.739027716E-1,-4.290549436E0,1.304052584E1,1.372932521E1
7.688213750E0,-6.368814186E0,-5.624835516E0,1.455961024E1,1.685772283E1
7.698199750E0,-1.119633741E1,-5.727635999E0,1.527397511E1,1.978530012E1
7.708184750E0,-1.454569270E1,-5.167094425E0,1.523159916E1,2.168588606E1
7.718170750E0,-1.504171084E1,-4.573679219E0,1.411418924E1,2.112775294E1
7.728155750E0,-1.313782584E1,-3.006989706E0,1.156127149E1,1.775689876E1
7.738141750E0,-1.164195956E1,-1.332121733E0,8.539191878E0,1.449922648E1
7.748126750E0,-1.116082493E1,2.239483595E-2,6.446109699E0,1.288863239E1
7.758111750E0,-1.097468233E1,8.889280759E-1,5.404538158E0,1.226551581E1
7.768097750E0,-1.105251812E1,1.278718382E0,5.215260279E0,1.228788905E1
7.778082750E0,-1.076752951E1,1.608523125E0,5.525610605E0,1.220898894E1
7.788068750E0,-9.935896400E0,2.005691594E0,6.104406018E0,1.183252335E1
7.798053750E0,-8.962674133E0,2.171574471E0,6.412496395E0,1.123233606E1
7.808039750E0,-7.731342317E0,2.204330573E0,6.137970205E0,1.011471233E1
7.818024750E0,-6.426950127E0,2.001300920E0,5.194141890E0,8.502352809E0
7.828009750E0,-5.290954240E0,1.490891180E0,3.608549498E0,6.575605125E0
7.837995750E0,-4.182030376E0,9.011072414E-1,1.648037732E0,4.584473873E0
7.847980750E0,-3.160367435E0,5.264009978E-1,-2.080936342E-1,3.210657767E0
7.857966750E0,-2.563081958E0,3.403389412E-1,-1.475905058E0,2.977165675E0
7.867951750E0,-2.473430108E0,-1.844606504E-1,-2.077547296E0,3.235442010E0
7.877937750E0,-2.612541508E0,-4.948299070E-1,-2.137769524E0,3.411786674E0
7.887922750E0,-2.912867076E0,-5.618383406E-1,-1.691818759E0,3.415070663E0
7.897907750E0,-2.958316898E0,-5.906173128E-1,-9.722194701E-1,3.169491817E0
7.907893750E0,-2.572200106E0,-4.920980148E-1,-2.726889950E-1,2.633008380E0
7.917878750E0,-2.063296608E0,-4.391461415E-1,2.732497430E-1,2.127136021E0
7.927864750E0,-1.671042432E0,-4.487621069E-1,4.056961942E-1,1.777177436E0
7.937849750E0,-1.476735363E0,-4.587602609E-1,1.653101420E-1,1.555164220E0
7.947835750E0,-1.378463695E0,-4.570677844E-1,-2.409011918E-1,1.472109541E0
7.957820750E0,-1.228495331E0,-4.528523804E-1,-7.966398633E-1,1.532615780E0
7.967805750E0,-4.044004512E-1,-5.631310138E-1,-1.807200111E0,1.935620961E0
7.977791750E0,5.026793555E-1,-4.709739981E-1,-2.906102432E0,2.986625920E0
7.987776750E0,8.183132990E-1,-3.763646601E-1,-3.238593825E0,3.361514090E0
7.997762750E0,9.421946756E-1,-1.249353372E-1,-2.925443267E0,3.075964557E0
8.007747750E0,1.070115236E0,1.692280689E-1,-2.324377565E0,2.564471840E0
8.017733750E0,1.227810622E0,4.126245600E-1,-1.658480274E0,2.104360894E0
8.027718750E0,1.323198882E0,5.994973330E-1,-1.056839790E0,1.796430538E0
8.037704750E0,1.426197586E0,7.116570888E-1,-7.694579118E-1,1.769904191E0
8.047689750E0,1.984743213E0,6.249829341E-1,-1.081598071E0,2.345136174E0
8.057674750E0,3.062939959E0,5.429943725E-1,-1.898144195E0,3.644090485E0
8.067660750E0,4.117191479E0,5.175907787E-1,-2.654296768E0,4.925896590E0
8.077645750E0,4.747625407E0,4.847578588E-1,-2.901248658E0,5.584996057E0
8.087631750E0,5.027425493E0,5.881505187E-1,-2.518217441E0,5.653525201E0
8.097616750E0,5.239815077E0,5.969637345E-1,-1.737046387E0,5.552419102E0
8.107602750E0,5.476734899E0,6.785508116E-1,-8.333498526E-1,5.581176250E0
8.117587750E0,5.611799149E0,8.473869708E-1,4.042127556E-1,5.689792819E0
8.127572750E0,6.003416417E0,9.473853220E-1,1.949814286E0,6.382814691E0
8.137558750E0,6.670933971E0,1.110538134E0,3.667617486E0,7.693248535E0
8.147543750E0,7.128400244E0,1.382105487E0,5.789708287E0,9.286820104E0
8.157529750E0,7.127640105E0,1.651667683E0,7.853824528E0,1.073377004E1
8.167514750E0,6.690795794E0,1.832092439E0,9.357947080E0,1.164879756E1
8.177500750E0,6.029190359E0,1.720808231E0,1.014600674E1,1.192701849E1
8.187485750E0,5.318381774E0,1.448792981E0,9.949519243E0,1.137440631E1
8.197470750E0,4.901860045E0,1.141248149E0,9.274266992E0,1.055190540E1
8.207456750E0,4.834019480E0,9.647699712E-1,8.724980139E0,1.002116779E1
8.217441750E0,4.814326642E0,8.236126305E-1,8.716553131E0,9.991715432E0
8.227427750E0,4.783676707E0,6.471758218E-1,9.571565164E0,1.071994678E1
8.237412750E0,4.701920938E0,4.318943515E-1,1.112900204E1,1.208922163E1
8.247398750E0,4.286182736E0,7.501202926E-2,1.270948221E1,1.341297608E1
8.257383750E0,3.097643183E0,-3.651672421E-1,1.397434957E1,1.431821170E1
8.267369750E0,1.594662154E0,-7.687410432E-1,1.476032294E1,1.486610384E1
8.277354750E0,2.115984553E-1,-1.136495386E0,1.499115815E1,1.503566488E1
8.287339750E0,-7.669865862E-1,-1.577654212E0,1.477523568E1,1.487900704E1
8.297325750E0,-1.403613739E0,-2.184480738E0,1.425053344E1,1.448515761E1
8.307310750E0,-2.002338801E0,-2.875421507E0,1.361620878E1,1.405982045E1
8.317296750E0,-2.744352660E0,-3.697334498E0,1.294784396E1,1.374221296E1
8.327281750E0,-3.550676097E0,-4.561867259E0,1.236953211E1,1.365369028E1
8.337267750E0,-4.382435507E0,-5.267040882E0,1.193087633E1,1.375838910E1
8.347252750E0,-5.255560459E0,-5.769812551E0,1.141744636E1,1.383003015E1
8.357237750E0,-5.925314573E0,-6.360991196E0,1.082393526E1,1.388269197E1
8.367223750E0,-6.367106214E0,-6.823358604E0,1.012305525E1,1.376860602E1
8.377208750E0,-6.630954804E0,-7.331471704E0,9.499341525E0,1.370976033E1
8.387194750E0,-6.680920431E0,-8.068026164E0,8.974030595E0,1.379351185E1
8.397179750E0,-6.976830474E0,-8.996999627E0,8.293010066E0,1.408531795E1
8.407165750E0,-7.961752435E0,-9.785766215E0,7.398903549E0,1.462513234E1
8.417150750E0,-8.853487321E0,-1.048057389E1,6.464003933E0,1.516608103E1
8.427135750E0,-9.358590274E0,-1.108367326E1,5.531603417E0,1.552512999E1
8.437121750E0,-9.648161935E0,-1.184457962E1,4.510613490E0,1.592880187E1
8.447106750E0,-9.642855586E0,-1.252914473E1,3.252482132E0,1.614133735E1
8.457093042E0,-9.283154175E0,-1.278168831E1,1.880328314E0,1.590861848E1
8.467078042E0,-8.989095361E0,-1.288984192E1,6.129682946E-1,1.572665223E1
8.477064042E0,-8.970006541E0,-1.341250465E1,-3.601113009E-1,1.613957801E1
8.487049042E0,-9.334448290E0,-1.390799653E1,-1.258869277E0,1.679729277E1
8.497034042E0,-9.748086172E0,-1.396331002E1,-2.277454244E0,1.718097810E1
8.507020042E0,-1.013752126E1,-1.407848848E1,-3.013570163E0,1.760837245E1
8.517005042E0,-1.029041659E1,-1.428192480E1,-3.534185779E0,1.795428971E1
8.526991042E0,-1.022240295E1,-1.458097129E1,-4.075118716E0,1.826769932E1
8.536976042E0,-1.014809770E1,-1.486031500E1,-4.634720058E0,1.858207413E1
8.546962042E0,-1.000169278E1,-1.494590304E1,-5.172880830E0,1.871289855E1
8.556947042E0,-9.597925581E0,-1.513114751E1,-5.701562095E0,1.880371268E1
8.566932042E0,-8.996464607E0,-1.541637586E1,-6.213857124E0,1.890008043E1
8.576918042E0,-8.172512984E0,-1.573909070E1,-6.796024041E0,1.899196903E1
8.586903042E0,-7.140279447E0,-1.588820055E1,-7.633148856E0,1.901797752E1
8.596889042E0,-6.158107431E0,-1.578148302E1,-8.350916212E0,1.888690803E1
8.606874042E0,-5.364118695E0,-1.586701141E1,-8.657494499E0,1.885439024E1
8.616860042E0,-4.973470895E0,-1.601478225E1,-8.747787788E0,1.891381649E1
8.626845042E0,-5.082606252E0,-1.618616180E1,-8.678963721E0,1.905647216E1
8.636830042E0,-5.508370090E0,-1.659499678E1,-8.367548617E0,1.938432173E1
8.646816042E0,-5.330479079E0,-1.718537962E1,-8.041024307E0,1.970810371E1
8.656801042E0,-4.349908323E0,-1.774244970E1,-7.759211901E0,1.984745810E1
8.666787042E0,-2.876029910E0,-1.842673531E1,-7.599216878E0,2.013862506E1
8.676772042E0,-7.823623513E-1,-1.898256228E1,-7.898137068E0,2.057499285E1
8.686758042E0,1.349872126E0,-1.915967210E1,-8.268800839E0,2.091143843E1
8.696743042E0,3.341650416E0,-1.930477894E1,-8.671033142E0,2.142493718E1
8.706729042E0,5.643664135E0,-1.924102207E1,-9.215450435E0,2.206790434E1
8.716714042E0,7.111674283E0,-1.883803314E1,-9.471642680E0,2.225217784E1
8.726699042E0,7.450059670E0,-1.831264327E1,-9.109495379E0,2.176784782E1
8.736685042E0,7.463007744E0,-1.806480202E1,-8.114803305E0,2.116326036E1
8.746670042E0,7.361414126E0,-1.798848182E1,-7.106344546E0,2.069483097E1
8.756656042E0,8.218228855E0,-1.759648565E1,-6.214972773E0,2.039121084E1
8.766641042E0,1.023707478E1,-1.667250981E1,-5.468222523E0,2.031432354E1
8.776627042E0,1.215532054E1,-1.562699139E1,-4.892396911E0,2.039338679E1
8.786612042E0,1.298183967E1,-1.430363785E1,-4.465656588E0,1.982584944E1
8.796597042E0,1.275469990E1,-1.310034519E1,-3.962820600E0,1.870843021E1
8.806583042E0,1.202632862E1,-1.255602321E1,-3.494183807E0,1.773402434E1
8.816568042E0,1.172211787E1,-1.224211427E1,-3.636043691E0,1.733488456E1
8.826554042E0,1.282802516E1,-1.167394266E1,-3.522162734E0,1.769872303E1
8.836539042E0,1.437763905E1,-1.085801049E1,-2.780777305E0,1.823034884E1
8.846525042E0,1.607395256E1,-1.006519354E1,-2.248853173E0,1.909809971E1
8.856510042E0,1.770281376E1,-9.199321475E0,-2.387663734E0,2.009273672E1
8.866495042E0,1.798328833E1,-7.641213920E0,-2.920787129E0,1.975646240E1
8.876481042E0,1.697510789E1,-6.625491750E0,-2.629465982E0,1.841101628E1
8.886466042E0,1.559753780E1,-6.220618259E0,-1.311312954E0,1.684336126E1
8.896452042E0,1.504309896E1,-5.118583585E0,2.891606015E-1,1.589271337E1
8.906437042E0,1.535625362E1,-5.913368127E0,3.122765161E0,1.674915251E1
8.916423042E0,1.554226407E1,-7.929409146E0,6.672705093E0,1.868053787E1
8.926408042E0,1.436705208E1,-8.812674340E0,1.037959599E1,1.979422712E1
8.936393042E0,1.226347298E1,-8.634763448E0,1.436663459E1,2.076901776E1
8.946379042E0,1.029253095E1,-7.103282944E0,1.621801977E1,2.047967253E1
8.956364042E0,8.110692712E0,-5.805518573E0,1.526184330E1,1.823214862E1
8.966350042E0,4.968215418E0,-6.170185440E0,1.461711644E1,1.662571640E1
8.976335042E0,5.482334778E-1,-6.372285093E0,1.524143769E1,1.652900481E1
8.986321042E0,-5.438740277E0,-7.103250200E0,1.694357503E1,1.916039650E1
8.996306042E0,-1.164630287E1,-7.859448380E0,1.897170751E1,2.360790091E1
9.006291042E0,-1.559286587E1,-7.810436434E0,2.062051941E1,2.700641043E1
9.016277042E0,-1.654283844E1,-7.011115623E0,2.171924865E1,2.818771023E1
9.026262042E0,-1.576845191E1,-5.695371648E0,2.212860053E1,2.776249800E1
9.036248042E0,-1.478704354E1,-4.521124445E0,2.205803165E1,2.693796546E1
9.046233042E0,-1.377397484E1,-3.678506463E0,2.030401196E1,2.480940738E1
9.056219042E0,-1.237036943E1,-2.930187406E0,1.678563823E1,2.105634557E1
9.066204042E0,-1.101969419E1,-2.515748747E0,1.297581119E1,1.720855392E1
9.076190042E0,-9.657982918E0,-2.062529892E0,9.825829582E0,1.393117334E1
9.086175042E0,-8.244444847E0,-1.405118373E0,8.089463811E0,1.163549110E1
9.096160042E0,-7.049847579E0,-6.768333381E-1,7.270447823E0,1.014977171E1
9.106146042E0,-5.670444968E0,9.978595108E-2,6.583138028E0,8.689166224E0
9.116131042E0,-4.009965531E0,8.122273707E-1,5.705033587E0,7.020466159E0
9.126117042E0,-2.559949604E0,1.251351220E0,4.854647287E0,5.629104914E0
9.136102042E0,-1.529181818E0,1.348831321E0,3.850037166E0,4.356664911E0
9.146088042E0,-1.051579197E0,1.200804964E0,2.445428377E0,2.920251927E0
9.156073042E0,-9.583603996E-1,6.863764326E-1,1.056736879E0,1.583117208E0
9.166058042E0,-7.373194219E-1,-4.294165939E-2,-2.074282211E-1,7.671443039E-1
9.176044042E0,-7.549742125E-1,-2.577607611E-1,-1.235447085E0,1.470631216E0
9.186029042E0,-1.133731407E0,-4.125406525E-1,-1.513863428E0,1.935799363E0
9.196015042E0,-1.063428725E0,-4.439076023E-1,-1.431120064E0,1.837400134E0
9.206000042E0,-6.870921318E-1,-4.224774107E-1,-1.484632028E0,1.689590192E0
9.215986042E0,-1.012278014E-1,-3.062796409E-1,-1.866294996E0,1.893967080E0
9.225971042E0,5.552676782E-1,-1.569875076E-1,-2.236675177E0,2.309909765E0
9.235956042E0,1.383778960E0,5.728634119E-2,-2.292417853E0,2.678302737E0
9.245942042E0,2.940666493E0,3.411803555E-1,-2.116702591E0,3.639279231E0
9.255927042E0,5.147198104E0,5.294066128E-1,-1.823979281E0,5.486421430E0
9.265913042E0,7.152023579E0,8.223529941E-1,-1.419169525E0,7.337693634E0
9.275898042E0,8.316939211E0,9.515052702E-1,-7.617676538E-1,8.405779564E0
9.285884042E0,8.883098790E0,1.017376932E0,-1.408646876E-1,8.942278390E0
9.295869042E0,9.072458530E0,1.288580442E0,2.964433086E-1,9.168305294E0
9.305855042E0,9.020935789E0,1.285709897E0,6.623983169E-1,9.136142730E0
9.315840042E0,8.861462338E0,1.188707367E0,9.615617502E-1,8.992393506E0
9.325825042E0,8.608323509E0,1.200358675E0,1.531804440E0,8.825560572E0
9.335811042E0,8.291980371E0,1.254974447E0,2.635433065E0,8.790756894E0
9.345796042E0,7.851898456E0,1.283972397E0,4.011295772E0,8.910184524E0
9.355782042E0,7.178115025E0,1.431093752E0,5.200486119E0,8.978776115E0
9.365767042E0,6.434082561E0,1.564824252E0,6.132457450E0,9.025138654E0
9.375753042E0,5.832956048E0,1.399104073E0,7.083859663E0,9.282345403E0
9.385738042E0,5.420839026E0,1.191848053E0,8.062918621E0,9.788598174E0
9.395723042E0,5.012055502E0,6.941600999E-1,9.012573686E0,1.033581361E1
9.405709042E0,4.504388545E0,1.872003633E-1,1.001097582E1,1.097926213E1
9.415694042E0,4.010536219E0,-8.734161437E-2,1.119692447E1,1.189382810E1
9.425680042E0,3.297168893E0,-1.848703940E-1,1.221195433E1,1.265058609E1
9.435665042E0,2.533226075E0,-2.338023797E-1,1.276869814E1,1.301966013E1
9.445651042E0,2.024766527E0,-5.635096210E-1,1.323160817E1,1.339748772E1
9.455635667E0,1.378928110E0,-9.171150175E-1,1.390457591E1,1.400284878E1
9.465620667E0,3.622675348E-1,-1.353942665E0,1.468935177E1,1.475606499E1
9.475606667E0,-8.680856757E-1,-2.088163501E0,1.532052830E1,1.548652921E1
9.485591667E0,-2.151849912E0,-3.161036649E0,1.558547967E1,1.604773465E1
9.495577667E0,-3.406027091E0,-4.463806529E0,1.528964681E1,1.628802901E1
9.505562667E0,-4.577914943E0,-5.725377220E0,1.449388403E1,1.624222657E1
9.515548667E0,-5.543451045E0,-6.792052027E0,1.344446553E1,1.605040416E1
9.525533667E0,-6.358952272E0,-7.542843872E0,1.238205685E1,1.583180658E1
9.535518667E0,-6.828707052E0,-8.130532899E0,1.150812498E1,1.565802497E1
9.545504667E0,-7.284392847E0,-8.638849483E0,1.053418468E1,1.544866163E1
9.555489667E0,-7.697250711E0,-9.265006757E0,9.500499274E0,1.534103990E1
9.565475667E0,-7.926460980E0,-9.871947742E0,8.520170301E0,1.526032234E1
9.575460667E0,-8.115066429E0,-1.045011809E1,7.434761015E0,1.517678960E1
9.585446667E0,-8.118449044E0,-1.080350860E1,6.189390035E0,1.486383402E1
9.595431667E0,-7.703473903E0,-1.107132511E1,5.178303537E0,1.444758033E1
9.605417667E0,-7.336115563E0,-1.144137083E1,4.367149715E0,1.427569804E1
9.615402667E0,-7.353981146E0,-1.176523758E1,3.342333956E0,1.427140674E1
9.625387667E0,-7.826765953E0,-1.234132398E1,2.269903734E0,1.478915162E1
9.635373667E0,-8.707368910E0,-1.304161810E1,1.024889435E0,1.571472158E1
9.645358667E0,-9.522255009E0,-1.353634166E1,-5.469959146E-1,1.655913918E1
9.655344667E0,-9.879024042E0,-1.373358695E1,-2.068105212E0,1.704357902E1
9.665329667E0,-9.539223629E0,-1.378801284E1,-3.119821088E0,1.705401328E1
9.675315667E0,-8.562554428E0,-1.373576095E1,-3.788902772E0,1.662360525E1
9.685300667E0,-7.598488900E0,-1.356585372E1,-4.274366682E0,1.612574437E1
9.695285667E0,-7.004924006E0,-1.321186914E1,-4.726820136E0,1.568328011E1
9.705271667E0,-6.925313580E0,-1.269860639E1,-4.964627566E0,1.529255045E1
9.715256667E0,-7.294975723E0,-1.235328855E1,-4.867614073E0,1.514972196E1
9.725242667E0,-7.788723384E0,-1.206518454E1,-4.829230025E0,1.515105120E1
9.735227667E0,-8.274453342E0,-1.175362618E1,-5.020916957E0,1.522576479E1
9.745213667E0,-8.085286560E0,-1.157252037E1,-5.292587952E0,1.507668974E1
9.755198667E0,-7.401714306E0,-1.169259645E1,-5.562799482E0,1.491465469E1
9.765183667E0,-6.783752489E0,-1.184837563E1,-6.171710393E0,1.498310088E1
9.775169667E0,-6.216070295E0,-1.194016873E1,-6.919699084E0,1.513569934E1
9.785154667E0,-5.936894399E0,-1.218329596E1,-7.367078909E0,1.542573392E1
9.795140667E0,-5.892160860E0,-1.239885122E1,-7.630425807E0,1.570581005E1
9.805125667E0,-5.774228953E0,-1.223807852E1,-7.926344621E0,1.568244958E1
9.815111667E0,-5.755414951E0,-1.197707051E1,-7.933879927E0,1.547648119E1
9.825096667E0,-5.531325089E0,-1.203057838E1,-7.436728603E0,1.518668185E1
9.835081667E0,-5.193675867E0,-1.207655270E1,-6.563020098E0,1.469321703E1
9.845067667E0,-4.611828793E0,-1.225694281E1,-5.616617255E0,1.424949126E1
9.855052667E0,-4.092755380E0,-1.265970370E1,-4.966330276E0,1.420152037E1
9.865038667E0,-3.876178313E0,-1.317841020E1,-4.644522915E0,1.450058091E1
9.875023667E0,-3.857786188E0,-1.366658488E1,-4.547435161E0,1.491097660E1
9.885009667E0,-3.477155546E0,-1.413378092E1,-4.237034257E0,1.515938102E1
9.894994667E0,-2.452462285E0,-1.463427100E1,-3.579477142E0,1.526398099E1
9.904979667E0,-9.452541581E-1,-1.505175050E1,-3.249354456E0,1.542747559E1
9.914965667E0,8.260243146E-1,-1.536615295E1,-3.111539676E0,1.569976598E1
9.924950667E0,2.145280273E0,-1.550754097E1,-2.796417437E0,1.590301873E1
9.934936667E0,2.490148175E0,-1.523557293E1,-2.359415250E0,1.561698949E1
9.944921667E0,1.965130628E0,-1.495660344E1,-2.041601538E0,1.522267591E1
9.954907667E0,8.572250573E-1,-1.490142795E1,-2.115562384E0,1.507524440E1
9.964892667E0,1.056171454E0,-1.519024765E1,-2.817328835E0,1.548536289E1
9.974877667E0,2.896840735E0,-1.522393229E1,-3.595458752E0,1.590871222E1
9.984863667E0,5.775790744E0,-1.492917649E1,-3.774435591E0,1.644647176E1
9.994848667E0,9.363200219E0,-1.417308707E1,-3.551391796E0,1.735391308E1
1.000483467E1,1.207288415E1,-1.292954334E1,-3.200443667E0,1.797694252E1
1.001481967E1,1.330010947E1,-1.134342178E1,-2.696192653E0,1.768715874E1
1.002480567E1,1.341710524E1,-1.001335096E1,-2.441770359E0,1.691886973E1
1.003479067E1,1.195925872E1,-9.349370384E0,-2.912676457E0,1.545698159E1
1.004477567E1,9.325784470E0,-9.540215317E0,-4.163660764E0,1.397576600E1
1.005476167E1,8.293180220E0,-1.009686674E1,-5.386259762E0,1.413277575E1
1.006474667E1,9.373915826E0,-9.745967726E0,-6.081370327E0,1.482690965E1
1.007473267E1,1.083844220E1,-9.226306375E0,-5.888473606E0,1.540359309E1
1.008471767E1,1.248010881E1,-8.638151910E0,-4.539288236E0,1.584221960E1
1.009470367E1,1.395877609E1,-7.668288283E0,-2.482900259E0,1.611877380E1
1.010468867E1,1.392865474E1,-6.637600164E0,-7.417421097E-1,1.544717904E1
1.011467367E1,1.376505433E1,-6.023915001E0,8.207064182E-1,1.504785140E1
1.012465967E1,1.346638323E1,-5.754419171E0,2.698471313E0,1.489088865E1
1.013464467E1,1.318515321E1,-5.276059628E0,4.445554445E0,1.488112982E1
1.014463067E1,1.441889115E1,-5.310590944E0,6.251959335E0,1.658896602E1
1.015461567E1,1.605133787E1,-5.399216607E0,8.217713131E0,1.882359680E1
1.016460167E1,1.667967498E1,-4.439217233E0,1.012145545E1,2.000904964E1
1.017458667E1,1.599926023E1,-4.197031993E0,1.269283870E1,2.084944986E1
1.018457267E1,1.438446158E1,-4.536688856E0,1.533265191E1,2.150777756E1
1.019455767E1,1.251648200E1,-4.326006075E0,1.731380552E1,2.179780979E1
1.020454267E1,1.031503688E1,-4.491987185E0,1.887127456E1,2.197050155E1
1.021452867E1,8.626398422E0,-4.002137278E0,1.957221889E1,2.176013798E1
1.022451367E1,6.741461917E0,-3.547351370E0,1.892815277E1,2.040357757E1
1.023449967E1,3.630478311E0,-4.140011115E0,1.844141416E1,1.924592999E1
1.024448467E1,-5.023737654E-2,-3.885246467E0,1.896808457E1,1.936197036E1
1.025447067E1,-4.624670741E0,-3.506430801E0,1.962954266E1,2.046952812E1
1.026445567E1,-9.919227158E0,-3.311647183E0,1.954104972E1,2.216327365E1
1.027444067E1,-1.411632815E1,-2.792082896E0,1.888856478E1,2.374540643E1
1.028442667E1,-1.628238358E1,-2.359823094E0,1.710006289E1,2.372966352E1
1.029441167E1,-1.709401453E1,-2.057856651E0,1.437826938E1,2.243155672E1
1.030439767E1,-1.740927301E1,-1.727627108E0,1.173213298E1,2.106443511E1
1.031438267E1,-1.709386952E1,-1.383603690E0,9.400425348E0,1.955716572E1
1.032436867E1,-1.565464872E1,-1.268240317E0,7.152409496E0,1.725785102E1
1.033435367E1,-1.347910443E1,-1.031166567E0,5.294374276E0,1.451826297E1
1.034433867E1,-1.174746087E1,-8.457494581E-1,4.203841660E0,1.250561529E1
1.035432467E1,-1.062659173E1,-7.874601001E-1,3.641545921E0,1.126079047E1
1.036430967E1,-9.571375714E0,-8.473210435E-1,3.084950632E0,1.009188319E1
1.037429567E1,-8.006408790E0,-7.801127082E-1,2.249222717E0,8.352853428E0
1.038428067E1,-6.001214356E0,-6.316936373E-1,1.218996529E0,6.156262107E0
1.039426667E1,-4.243354220E0,-3.853766812E-1,1.427071452E-1,4.263207191E0
1.040425167E1,-2.890950250E0,-2.222357831E-1,-9.432190347E-1,3.049039888E0
1.041423667E1,-2.068602664E0,-2.750931508E-1,-1.910733835E0,2.829434045E0
1.042422267E1,-1.811943665E0,-3.620207823E-1,-2.681764063E0,3.256694241E0
1.043420767E1,-1.728690277E0,-4.870111199E-1,-3.131539493E0,3.609998546E0
1.044419367E1,-1.616100971E0,-6.325912580E-1,-3.375300558E0,3.795340288E0
1.045417912E1,-1.393575531E0,-7.123683295E-1,-3.688877378E0,4.007160803E0
1.046416512E1,-1.039614039E0,-7.222083163E-1,-3.983906829E0,4.180178923E0
1.047415012E1,-7.371872748E-1,-7.386499558E-1,-4.035519032E0,4.168268549E0
1.048413512E1,-3.663577352E-1,-7.221374188E-1,-3.882621360E0,3.966163016E0
1.049412112E1,4.075507117E-1,-5.078150381E-1,-3.769717473E0,3.825538331E0
1.050410612E1,1.420374928E0,-2.811548496E-1,-3.670151669E0,3.945443735E0
1.051409212E1,2.467238199E0,1.328692049E-2,-3.519716844E0,4.298354050E0
1.052407712E1,3.674622158E0,4.065156814E-1,-3.054588380E0,4.795686935E0
1.053406312E1,4.808071291E0,1.014972411E0,-2.050433173E0,5.324659118E0
1.054404812E1,5.704410274E0,1.513307212E0,-4.217257512E-1,5.916776817E0
1.055403312E1,6.363077483E0,1.822390593E0,1.322733151E0,6.749776701E0
1.056401912E1,7.096571510E0,2.157805594E0,2.821754592E0,7.935978273E0
1.057400412E1,7.845757710E0,2.274733681E0,4.236452751E0,9.202057339E0
1.058399012E1,8.341592826E0,2.347507688E0,5.394103217E0,1.020731663E1
1.059397512E1,8.587940699E0,2.368303018E0,6.286906389E0,1.090352129E1
1.060396112E1,8.302457997E0,2.186639968E0,7.271528973E0,1.125110380E1
1.061394612E1,7.835187698E0,2.095628934E0,8.380805424E0,1.166274952E1
1.062393112E1,7.236875449E0,1.840873203E0,9.446786751E0,1.204171750E1
1.063391713E1,6.636323133E0,1.608114844E0,1.031129349E1,1.236727907E1
1.064390212E1,6.422998579E0,1.511599533E0,1.124954005E1,1.304193219E1
1.065388812E1,6.626581671E0,1.557269503E0,1.198086769E1,1.377961768E1
1.066387312E1,6.576083947E0,1.299419718E0,1.230075015E1,1.400863397E1
1.067385913E1,6.518083076E0,7.902189627E-1,1.246195554E1,1.408581517E1
1.068384412E1,6.328352623E0,3.710604315E-1,1.260745649E1,1.411147377E1
1.069383012E1,5.504243125E0,-2.171453799E-1,1.300164302E1,1.412043079E1
1.070381512E1,4.228898733E0,-7.866504800E-1,1.348410146E1,1.415356477E1
1.071380012E1,2.847272134E0,-1.605317243E0,1.390214113E1,1.428122999E1
1.072378612E1,1.779970505E0,-2.299899512E0,1.394487024E1,1.424490221E1
1.073377112E1,9.309213169E-1,-3.123279716E0,1.357206698E1,1.395788282E1
1.074375712E1,3.870564401E-3,-4.144462600E0,1.288724693E1,1.353727146E1
1.075374213E1,-8.103730725E-1,-5.256517063E0,1.222493983E1,1.333179770E1
1.076372812E1,-1.662875041E0,-6.340399057E0,1.151160758E1,1.324699674E1
1.077371312E1,-3.117008869E0,-7.271154166E0,1.069056495E1,1.329938368E1
1.078369812E1,-4.620046470E0,-8.200437532E0,1.013152436E1,1.382894757E1
1.079368413E1,-5.959227254E0,-9.056244786E0,9.653864139E0,1.451637186E1
1.080366912E1,-7.242539647E0,-9.690492852E0,8.672805433E0,1.488548240E1
1.081365512E1,-8.051266875E0,-1.033377954E1,7.447980984E0,1.506925077E1
1.082364012E1,-8.361391498E0,-1.092179426E1,6.195359457E0,1.508578591E1
1.083362612E1,-8.768808528E0,-1.122945370E1,4.808660690E0,1.503714903E1
1.084361112E1,-9.481929687E0,-1.149978100E1,3.477466033E0,1.530505550E1
1.085359612E1,-1.037132335E1,-1.185926665E1,2.280225239E0,1.591873050E1
1.086358212E1,-1.142954893E1,-1.214433947E1,1.026174653E0,1.670845906E1
1.087356713E1,-1.240905110E1,-1.244529799E1,-1.967646539E-1,1.757579892E1
1.088355312E1,-1.320925660E1,-1.288846081E1,-1.278425290E0,1.849949332E1
1.089353812E1,-1.368752727E1,-1.302453019E1,-2.364697040E0,1.904149630E1
1.090352412E1,-1.362293892E1,-1.281662893E1,-3.337533976E0,1.899972566E1
1.091350913E1,-1.319739026E1,-1.265076915E1,-4.146782191E0,1.874590282E1
1.092349412E1,-1.274973912E1,-1.267340022E1,-4.753781648E0,1.859487458E1
1.093348012E1,-1.231144353E1,-1.234555853E1,-5.252887112E0,1.820926358E1
1.094346512E1,-1.163322850E1,-1.199529979E1,-5.596230937E0,1.762206069E1
1.095345112E1,-1.079775728E1,-1.184535964E1,-5.665250886E0,1.699997573E1
1.096343612E1,-9.928545281E0,-1.169106565E1,-5.532237840E0,1.630529616E1
1.097342212E1,-8.920339122E0,-1.155236034E1,-5.367293733E0,1.555111962E1
1.098340712E1,-8.054790992E0,-1.165697638E1,-5.168228785E0,1.508228580E1
1.099339213E1,-7.794491662E0,-1.183669640E1,-5.066473784E0,1.505093481E1
1.100337812E1,-7.690699491E0,-1.162757424E1,-5.252847351E0,1.489764232E1
1.101336312E1,-7.339607520E0,-1.148517583E1,-5.277276433E0,1.461604423E1
1.102334912E1,-6.742281697E0,-1.151833305E1,-5.011623977E0,1.425646287E1
1.103333412E1,-5.935095795E0,-1.159818380E1,-4.843934019E0,1.389988943E1
1.104332012E1,-5.078088693E0,-1.178032924E1,-4.812601714E0,1.370125093E1
1.105330512E1,-4.276325792E0,-1.185472220E1,-4.815251087E0,1.349103568E1
1.106329012E1,-3.544516640E0,-1.168267372E1,-4.869850925E0,1.314396864E1
1.107327612E1,-3.072102253E0,-1.165767103E1,-4.854179510E0,1.299623656E1
1.108326112E1,-2.746795334E0,-1.181871037E1,-4.816533381E0,1.305472302E1
1.109324712E1,-1.809646001E0,-1.181112302E1,-4.854508708E0,1.289742999E1
1.110323212E1,-5.037641602E-1,-1.164234899E1,-4.691977455E0,1.256235331E1
1.111321812E1,5.809864370E-1,-1.145550706E1,-4.428158979E0,1.229531533E1
1.112320312E1,1.259164562E0,-1.139873059E1,-4.316582994E0,1.225354819E1
1.113318812E1,1.358944812E0,-1.143609196E1,-4.621826363E0,1.240935975E1
1.114317412E1,9.059342641E-1,-1.171285237E1,-5.314523197E0,1.289402127E1
1.115315912E1,6.943629983E-1,-1.208815006E1,-6.261143557E0,1.363111993E1
1.116314512E1,1.039705987E0,-1.241237934E1,-7.148756740E0,1.436150662E1
1.117313012E1,1.587001425E0,-1.261381007E1,-7.920535997E0,1.497870717E1
1.118311613E1,2.819272741E0,-1.272152163E1,-8.290978743E0,1.544427855E1
1.119310112E1,4.117792865E0,-1.262561443E1,-8.129440640E0,1.557081125E1
1.120308612E1,4.838000849E0,-1.244114647E1,-7.537356845E0,1.532971382E1
1.121307212E1,5.028373911E0,-1.225822685E1,-6.713727989E0,1.485337717E1
1.122305712E1,4.687206712E0,-1.205752936E1,-6.080989673E0,1.429448693E1
1.123304312E1,3.774382381E0,-1.215609939E1,-5.739007080E0,1.396255410E1
1.124302812E1,2.724911837E0,-1.264955527E1,-5.842505136E0,1.419757935E1
1.125301412E1,2.408104138E0,-1.303677894E1,-6.723045527E0,1.486458583E1
1.126299912E1,2.451479076E0,-1.311566724E1,-7.715750132E0,1.541308784E1
1.127298412E1,2.376028067E0,-1.294433797E1,-8.458451185E0,1.564438530E1
1.128297012E1,2.926618850E0,-1.302085346E1,-8.805000454E0,1.598861332E1
1.129295512E1,4.127364757E0,-1.320358129E1,-8.233281927E0,1.609834246E1
1.130294113E1,5.468227201E0,-1.309795251E1,-6.640342509E0,1.567009947E1
1.131292612E1,7.805788482E0,-1.273558886E1,-4.409297615E0,1.557457746E1
1.132291212E1,1.104282227E1,-1.206450509E1,-2.294980688E0,1.651554247E1
1.133289712E1,1.432839964E1,-1.091821460E1,-9.390657574E-1,1.803863329E1
1.134288212E1,1.752064844E1,-9.699015169E0,1.100024986E-1,2.002638553E1
1.135286812E1,1.887421922E1,-8.753506365E0,1.679631992E0,2.087297747E1
1.136285312E1,1.891728864E1,-8.255486144E0,4.133591457E0,2.105002231E1
1.137283912E1,1.920712109E1,-7.596652290E0,7.288561327E0,2.190309916E1
1.138282413E1,1.950021160E1,-6.741350235E0,1.052920285E1,2.316394112E1
1.139281012E1,2.031869081E1,-5.588246564E0,1.287214591E1,2.469351810E1
1.140279512E1,2.085181187E1,-4.690864438E0,1.446361183E1,2.580694353E1
1.141278012E1,1.965370803E1,-4.147627406E0,1.556906303E1,2.541390910E1
1.142276613E1,1.644389771E1,-3.428454672E0,1.529631498E1,2.271856785E1
1.143275112E1,1.178812007E1,-4.544539620E0,1.558359921E1,2.006143513E1
1.144273712E1,7.061468920E0,-5.840862653E0,1.738563857E1,1.965300100E1
1.145272192E1,3.219150079E0,-6.485500637E0,1.961853586E1,2.091199644E1
1.146270792E1,1.599668102E-1,-6.551480033E0,2.179026426E1,2.275440828E1
1.147269292E1,-2.045316713E0,-5.484394752E0,2.342266419E1,2.414297215E1
1.148267892E1,-3.489414818E0,-3.254168469E0,2.268177987E1,2.317819592E1
1.149266392E1,-5.031762373E0,-1.970835903E0,2.014243936E1,2.085475222E1
1.150264892E1,-7.561742073E0,-1.589042542E0,1.730496570E1,1.895169748E1
1.151263492E1,-1.078315093E1,-1.230737592E0,1.500375422E1,1.851765913E1
1.152261992E1,-1.437311681E1,-1.210830892E0,1.337350840E1,1.966985829E1
1.153260592E1,-1.659623639E1,-7.781859045E-1,1.231692822E1,2.068205397E1
1.154259092E1,-1.634897518E1,-4.186591789E-2,1.182163163E1,2.017527488E1
1.155257692E1,-1.387639233E1,5.982239556E-1,1.091021794E1,1.766196455E1
1.156256192E1,-1.125464234E1,9.112081602E-1,9.133774188E0,1.452319198E1
1.157254692E1,-1.005690921E1,1.026470229E0,7.244563953E0,1.243699203E1
1.158253292E1,-9.551938400E0,1.067255143E0,5.472544200E0,1.106016730E1
1.159251792E1,-9.090439303E0,1.203649196E0,3.688109638E0,9.883673953E0
1.160250392E1,-8.433939072E0,1.385872263E0,2.132031652E0,8.808945974E0
1.161248892E1,-7.431362028E0,1.450063874E0,1.067990431E0,7.646465222E0
1.162247492E1,-6.209074101E0,1.384645956E0,6.368103164E-1,6.393385097E0
1.163245992E1,-5.047783744E0,1.362963311E0,7.130515766E-1,5.276952933E0
1.164244492E1,-4.292168238E0,1.188760577E0,9.137087220E-1,4.546506738E0
1.165243092E1,-3.965130250E0,8.601099274E-1,9.583843732E-1,4.168998393E0
1.166241592E1,-4.038214891E0,3.341046399E-1,7.803729093E-1,4.126473954E0
1.167240192E1,-4.169848579E0,-1.768497683E-1,2.637936258E-1,4.181925405E0
1.168238692E1,-4.184703723E0,-6.431577614E-1,-4.871484929E-1,4.261773200E0
1.169237292E1,-4.128849073E0,-1.041054282E0,-1.190140520E0,4.421269404E0
1.170235792E1,-4.042115276E0,-1.301040858E0,-1.698883950E0,4.573577363E0
1.171234292E1,-3.928228472E0,-1.495406692E0,-2.100132167E0,4.698699312E0
1.172232892E1,-3.834826511E0,-1.671200161E0,-2.475117615E0,4.860556713E0
1.173231392E1,-3.459644305E0,-1.757324093E0,-2.878592452E0,4.831523692E0
1.174229992E1,-2.376762477E0,-1.655130550E0,-3.347612237E0,4.426620009E0
1.175228492E1,-7.467737849E-1,-1.305099703E0,-3.594801525E0,3.896608054E0
1.176227092E1,6.837666741E-1,-9.638639452E-1,-3.488050663E0,3.682807081E0
1.177225592E1,1.557171708E0,-6.759781098E-1,-3.263859644E0,3.678927821E0
1.178224092E1,1.830451710E0,-4.675395629E-1,-3.084696863E0,3.617250537E0
1.179222692E1,1.758178663E0,-4.269538198E-1,-3.072695453E0,3.565801330E0
1.180221192E1,1.627402761E0,-4.521106611E-1,-3.263756733E0,3.674908408E0
1.181219792E1,1.875353649E0,-4.007292037E-1,-3.626522670E0,4.102341024E0
1.182218292E1,2.889340219E0,-2.329026394E-1,-4.100009728E0,5.021216019E0
1.183216892E1,4.660125625E0,7.792058051E-2,-4.596900267E0,6.546322214E0
1.184215392E1,6.698864366E0,6.058314756E-1,-4.678302280E0,8.193187890E0
1.185213892E1,8.342154159E0,1.056885106E0,-3.958222935E0,9.293872763E0
1.186212492E1,9.507518272E0,1.506336892E0,-2.697240474E0,9.996852539E0
1.187210992E1,1.006735116E1,2.018047930E0,-9.394803250E-1,1.031051406E1
1.188209592E1,1.010212689E1,2.320878591E0,1.146258920E0,1.042848765E1
1.189208092E1,9.697176805E0,2.405111533E0,3.178568648E0,1.048442169E1
1.190206692E1,8.929559596E0,2.265369219E0,4.879675709E0,1.042497805E1
1.191205192E1,7.912637578E0,1.926616335E0,5.578674672E0,9.871337044E0
1.192203692E1,6.821457090E0,1.423846128E0,5.647427403E0,8.969562470E0
1.193202292E1,5.941551706E0,1.048477687E0,5.953467747E0,8.476150090E0
1.194200792E1,5.132798166E0,9.109326102E-1,6.860262721E0,8.616183601E0
1.195199392E1,4.367995223E0,6.903659879E-1,8.210607010E0,9.325773691E0
1.196197892E1,3.879569698E0,5.984812331E-1,9.860074385E0,1.061274270E1
1.197196492E1,3.690570146E0,5.540130119E-1,1.178669569E1,1.236339087E1
1.198194992E1,3.607458993E0,4.791003853E-1,1.354745371E1,1.402771541E1
1.199193492E1,3.390227622E0,2.035355835E-1,1.471906615E1,1.510582598E1
1.200192092E1,2.875182356E0,-1.790920293E-1,1.511132428E1,1.538346089E1
1.201190592E1,2.111183697E0,-6.928381176E-1,1.449222576E1,1.466157320E1
1.202189192E1,1.417421938E0,-1.282543484E0,1.319895965E1,1.333666145E1
1.203187692E1,6.830289017E-1,-1.540067433E0,1.214218067E1,1.225850267E1
1.204186292E1,-1.311960241E-1,-1.852361666E0,1.147506365E1,1.162435125E1
1.205184792E1,-8.311933994E-1,-2.147301802E0,1.102566420E1,1.126352780E1
1.206183292E1,-1.146003982E0,-2.449936873E0,1.111082773E1,1.143529661E1
1.207181892E1,-1.398096160E0,-3.000143201E0,1.138128250E1,1.185281078E1
1.208180392E1,-1.456901900E0,-3.544919805E0,1.130404312E1,1.193609695E1
1.209178992E1,-1.513835946E0,-4.094319218E0,1.101730151E1,1.185057306E1
1.210177492E1,-2.101039508E0,-4.779065593E0,1.048201816E1,1.171010417E1
1.211176092E1,-2.828498478E0,-5.563923317E0,9.811267676E0,1.162835413E1
1.212174592E1,-3.666913189E0,-6.416484196E0,9.182748127E0,1.178729761E1
1.213173092E1,-4.752802531E0,-7.225797315E0,8.474069683E0,1.210830854E1
1.214171692E1,-5.738638705E0,-7.880941576E0,7.669388144E0,1.240406098E1
1.215170192E1,-6.430860745E0,-8.344229921E0,6.839414474E0,1.256024416E1
1.216168792E1,-6.711531774E0,-8.720959593E0,6.120784069E0,1.259221158E1
1.217167292E1,-6.824768953E0,-9.068665441E0,5.348700757E0,1.254698226E1
1.218165892E1,-6.773043898E0,-9.312310731E0,4.355385702E0,1.231107791E1
1.219164392E1,-6.819445063E0,-9.552600889E0,3.470901364E0,1.223945142E1
1.220162992E1,-7.172103503E0,-1.009869107E1,2.776094854E0,1.269367294E1
1.221161492E1,-7.688124962E0,-1.064383868E1,1.952889336E0,1.327449977E1
1.222159992E1,-8.200279657E0,-1.104796197E1,9.648332673E-1,1.379249627E1
1.223158592E1,-8.926261182E0,-1.126733313E1,-4.803896964E-2,1.437474321E1
1.224157092E1,-9.441722478E0,-1.128666754E1,-1.036211983E0,1.475156679E1
1.225155692E1,-9.642463823E0,-1.095657116E1,-1.847152966E0,1.471174817E1
1.226154192E1,-9.741670607E0,-1.059861164E1,-2.242080928E0,1.456906455E1
1.227152792E1,-9.461383156E0,-1.014575882E1,-2.382487779E0,1.407588154E1
1.228151292E1,-8.867632905E0,-9.567066316E0,-2.441030686E0,1.327110779E1
1.229149792E1,-8.405782975E0,-9.347495767E0,-2.324934804E0,1.278429452E1
1.230148392E1,-8.149763807E0,-9.520826535E0,-2.118287771E0,1.271030806E1
1.231146892E1,-7.926284394E0,-9.618412471E0,-2.193414552E0,1.265507448E1
1.232145492E1,-7.478526839E0,-9.811970512E0,-2.553398384E0,1.259853056E1
1.233143992E1,-7.085963491E0,-1.005221857E1,-2.964914312E0,1.265103528E1
1.234142592E1,-6.870296543E0,-1.013986950E1,-3.302609727E0,1.268562805E1
1.235141092E1,-7.161469172E0,-1.038140979E1,-3.548120279E0,1.310150631E1
1.236139592E1,-7.674215021E0,-1.055655378E1,-3.751812714E0,1.357978286E1
1.237138192E1,-7.880424097E0,-1.037240157E1,-3.868307668E0,1.358865713E1
1.238136692E1,-7.821516323E0,-1.061966161E1,-3.676500868E0,1.369196805E1
1.239135292E1,-7.531011447E0,-1.085734976E1,-3.404651241E0,1.364513933E1
1.240133792E1,-6.889828582E0,-1.097689374E1,-3.170082584E0,1.334208971E1
1.241132392E1,-6.018351375E0,-1.096179389E1,-3.026025317E0,1.286616912E1
1.242130892E1,-5.310248882E0,-1.092495293E1,-3.012130578E0,1.251504176E1
1.243129392E1,-4.688098705E0,-1.126023695E1,-2.920063244E0,1.254184895E1
1.244127992E1,-4.174270244E0,-1.153785339E1,-2.818443021E0,1.258928966E1
1.245126492E1,-3.829357611E0,-1.186593950E1,-2.694058419E0,1.275627103E1
1.246125050E1,-3.531746321E0,-1.217404098E1,-2.553813536E0,1.293067939E1
1.247123550E1,-3.235190453E0,-1.230706631E1,-2.441838187E0,1.295734973E1
1.248122150E1,-2.541253132E0,-1.244911272E1,-2.261250732E0,1.290548836E1
1.249120650E1,-1.497104577E0,-1.234624031E1,-1.924702249E0,1.258473086E1
1.250119150E1,-4.090112731E-1,-1.213732982E1,-1.560873288E0,1.224411658E1
1.251117750E1,7.543226134E-1,-1.208137431E1,-1.309010906E0,1.217547196E1
1.252116250E1,1.764511636E0,-1.187370226E1,-1.329750102E0,1.207752218E1
1.253114850E1,2.527566262E0,-1.188828989E1,-1.573027018E0,1.225538420E1
1.254113350E1,3.319554373E0,-1.205287732E1,-2.332701369E0,1.271742067E1
1.255111950E1,3.730141178E0,-1.193610491E1,-3.609415179E0,1.301585309E1
1.256110450E1,3.397300707E0,-1.194588263E1,-4.866169226E0,1.333886677E1
1.257108950E1,2.996606221E0,-1.186498055E1,-5.614070792E0,1.346384801E1
1.258107550E1,2.164084334E0,-1.197508830E1,-5.675365984E0,1.342742641E1
1.259106050E1,1.345397544E0,-1.241122276E1,-5.642271329E0,1.369977265E1
1.260104650E1,1.984215794E0,-1.250376313E1,-5.771041635E0,1.391352315E1
1.261103150E1,3.692232510E0,-1.248689509E1,-5.746408485E0,1.423293154E1
1.262101750E1,5.572840905E0,-1.227171521E1,-5.563155577E0,1.458081788E1
1.263100250E1,7.203196657E0,-1.170070654E1,-5.254920774E0,1.471077047E1
1.264098750E1,7.566231565E0,-1.119392134E1,-5.143819583E0,1.445719942E1
1.265097350E1,6.833611697E0,-1.101873291E1,-5.448158387E0,1.406389539E1
1.266095850E1,5.830452855E0,-1.099345891E1,-5.931009176E0,1.378503497E1
1.267094450E1,5.630731264E0,-1.093377170E1,-6.122786740E0,1.373830468E1
1.268092950E1,6.635843661E0,-1.076727223E1,-5.717320926E0,1.388006956E1
1.269091550E1,8.306463924E0,-1.039740427E1,-4.891928549E0,1.417865732E1
1.270090050E1,9.778415680E0,-9.915827587E0,-3.771561685E0,1.442794952E1
1.271088550E1,1.064994902E1,-9.274357624E0,-2.798149382E0,1.439669280E1
1.272087150E1,1.071909702E1,-8.634319060E0,-2.441780884E0,1.397901286E1
1.273085650E1,1.083417724E1,-8.069851080E0,-2.381650457E0,1.371765840E1
1.274084250E1,1.143099553E1,-7.888361692E0,-2.042117847E0,1.403795406E1
1.275082750E1,1.265392314E1,-7.605775115E0,-9.579967028E-1,1.479484179E1
1.276081350E1,1.413249219E1,-7.411370983E0,1.532151765E0,1.603132073E1
1.277079850E1,1.525582769E1,-7.338933336E0,4.633234280E0,1.755183981E1
1.278078350E1,1.590979198E1,-6.670001925E0,7.601521266E0,1.885188405E1
1.279076950E1,1.587311123E1,-6.209196308E0,1.060230123E1,2.007283164E1
1.280075450E1,1.512393087E1,-4.784836210E0,1.267455563E1,2.030448972E1
1.281074050E1,1.407917845E1,-3.222151162E0,1.395973270E1,2.008680315E1
1.282072550E1,1.254823238E1,-3.988962040E0,1.488671869E1,1.987421313E1
1.283071150E1,1.059491269E1,-4.731720688E0,1.459210439E1,1.864325256E1
1.284069650E1,7.780844845E0,-4.879504093E0,1.402361353E1,1.676343769E1
1.285068150E1,3.610910019E0,-4.778428246E0,1.428947941E1,1.549391072E1
1.286066750E1,-6.306091981E-1,-4.073736142E0,1.517672188E1,1.572659788E1
1.287065250E1,-4.630288453E0,-3.400000658E0,1.629257878E1,1.727563889E1
1.288063850E1,-7.889537567E0,-2.844554055E0,1.783435039E1,1.970787519E1
1.289062350E1,-9.601755508E0,-1.864662746E0,1.936470823E1,2.169475975E1
1.290060950E1,-1.043899083E1,-7.960791153E-1,2.012147125E1,2.268214886E1
1.291059450E1,-1.130551779E1,1.688636412E-1,1.965348583E1,2.267383410E1
1.292057950E1,-1.212032027E1,7.036915000E-1,1.782860725E1,2.156980718E1
1.293056550E1,-1.289427996E1,1.347123934E0,1.503545431E1,1.985301199E1
1.294055050E1,-1.363223482E1,1.597682680E0,1.195994518E1,1.820523839E1
1.295053650E1,-1.388004684E1,1.212258636E0,9.046355390E0,1.661209852E1
1.296052150E1,-1.359799236E1,7.338349199E-1,6.772037593E0,1.520869498E1
1.297050750E1,-1.311230158E1,4.787592003E-1,5.384551206E0,1.418291418E1
1.298049250E1,-1.227400264E1,6.136784390E-1,4.733477776E0,1.316941737E1
1.299047750E1,-1.102362820E1,8.048396330E-1,4.559900841E0,1.195662332E1
1.300046350E1,-9.390561680E0,7.884365851E-1,4.216916034E0,1.032408164E1
1.301044850E1,-7.482681870E0,7.991923922E-1,3.319670148E0,8.224928349E0
1.302043450E1,-5.730867171E0,9.747108226E-1,2.351840183E0,6.270889248E0
1.303041950E1,-4.542464443E0,1.112146922E0,1.670465897E0,4.966015536E0
1.304040550E1,-4.007667575E0,9.374986305E-1,1.041258130E0,4.245529598E0
1.305039050E1,-3.744830554E0,5.771818730E-1,3.816822642E-1,3.808224802E0
1.306037550E1,-3.298450602E0,2.856518336E-1,-1.034009922E-1,3.312410770E0
1.307036150E1,-2.808971409E0,-4.956297331E-2,-2.219357479E-1,2.818161163E0
1.308034650E1,-2.461000974E0,-3.030956127E-1,-1.203368676E-1,2.482513587E0
1.309033250E1,-2.007645880E0,-2.990891737E-1,-1.745452344E-2,2.029877083E0
1.310031750E1,-1.428640845E0,-3.681892294E-1,-3.868108571E-2,1.475830003E0
1.311030350E1,-9.446828851E-1,-3.574405121E-1,-2.706681973E-1,1.045681953E0
1.312028850E1,-5.671655926E-1,-2.950367609E-1,-5.934128666E-1,8.722742286E-1
1.313027350E1,-6.519163057E-2,-1.833096991E-1,-1.031385106E0,1.049574977E0
1.314025950E1,5.584852548E-1,-1.302006818E-2,-1.281475198E0,1.397946345E0
1.315024450E1,1.293803906E0,3.348454821E-1,-1.621766776E0,2.101470323E0
1.316023050E1,2.131205002E0,5.727465041E-1,-1.824990849E0,2.863680310E0
1.317021550E1,3.009892849E0,7.558141650E-1,-1.853797157E0,3.614868450E0
1.318020150E1,4.042017628E0,1.051209653E0,-1.779793627E0,4.539891363E0
1.319018650E1,4.943384632E0,1.257627913E0,-1.376486020E0,5.283312725E0
1.320017150E1,5.579444751E0,1.504697333E0,-6.880863047E-1,5.819603127E0
1.321015750E1,6.437814839E0,1.904640305E0,1.693078834E-1,6.715785863E0
1.322014250E1,7.337640517E0,2.349744248E0,1.044315639E0,7.775143828E0
1.323012850E1,7.983186573E0,2.561260550E0,1.894733514E0,8.595425444E0
1.324011350E1,8.471147829E0,2.660360915E0,2.636230626E0,9.262158369E0
1.325009950E1,8.649207825E0,2.772871577E0,3.248748100E0,9.646345266E0
1.326008450E1,8.435631841E0,2.790033740E0,3.778641493E0,9.655169826E0
1.327006950E1,7.803785226E0,2.627933426E0,4.379156388E0,9.326419925E0
1.328005550E1,7.052623252E0,2.592525027E0,5.422824740E0,9.266483093E0
1.329004050E1,6.252594928E0,2.493826366E0,7.168734922E0,9.833863618E0
1.330002650E1,6.084437776E0,2.647123404E0,9.217085316E0,1.135703778E1
1.331001150E1,6.870943830E0,2.811060035E0,1.137487161E1,1.358306416E1
1.331999750E1,8.001753237E0,2.872656651E0,1.338583900E1,1.585751863E1
1.332998250E1,8.840661453E0,2.642805820E0,1.485321181E1,1.748598349E1
1.333996750E1,8.883609837E0,1.944062526E0,1.537926241E1,1.786671808E1
1.334995350E1,7.935237066E0,1.040992374E0,1.488281509E1,1.689821995E1
1.335993850E1,6.468950093E0,-1.824717748E-1,1.411812324E1,1.553067980E1
1.336992450E1,4.715825909E0,-1.632258143E0,1.343567132E1,1.433249958E1
1.337990950E1,3.122306154E0,-2.937019000E0,1.291346584E1,1.360633956E1
1.338989550E1,1.759364040E0,-4.176202164E0,1.279784300E1,1.357648009E1
1.339988050E1,3.135146932E-1,-5.324797339E0,1.269863797E1,1.377342239E1
1.340986550E1,-1.027889641E0,-6.318330495E0,1.225988513E1,1.383049676E1
1.341985150E1,-1.975161088E0,-7.178119703E0,1.167942501E1,1.385047408E1
1.342983650E1,-2.958442613E0,-8.049979903E0,1.102552153E1,1.396841738E1
1.343982250E1,-4.392503535E0,-8.942346872E0,1.023086621E1,1.428041590E1
1.344980750E1,-6.326324224E0,-9.785013678E0,9.117328309E0,1.479508521E1
1.345979400E1,-8.043185438E0,-1.075744657E1,7.893856906E0,1.557974536E1
1.346977900E1,-9.565257772E0,-1.131732332E1,6.566131402E0,1.620771560E1
1.347976400E1,-1.098279008E1,-1.168839581E1,5.398540669E0,1.692289916E1
1.348975000E1,-1.204652023E1,-1.209729160E1,4.477190221E0,1.764959903E1
1.349973500E1,-1.244984830E1,-1.231405724E1,3.511903794E0,1.785968075E1
1.350972100E1,-1.242304700E1,-1.230947653E1,2.571643451E0,1.767678306E1
1.351970600E1,-1.213331279E1,-1.220625446E1,1.952524470E0,1.732115120E1
1.352969200E1,-1.176505398E1,-1.209694427E1,1.694856387E0,1.695951338E1
1.353967700E1,-1.149472667E1,-1.199274221E1,1.546465164E0,1.668370947E1
1.354966200E1,-1.142431684E1,-1.198517358E1,1.263764566E0,1.660591767E1
1.355964800E1,-1.134658512E1,-1.208341850E1,7.697888643E-1,1.659357018E1
1.356963300E1,-1.121413633E1,-1.226246492E1,1.797112495E-1,1.661797809E1
1.357961900E1,-1.104057343E1,-1.232223399E1,-4.103049695E-1,1.654992635E1
1.358960400E1,-1.070576771E1,-1.242768501E1,-9.782853717E-1,1.643222016E1
1.359959000E1,-1.023681751E1,-1.267711203E1,-1.594221128E0,1.637202318E1
1.360957500E1,-9.446385632E0,-1.250997522E1,-2.472812642E0,1.586973484E1
1.361956000E1,-8.612855101E0,-1.231196043E1,-3.185741428E0,1.535951142E1
1.362954600E1,-8.096131391E0,-1.234835350E1,-3.544351748E0,1.518524306E1
1.363953100E1,-7.603402315E0,-1.220328642E1,-3.880635645E0,1.489265789E1
1.364951700E1,-7.093704035E0,-1.193008228E1,-4.152260447E0,1.448753834E1
1.365950200E1,-6.809041112E0,-1.173680725E1,-4.258892903E0,1.422159815E1
1.366948800E1,-6.496923172E0,-1.163599891E1,-4.374458735E0,1.402648818E1
1.367947300E1,-6.140897321E0,-1.158458083E1,-4.551853318E0,1.387921113E1
1.368945800E1,-5.820928910E0,-1.170212975E1,-4.699674438E0,1.388920422E1
1.369944400E1,-5.440706111E0,-1.193455306E1,-4.789032172E0,1.396315398E1
1.370942900E1,-5.235666477E0,-1.232054648E1,-4.840524215E0,1.423512359E1
1.371941500E1,-5.141274875E0,-1.236729497E1,-4.904386335E0,1.426308864E1
1.372940000E1,-4.685996631E0,-1.233036512E1,-4.908718244E0,1.407451538E1
1.373938600E1,-3.873680090E0,-1.207160361E1,-4.804432569E0,1.355771306E1
1.374937100E1,-3.033918181E0,-1.165231030E1,-4.619067646E0,1.289638635E1
1.375935600E1,-1.917631795E0,-1.130925884E1,-4.463912656E0,1.230866213E1
1.376934200E1,-9.257814682E-1,-1.122645993E1,-4.228834414E0,1.203218660E1
1.377932700E1,-2.792211389E-1,-1.134262773E1,-4.149381863E0,1.208099905E1
1.378931300E1,6.724827173E-1,-1.132098601E1,-4.490692027E0,1.219767487E1
1.379929800E1,1.233652867E0,-1.131284201E1,-5.089995963E0,1.246636886E1
1.380928400E1,1.165559264E0,-1.149754386E1,-5.902810394E0,1.297671814E1
1.381926900E1,1.479787610E0,-1.142194053E1,-6.736477751E0,1.334281190E1
1.382925400E1,1.977899778E0,-1.118638194E1,-7.225797315E0,1.346326020E1
1.383924000E1,2.211398687E0,-1.123673699E1,-7.334944366E0,1.359985115E1
1.384922500E1,2.333858240E0,-1.133226178E1,-7.289383446E0,1.367487340E1
1.385921100E1,2.305547192E0,-1.111829696E1,-6.982779431E0,1.333008941E1
1.386919600E1,1.482139360E0,-1.111688310E1,-6.533245491E0,1.297941153E1
1.387918200E1,3.553706709E-1,-1.144035341E1,-6.436741290E0,1.313162644E1
1.388916700E1,2.195448214E-1,-1.178929419E1,-6.549453973E0,1.348818019E1
1.389915200E1,7.891767696E-1,-1.197580049E1,-6.651769137E0,1.372183042E1
1.390913800E1,2.160403804E0,-1.206416712E1,-6.704580020E0,1.397007037E1
1.391912300E1,3.763723784E0,-1.197095549E1,-6.317449905E0,1.404918380E1
1.392910900E1,4.821652911E0,-1.174590551E1,-5.642254956E0,1.389423169E1
1.393909400E1,5.022594523E0,-1.159497368E1,-4.971126162E0,1.357873211E1
1.394908000E1,3.857701404E0,-1.154429586E1,-4.602986634E0,1.301307469E1
1.395906500E1,1.922152863E0,-1.189343544E1,-4.914293565E0,1.301148568E1
1.396905000E1,1.676684411E0,-1.233148545E1,-5.148167573E0,1.346775532E1
1.397903600E1,2.785113015E0,-1.241513689E1,-4.310685493E0,1.343407934E1
1.398902100E1,4.892089933E0,-1.185095425E1,-2.597308635E0,1.308142472E1
1.399900700E1,7.893779722E0,-1.140150217E1,-2.259024990E-1,1.386928412E1
1.400899200E1,1.114246818E1,-1.076616945E1,2.440841237E0,1.568511102E1
1.401897800E1,1.415804803E1,-9.519702115E0,5.014157576E0,1.778248657E1
1.402896300E1,1.664880052E1,-7.732108887E0,6.743258767E0,1.955606313E1
1.403894800E1,1.827219223E1,-6.117711942E0,7.624411361E0,2.072271838E1
1.404893400E1,1.930333117E1,-4.685182114E0,8.661092291E0,2.166988799E1
1.405891900E1,1.933666615E1,-3.618753474E0,1.016609894E1,2.214388408E1
1.406890500E1,1.864302382E1,-3.394173323E0,1.250855200E1,2.270565178E1
1.407889000E1,1.809445910E1,-3.420204835E0,1.525982718E1,2.391588545E1
1.408887600E1,1.750002765E1,-3.481051838E0,1.718111700E1,2.477013263E1
1.409886100E1,1.659021375E1,-3.497143083E0,1.715851634E1,2.412218657E1
1.410884600E1,1.553937672E1,-2.800635326E0,1.528773945E1,2.197796088E1
1.411883200E1,1.403950392E1,-2.398829723E0,1.335363254E1,1.952387145E1
1.412881700E1,1.157846114E1,-2.782347867E0,1.270061784E1,1.740999470E1
1.413880300E1,8.044357805E0,-2.849501969E0,1.253433939E1,1.516380619E1
1.414878800E1,3.048304378E0,-3.853235300E0,1.301285915E1,1.390949622E1
1.415877400E1,-3.066592129E0,-5.209317169E0,1.402979169E1,1.527664975E1
1.416875900E1,-8.907972261E0,-5.821304301E0,1.468443310E1,1.813483192E1
1.417874400E1,-1.358741709E1,-5.994231026E0,1.470984393E1,2.090282797E1
1.418873000E1,-1.634100776E1,-5.264019041E0,1.408076187E1,2.220374487E1
1.419871500E1,-1.679844714E1,-3.934107848E0,1.308840635E1,2.165574777E1
1.420870100E1,-1.611142269E1,-2.818633933E0,1.192265047E1,2.024036147E1
1.421868600E1,-1.581740246E1,-2.023178131E0,1.120300440E1,1.948822152E1
1.422867200E1,-1.589968565E1,-1.594208703E0,1.077744873E1,1.927420313E1
1.423865700E1,-1.583655911E1,-1.282489690E0,1.000939473E1,1.877842824E1
1.424864300E1,-1.534538481E1,-9.051264712E-1,8.977324916E0,1.780147330E1
1.425862800E1,-1.405384948E1,-5.717793381E-1,7.597623512E0,1.598629100E1
1.426861300E1,-1.219129261E1,-3.476504458E-1,5.893734346E0,1.354564804E1
1.427859900E1,-1.043318455E1,-9.770536557E-2,3.942133151E0,1.115353307E1
1.428858400E1,-8.802443467E0,1.103822753E-2,2.132144503E0,9.056995805E0
1.429857000E1,-7.169584522E0,9.385512024E-3,8.082933640E-1,7.215009943E0
1.430855500E1,-5.601395783E0,2.275414735E-2,-2.729573822E-1,5.608088640E0
1.431854000E1,-4.145557199E0,1.360643428E-1,-1.422857364E0,4.385052004E0
1.432852600E1,-2.887974894E0,2.612003857E-1,-2.546070653E0,3.858898859E0
1.433851100E1,-2.364869826E0,2.217436668E-1,-3.146487899E0,3.942355343E0
1.434849700E1,-2.607622246E0,1.458493658E-1,-3.102433807E0,4.055374378E0
1.435848200E1,-3.166088936E0,8.213108741E-2,-2.601524477E0,4.098633220E0
1.436846800E1,-3.581783284E0,-1.132947734E-1,-1.966402252E0,4.087633180E0
1.437845300E1,-4.044521406E0,-1.329995978E-1,-1.564325484E0,4.338543133E0
1.438843800E1,-4.262889767E0,-2.500474066E-1,-1.540389907E0,4.539554377E0
1.439842400E1,-3.856740122E0,-3.924792941E-1,-1.857975578E0,4.298901907E0
1.440840900E1,-2.933527335E0,-5.467140788E-1,-2.186022502E0,3.699077357E0
1.441839500E1,-2.334843350E0,-6.273101990E-1,-2.248343881E0,3.301524157E0
1.442838000E1,-1.720485464E0,-6.810667954E-1,-2.303260930E0,2.954476794E0
1.443836600E1,-1.044849051E0,-6.565448885E-1,-2.292304417E0,2.603347897E0
1.444835100E1,-4.526877813E-1,-5.915470932E-1,-2.144075162E0,2.269782476E0
1.445833737E1,1.765733412E-1,-4.367489292E-1,-1.994400474E0,2.049283051E0
1.446832237E1,3.987979415E-1,-1.489127952E-1,-1.731340089E0,1.782905865E0
1.447830737E1,2.550263107E-1,1.190393704E-1,-1.225702701E0,1.257599261E0
1.448829338E1,2.089506899E-1,3.283725413E-1,-6.453963679E-1,7.536745905E-1
1.449827837E1,5.751202910E-1,5.572739310E-1,-2.731175959E-1,8.461151248E-1
1.450826437E1,1.186922651E0,6.898574263E-1,-1.193188673E-1,1.378015109E0
1.451824937E1,1.592893226E0,7.586649750E-1,5.729745090E-2,1.765266090E0
1.452823438E1,1.717104604E0,7.222543631E-1,2.590421784E-1,1.880745181E0
1.453822037E1,1.850103033E0,6.161196515E-1,3.372182822E-1,1.978939319E0
1.454820537E1,1.839399997E0,5.806013247E-1,5.424017572E-1,2.003669113E0
1.455819137E1,2.058745867E0,5.811296207E-1,8.708229035E-1,2.309649045E0
1.456817638E1,2.623341608E0,6.840409085E-1,1.069568009E0,2.914413986E0
1.457816237E1,3.060542600E0,9.814419910E-1,1.514444641E0,3.552983530E0
1.458814737E1,3.541474333E0,1.108218543E0,2.483683786E0,4.465296624E0
1.459813237E1,4.104801229E0,1.396049049E0,3.452557479E0,5.542427196E0
1.460811838E1,4.864910028E0,1.803591356E0,4.457768109E0,6.840466934E0
1.461810337E1,5.764644781E0,2.254528773E0,5.717333790E0,8.426264600E0
1.462808937E1,6.704921497E0,2.673380618E0,6.974614379E0,1.003733939E1
1.463807437E1,7.209807519E0,3.120104093E0,7.959488978E0,1.118346274E1
1.464806037E1,7.281863927E0,3.325493098E0,8.752096601E0,1.186101351E1
1.465804537E1,7.145103400E0,3.028953602E0,9.287898021E0,1.210339259E1
1.466803037E1,6.924856912E0,2.664983431E0,9.325223138E0,1.191702843E1
1.467801637E1,6.929968548E0,2.298996848E0,9.292934228E0,1.181814187E1
1.468800138E1,7.117579386E0,2.041174984E0,9.506913085E0,1.205021693E1
1.469798737E1,7.177546091E0,1.766386838E0,1.000919827E1,1.244272238E1
1.470797237E1,7.440098938E0,1.705786588E0,1.077442338E1,1.320427882E1
1.471795837E1,7.866716470E0,1.410050500E0,1.226716842E1,1.464093205E1
1.472794337E1,8.176197315E0,8.806257606E-1,1.394231150E1,1.618683892E1
1.473792837E1,7.808967029E0,2.752107529E-1,1.571804424E1,1.755313709E1
1.474791437E1,6.444536798E0,-7.588819798E-1,1.720987594E1,1.839260140E1
1.475789937E1,4.323775070E0,-2.156313677E0,1.779679372E1,1.844100285E1
1.476788537E1,1.601043806E0,-3.620117045E0,1.724294195E1,1.769145657E1
1.477787037E1,-1.081759600E0,-5.299525673E0,1.594881279E1,1.684101557E1
1.478785637E1,-3.349438323E0,-6.767386132E0,1.425486155E1,1.613125320E1
1.479784137E1,-4.535562390E0,-8.096529586E0,1.239656262E1,1.548547327E1
1.480782638E1,-5.143272868E0,-9.261080351E0,1.056765180E1,1.496315908E1
1.481781237E1,-5.719854525E0,-1.032584955E1,8.915142701E0,1.479255469E1
1.482779737E1,-6.442220131E0,-1.098043131E1,7.595624349E0,1.482449261E1
1.483778337E1,-7.670789137E0,-1.157311327E1,6.806280642E0,1.546296909E1
1.484776837E1,-9.448000633E0,-1.209334824E1,5.924395975E0,1.645029651E1
1.485775437E1,-1.109486132E1,-1.218277205E1,4.860269385E0,1.717958384E1
1.486773937E1,-1.204814224E1,-1.223007836E1,3.958819351E0,1.761830863E1
1.487772437E1,-1.232274503E1,-1.231652126E1,3.003580195E0,1.767959940E1
1.488771037E1,-1.233999315E1,-1.232188666E1,1.688801011E0,1.752017039E1
1.489769537E1,-1.218439991E1,-1.227016804E1,3.662824523E-1,1.729597606E1
1.490768137E1,-1.195342671E1,-1.223312242E1,-7.129609448E-1,1.711846977E1
1.491766637E1,-1.176690287E1,-1.219045295E1,-1.778903096E0,1.703618626E1
1.492765237E1,-1.145592104E1,-1.204131503E1,-2.780376186E0,1.685116869E1
1.493763737E1,-1.111995874E1,-1.188471607E1,-3.468478863E0,1.664122304E1
1.494762237E1,-1.095487430E1,-1.161825144E1,-4.091434202E0,1.648432198E1
1.495760837E1,-1.060071897E1,-1.117495765E1,-4.625120099E0,1.608249536E1
1.496759337E1,-1.013112207E1,-1.107947145E1,-4.776602746E0,1.575468996E1
1.497757937E1,-9.818029397E0,-1.125421315E1,-4.785354858E0,1.568281339E1
1.498756437E1,-9.747947009E0,-1.124461436E1,-4.921168136E0,1.567423742E1
1.499755038E1,-9.758048658E0,-1.133710796E1,-5.178912233E0,1.582942394E1
1.500753537E1,-9.672469395E0,-1.142369353E1,-5.480771817E0,1.594039829E1
1.501752037E1,-9.305556028E0,-1.141862282E1,-5.773820232E0,1.582135646E1
1.502750637E1,-8.949283424E0,-1.135595938E1,-6.066815438E0,1.567972375E1
1.503749137E1,-8.810787444E0,-1.145358917E1,-6.167844214E0,1.571168299E1
1.504747737E1,-8.859500012E0,-1.178241085E1,-6.192814164E0,1.598958702E1
1.505746237E1,-8.891634555E0,-1.214354074E1,-6.338320956E0,1.633098464E1
1.506744837E1,-8.622400095E0,-1.248971344E1,-6.502276298E0,1.651115751E1
1.507743338E1,-8.050296822E0,-1.308493895E1,-6.391771524E0,1.663964090E1
1.508741837E1,-7.214898105E0,-1.356587711E1,-6.177488612E0,1.656046926E1
1.509740437E1,-6.086242227E0,-1.345271478E1,-6.046467712E0,1.595548969E1
1.510738937E1,-5.218154066E0,-1.343115259E1,-5.620818479E0,1.546669299E1
1.511737538E1,-4.101076845E0,-1.365473140E1,-4.845305191E0,1.505813745E1
1.512736037E1,-2.390156256E0,-1.360202928E1,-4.044255357E0,1.439041517E1
1.513734637E1,-5.584467363E-1,-1.351085715E1,-3.331580341E0,1.392675667E1
1.514733137E1,1.440456898E0,-1.326785856E1,-2.965445824E0,1.367131508E1
1.515731637E1,3.272660873E0,-1.298652329E1,-2.988889065E0,1.372200985E1
1.516730237E1,4.307979401E0,-1.282394497E1,-3.396091502E0,1.394796360E1
1.517728737E1,4.559375468E0,-1.277031314E1,-4.195084870E0,1.419392614E1
1.518727337E1,4.660726134E0,-1.256851754E1,-5.346908001E0,1.443188922E1
1.519725838E1,4.686991242E0,-1.251216909E1,-6.578560243E0,1.489294186E1
1.520724437E1,4.931467422E0,-1.259782145E1,-7.697990969E0,1.556545987E1
1.521722937E1,5.404989563E0,-1.242556481E1,-8.731572289E0,1.611983026E1
1.522721437E1,5.423104237E0,-1.214495693E1,-9.543932392E0,1.637060426E1
1.523720038E1,5.351235525E0,-1.235374931E1,-9.550630378E0,1.650652550E1
1.524718537E1,5.459783821E0,-1.245068445E1,-8.658803691E0,1.611842623E1
1.525717137E1,5.749030377E0,-1.234177421E1,-7.642313781E0,1.561331806E1
1.526715637E1,6.010144808E0,-1.201656377E1,-6.818322397E0,1.506682335E1
1.527714237E1,5.703074770E0,-1.214295251E1,-6.191547073E0,1.477537182E1
1.528712737E1,4.990003898E0,-1.249988292E1,-5.989764338E0,1.473175104E1
1.529711237E1,4.580557299E0,-1.240242270E1,-5.701932224E0,1.439838967E1
1.530709837E1,3.943472748E0,-1.235330960E1,-5.103104836E0,1.393545530E1
1.531708338E1,3.725504044E0,-1.192899587E1,-4.540270568E0,1.329640476E1
1.532706937E1,4.905228041E0,-1.160944553E1,-3.326947592E0,1.303491726E1
1.533705437E1,6.471297165E0,-1.118032773E1,-2.018483986E0,1.307484963E1
1.534704037E1,8.264738778E0,-1.049822430E1,-1.255905908E0,1.341998212E1
1.535702537E1,1.019438894E1,-9.876857064E0,-6.710504419E-1,1.421014356E1
1.536701037E1,1.110662943E1,-9.599076898E0,-7.557380050E-1,1.469934129E1
1.537699637E1,1.109459001E1,-9.340151664E0,-1.693272377E0,1.460121680E1
1.538698137E1,1.136089443E1,-8.640340523E0,-2.262402341E0,1.445143145E1
1.539696737E1,1.269291121E1,-7.781759934E0,-1.082341837E0,1.492773413E1
1.540695237E1,1.353975760E1,-6.913784040E0,1.305237113E0,1.525873814E1
1.541693837E1,1.418735662E1,-6.389471814E0,4.356890191E0,1.615824650E1
1.542692337E1,1.494184858E1,-5.530356206E0,7.532427642E0,1.762331254E1
1.543690838E1,1.591901655E1,-4.488015464E0,1.076748858E1,1.973565760E1
1.544689437E1,1.658994361E1,-3.665505764E0,1.305565258E1,2.142690426E1
1.545687929E1,1.713592854E1,-2.666739935E0,1.397951383E1,2.227506130E1
1.546686529E1,1.642753369E1,-2.707715176E0,1.487886120E1,2.232881760E1
1.547685029E1,1.266922297E1,-3.511887715E0,1.580514553E1,2.055833629E1
1.548683629E1,7.377900351E0,-4.274102680E0,1.590511889E1,1.804644491E1
1.549682129E1,1.207075957E0,-5.679332736E0,1.671595111E1,1.769561737E1
1.550680629E1,-3.936737925E0,-6.373645155E0,1.881050679E1,2.024738066E1
1.551679229E1,-6.655044748E0,-6.108063451E0,2.104280065E1,2.289972748E1
1.552677729E1,-8.068379921E0,-5.250707270E0,2.272142399E1,2.467654331E1
1.553676329E1,-9.100630415E0,-3.918348140E0,2.296121129E1,2.500784177E1
1.554674829E1,-1.057514793E1,-2.890509077E0,2.124009740E1,2.390252150E1
1.555673429E1,-1.357908480E1,-2.446770021E0,1.932907997E1,2.374850648E1
1.556671929E1,-1.666469559E1,-1.809473801E0,1.790112910E1,2.452420636E1
1.557670429E1,-1.809383695E1,-1.155355434E0,1.666187372E1,2.462396836E1
1.558669029E1,-1.774430327E1,-5.343454635E-1,1.540443584E1,2.350409469E1
1.559667529E1,-1.623519889E1,3.404629022E-2,1.366065463E1,2.121783040E1
1.560666129E1,-1.439052748E1,3.437705259E-1,1.148912270E1,1.841752968E1
1.561664629E1,-1.248882233E1,3.391431856E-1,9.066191484E0,1.543637034E1
1.562663229E1,-1.066709423E1,2.492888765E-1,6.576021382E0,1.253367869E1
1.563661729E1,-8.807504232E0,3.161387774E-1,4.057674717E0,9.702412001E0
1.564660229E1,-6.945026883E0,6.355446866E-1,1.623857741E0,7.160602587E0
1.565658829E1,-4.966310395E0,9.597241165E-1,-2.083269382E-1,5.062480561E0
1.566657329E1,-3.038565255E0,1.108186091E0,-1.693858268E0,3.651042461E0
1.567655929E1,-1.651021858E0,1.197183783E0,-2.862152420E0,3.514404454E0
1.568654429E1,-8.661803605E-1,1.219343707E0,-3.477074270E0,3.785117299E0
1.569653029E1,-8.400773665E-1,1.091465101E0,-3.302698020E0,3.578385147E0
1.570651529E1,-1.608958158E0,7.731220695E-1,-2.618193135E0,3.168816716E0
1.571650029E1,-2.305441503E0,2.887144589E-1,-2.045704529E0,3.095694362E0
1.572648629E1,-2.853703778E0,-1.762515981E-1,-1.852868620E0,3.407023922E0
1.573647129E1,-3.484155833E0,-6.294724263E-1,-1.827749566E0,3.984500706E0
1.574645729E1,-3.769128658E0,-9.205438247E-1,-1.851431374E0,4.299014993E0
1.575644229E1,-3.515091989E0,-1.086825043E0,-2.053525180E0,4.213552661E0
1.576642829E1,-2.970933436E0,-1.178359330E0,-2.303807060E0,3.939860805E0
1.577641329E1,-2.568254405E0,-1.241447206E0,-2.616904408E0,3.871086480E0
1.578639829E1,-2.234937823E0,-1.211372418E0,-2.785270305E0,3.770954903E0
1.579638429E1,-1.720398780E0,-1.183420900E0,-2.662762951E0,3.383868130E0
1.580636929E1,-1.166465290E0,-9.846737471E-1,-2.614644459E0,3.027637579E0
1.581635529E1,-6.323962533E-1,-9.531785971E-1,-2.755177025E0,2.983198770E0
1.582634029E1,-3.618315518E-2,-8.359756909E-1,-3.065234406E0,3.177393042E0
1.583632629E1,4.421430588E-1,-7.300305022E-1,-3.192073377E0,3.304204513E0
1.584631129E1,8.874349894E-1,-5.360090695E-1,-2.942403701E0,3.119709301E0
1.585629629E1,1.307061736E0,-2.701426788E-1,-2.281253180E0,2.643010314E0
1.586628229E1,1.736369133E0,8.486144476E-2,-1.342261682E0,2.196325489E0
1.587626729E1,2.496047723E0,4.253896896E-1,-4.908275610E-1,2.579170859E0
1.588625329E1,3.385877586E0,7.146341986E-1,2.244763631E-1,3.467745478E0
1.589623829E1,4.207859867E0,1.061902163E0,8.524334103E-1,4.422709982E0
1.590622329E1,4.912809541E0,1.404848232E0,1.565244666E0,5.344088978E0
1.591620929E1,5.397389937E0,1.538218543E0,2.305900363E0,6.067545707E0
1.592619429E1,5.561687926E0,1.559771234E0,2.913103888E0,6.469268363E0
1.593618029E1,5.539360918E0,1.629432476E0,3.500599957E0,6.752315872E0
1.594616529E1,5.404210129E0,1.673224028E0,4.203437617E0,7.047982234E0
1.595615129E1,5.240360037E0,1.759336704E0,4.977851629E0,7.438793303E0
1.596613629E1,5.235753601E0,1.989718609E0,5.860705764E0,8.106785304E0
1.597612129E1,5.705773845E0,2.288310477E0,7.043428506E0,9.348909301E0
1.598610729E1,6.475607148E0,2.383643481E0,8.450211289E0,1.090968904E1
1.599609229E1,7.398852679E0,2.594646397E0,9.963559577E0,1.267863283E1
1.600607829E1,8.111863325E0,2.820921364E0,1.134641672E1,1.423028799E1
1.601606329E1,8.397782230E0,2.930100574E0,1.253075622E1,1.536645981E1
1.602604929E1,8.029970731E0,2.770189751E0,1.369994675E1,1.611964398E1
1.603603429E1,7.134952633E0,2.075401222E0,1.452341481E1,1.631393322E1
1.604602029E1,6.118066283E0,1.345394620E0,1.499741233E1,1.625309811E1
1.605600529E1,4.993568945E0,2.040602980E-1,1.528768332E1,1.608386249E1
1.606599029E1,3.684467992E0,-1.114127009E0,1.504792409E1,1.553243711E1
1.607597629E1,2.424915175E0,-2.288156110E0,1.426092160E1,1.464546882E1
1.608596129E1,1.061534520E0,-3.526907165E0,1.320042964E1,1.370464419E1
1.609594729E1,-3.719943050E-1,-4.820350444E0,1.208935927E1,1.302024445E1
1.610593229E1,-1.694643549E0,-5.898829610E0,1.115025901E1,1.272777606E1
1.611591729E1,-3.013694416E0,-6.804476776E0,1.045368957E1,1.283210364E1
1.612590329E1,-3.979414998E0,-7.470931891E0,1.000585717E1,1.310601941E1
1.613588829E1,-4.634895474E0,-7.902186849E0,9.796217528E0,1.341240810E1
1.614587429E1,-4.884932648E0,-8.189682164E0,9.614224110E0,1.354129854E1
1.615585929E1,-4.638072267E0,-8.527422602E0,9.313034617E0,1.345218437E1
1.616584529E1,-4.476405525E0,-9.015154063E0,8.855653714E0,1.340648395E1
1.617583029E1,-4.788249230E0,-9.453261373E0,8.264523600E0,1.343852044E1
1.618581529E1,-5.439409198E0,-1.018126428E1,7.590241402E0,1.381510330E1
1.619580129E1,-6.482285253E0,-1.082424516E1,6.616219236E0,1.424635611E1
1.620578629E1,-7.313549404E0,-1.145668702E1,5.739913983E0,1.475433140E1
1.621577229E1,-8.292516561E0,-1.210920589E1,5.083791482E0,1.553201963E1
1.622575729E1,-9.519836016E0,-1.259188769E1,3.891768159E0,1.625819095E1
1.623574329E1,-1.070982919E1,-1.281023442E1,2.159402468E0,1.683643567E1
1.624572829E1,-1.152191622E1,-1.305654721E1,6.269998580E-1,1.742472689E1
1.625571329E1,-1.181742983E1,-1.309839222E1,-4.989458352E-1,1.764846944E1
1.626569929E1,-1.170724723E1,-1.312755346E1,-1.427210031E0,1.764735748E1
1.627568429E1,-1.153273942E1,-1.310228881E1,-2.444695721E0,1.762528263E1
1.628567029E1,-1.155021792E1,-1.294422103E1,-3.394395810E0,1.767716931E1
1.629565529E1,-1.178601507E1,-1.286758040E1,-3.988872870E0,1.789960568E1
1.630564129E1,-1.204456258E1,-1.318760436E1,-4.170628306E0,1.834062531E1
1.631562629E1,-1.206072545E1,-1.348810096E1,-4.374447041E0,1.861520220E1
1.632561129E1,-1.160553375E1,-1.336578539E1,-4.904843587E0,1.836818236E1
1.633559729E1,-1.090191724E1,-1.317826987E1,-5.312422292E0,1.790922742E1
1.634558229E1,-1.015034070E1,-1.307948583E1,-5.455313040E0,1.743166103E1
1.635556829E1,-9.608352336E0,-1.304620465E1,-5.538445829E0,1.712303340E1
1.636555329E1,-9.213056585E0,-1.316886286E1,-5.697565523E0,1.705173345E1
1.637553929E1,-8.949328448E0,-1.346032084E1,-5.949545435E0,1.722404736E1
1.638552429E1,-8.916931949E0,-1.372583354E1,-6.267024686E0,1.752671619E1
1.639550929E1,-8.977467588E0,-1.386258238E1,-6.690457824E0,1.781932491E1
1.640549529E1,-9.023752393E0,-1.402977064E1,-7.000135721E0,1.809045250E1
1.641548029E1,-8.870621417E0,-1.457536615E1,-6.992464174E0,1.843973367E1
1.642546629E1,-7.782097903E0,-1.484880768E1,-6.862171837E0,1.811456706E1
1.643545129E1,-6.076518307E0,-1.482228822E1,-6.509725651E0,1.729164049E1
1.644543729E1,-4.429967523E0,-1.471691906E1,-5.899661669E0,1.646263425E1
1.645542229E1,-2.863466582E0,-1.448898640E1,-5.388935448E0,1.572166636E1
1.646540700E1,-1.489335236E0,-1.432435688E1,-5.106821326E0,1.528021412E1
1.647539300E1,-4.148491697E-1,-1.431649120E1,-5.006236938E0,1.517222556E1
1.648537800E1,3.663649712E-1,-1.446781714E1,-5.043577842E0,1.532610954E1
1.649536400E1,6.207739621E-1,-1.480940213E1,-5.270716442E0,1.573163067E1
1.650534900E1,1.020002478E0,-1.515402766E1,-5.921936052E0,1.630197185E1
1.651533500E1,2.059743402E0,-1.507735429E1,-6.451930602E0,1.652865886E1
1.652532000E1,2.821907204E0,-1.486998045E1,-6.434550338E0,1.644636485E1
1.653530500E1,3.491356094E0,-1.460775622E1,-6.093636031E0,1.620828520E1
1.654529100E1,4.027770302E0,-1.395948010E1,-5.745188171E0,1.562361051E1
1.655527600E1,4.001080102E0,-1.335041306E1,-5.411800400E0,1.495091149E1
