"Time (s)","Linear Acceleration x (m/s^2)","Linear Acceleration y (m/s^2)","Linear Acceleration z (m/s^2)","Absolute acceleration (m/s^2)"
4.360333376E-3,3.948259279E-3,-1.246801794E-2,1.590887046E-1,1.596253619E-1
1.434533333E-2,-5.442105934E-2,-2.834657058E-2,2.092654163E-1,2.180761202E-1
2.433133335E-2,-2.368306527E-1,-2.804236919E-2,2.659348762E-1,3.572065101E-1
3.431633336E-2,-2.657087351E-1,-3.187097982E-2,3.972662634E-1,4.789962164E-1
4.430233338E-2,-1.105606154E-1,1.206149027E-2,2.902306420E-1,3.108101587E-1
5.428733333E-2,-8.373651356E-3,3.829677746E-2,7.494610190E-2,8.457942652E-2
6.427333335E-2,-2.022369169E-2,2.558887750E-2,-7.402691960E-2,8.089359173E-2
7.425833336E-2,-2.770286523E-2,2.194153056E-2,-3.314476651E-1,3.333263179E-1
8.424433338E-2,-1.642553409E-1,1.178712429E-1,-4.201247835E-1,4.662384375E-1
9.422933334E-2,-2.763023185E-1,2.042610767E-1,-3.011403769E-1,4.568928597E-1
1.042153334E-1,-3.036372842E-1,1.374325182E-1,-8.151194036E-2,3.431144034E-1
1.142003334E-1,-3.333168372E-1,5.144965053E-2,-1.500600189E-1,3.691411516E-1
1.241863333E-1,-1.769379151E-1,9.082918614E-2,-2.151950777E-2,2.000501339E-1
1.341713333E-1,1.731116799E-1,2.777893750E-1,5.339776736E-1,6.263120201E-1
1.441573334E-1,-3.347709301E-1,-5.942919955E-2,-8.614235044E-2,3.507476442E-1
1.541423334E-1,-7.408290669E-1,-3.860448718E-2,-2.595467931E-1,7.859278279E-1
1.641283333E-1,-6.225604326E-1,2.130126044E-1,4.104745388E-4,6.579939440E-1
1.741133333E-1,-4.285859238E-1,-6.764526844E-2,-6.749382555E-2,4.391095455E-1
1.840993334E-1,-4.260926711E-1,-2.776803245E-1,-4.244090384E-1,6.624080003E-1
1.940843334E-1,-4.499245334E-1,-9.487516701E-2,-5.056841666E-1,6.834836204E-1
2.040703333E-1,4.640264461E-2,6.687520476E-1,-3.723436761E-1,7.668261339E-1
2.140553333E-1,-1.043528823E-2,5.030766007E-1,-3.453283703E-1,6.102840689E-1
2.240413334E-1,1.699868548E-1,1.965462604E-1,-4.203405458E-1,4.941782449E-1
2.340263334E-1,6.774835485E-1,3.976717678E-1,5.978778005E-3,7.855969318E-1
2.440123333E-1,5.549425730E-1,5.630035445E-1,2.507081419E-1,8.293303461E-1
2.539973333E-1,2.399339527E-1,5.080743621E-1,1.602505463E-1,5.842842602E-1
2.639833334E-1,-1.372385368E-2,2.328788120E-1,-3.326188624E-2,2.356421828E-1
2.739683334E-1,-3.036983876E-1,-1.484056954E-1,-3.694650918E-1,5.007608363E-1
2.839543333E-1,-6.064540213E-1,-4.616128251E-1,-7.523407727E-1,1.070929278E0
2.939393334E-1,-7.329974525E-1,-6.109673774E-1,-1.003285727E0,1.384611372E0
3.039253334E-1,-6.893981275E-1,-6.560344997E-1,-1.105418458E0,1.458629840E0
3.139103334E-1,-4.116412411E-1,-5.424070197E-1,-1.011943114E0,1.219706011E0
3.238963333E-1,2.537987608E-2,-3.905988295E-1,-9.485025787E-1,1.026093917E0
3.338813334E-1,5.362340776E-1,-1.131782676E-1,-1.130970206E0,1.256761677E0
3.438673334E-1,1.079278773E0,1.350776251E-1,-1.471100986E0,1.829542769E0
3.538523333E-1,1.768893393E0,2.880542352E-1,-1.859884109E0,2.582852682E0
3.638383333E-1,2.643844577E0,3.817594475E-1,-2.083227282E0,3.387549311E0
3.738233334E-1,3.570137677E0,4.084346645E-1,-2.255096245E0,4.242423951E0
3.838093334E-1,4.303366533E0,3.590109280E-1,-2.096544900E0,4.800349246E0
3.937943333E-1,4.838996337E0,2.652063862E-1,-1.687274888E0,5.131580315E0
4.037803333E-1,5.056149940E0,2.695957448E-1,-1.092910094E0,5.179940787E0
4.137653334E-1,5.161884556E0,3.807828163E-1,-4.208749813E-1,5.192993691E0
4.237513334E-1,5.490809732E0,6.189666608E-1,1.601002729E-1,5.527905873E0
4.337373333E-1,5.975602382E0,7.917428201E-1,8.471276468E-1,6.087060520E0
4.437223334E-1,6.595193233E0,9.793728076E-1,1.827905102E0,6.913536138E0
4.537083334E-1,7.362036855E0,1.247900339E0,2.896625850E0,8.009199911E0
4.636933334E-1,8.325894806E0,1.504535511E0,3.521899025E0,9.164492576E0
4.736793333E-1,9.052526541E0,1.669589399E0,3.313870295E0,9.783532178E0
4.836643334E-1,9.186939996E0,1.819815187E0,2.738404872E0,9.757584488E0
4.936503334E-1,8.557325848E0,2.157031568E0,2.349193733E0,9.132322927E0
5.036353333E-1,7.503466968E0,2.442273805E0,2.708986945E0,8.342980771E0
5.136213333E-1,6.559953234E0,2.221095710E0,3.950649621E0,7.973323335E0
5.236063334E-1,5.804602314E0,1.326092084E0,6.126732441E0,8.543347040E0
5.335923334E-1,5.223399019E0,2.942396026E-1,8.560596195E0,1.003266074E1
5.435773333E-1,4.655093511E0,-3.847839928E-1,1.068468499E1,1.166106546E1
5.535633333E-1,3.642515974E0,-5.777703953E-1,1.234719809E1,1.288623459E1
5.635483334E-1,1.832357318E0,-5.565785509E-1,1.343718457E1,1.357295997E1
5.735334583E-1,-3.100655304E-1,-7.940812679E-1,1.389998000E1,1.392609600E1
5.835184584E-1,-2.325446143E0,-1.240987322E0,1.402819541E1,1.427368262E1
5.935044584E-1,-4.166558059E0,-1.479774161E0,1.361405700E1,1.431406601E1
6.034894583E-1,-5.552165151E0,-1.639580611E0,1.248147472E1,1.375870537E1
6.134754583E-1,-6.442856893E0,-1.616428853E0,1.122790536E1,1.304565467E1
6.234604584E-1,-7.162668436E0,-1.353901588E0,1.011507380E1,1.246802256E1
6.334464584E-1,-7.603409332E0,-1.129354620E0,9.396466783E0,1.214005203E1
6.434314583E-1,-8.102290263E0,-1.105558791E0,8.868655583E0,1.206326737E1
6.534174584E-1,-8.564912025E0,-1.095784585E0,8.299260739E0,1.197648490E1
6.634024584E-1,-8.736407937E0,-1.034330057E0,7.525430864E0,1.157699322E1
6.733884584E-1,-8.787662875E0,-1.159332710E0,6.614563889E0,1.105981585E1
6.833734583E-1,-8.775250990E0,-1.680921595E0,5.365391634E0,1.042199380E1
6.933594584E-1,-8.778360540E0,-2.562710660E0,3.703011852E0,9.866073001E0
7.033444584E-1,-8.981229687E0,-3.460539221E0,2.242061632E0,9.882543132E0
7.133304584E-1,-9.368238180E0,-4.265943476E0,1.106340564E0,1.035307441E1
7.233154583E-1,-1.010680350E1,-4.994739558E0,1.420762306E-1,1.127453262E1
7.333014584E-1,-1.050910714E1,-5.544252698E0,-8.750276363E-1,1.191409855E1
7.432864584E-1,-1.017338457E1,-6.220265087E0,-1.850712166E0,1.206708693E1
7.532724583E-1,-9.622787358E0,-6.679385537E0,-2.604831662E0,1.199989065E1
7.632574583E-1,-8.923886043E0,-6.633750358E0,-2.959133170E0,1.150647014E1
7.732434584E-1,-7.989508583E0,-6.286111752E0,-3.257192064E0,1.067505262E1
7.832284584E-1,-6.843159031E0,-6.082745592E0,-3.943544084E0,9.968959795E0
7.932144583E-1,-6.019392180E0,-6.022122245E0,-4.694415452E0,9.722992080E0
8.031994583E-1,-5.420642560E0,-6.133644435E0,-5.089586658E0,9.638923807E0
8.131854584E-1,-4.635962591E0,-6.636433060E0,-5.080969031E0,9.557752833E0
8.231704584E-1,-3.962691377E0,-6.714748328E0,-4.693626662E0,9.100598843E0
8.331564583E-1,-3.522672611E0,-6.571610243E0,-4.173484671E0,8.544779564E0
8.431414583E-1,-3.632031916E0,-6.587907017E0,-3.942952346E0,8.493470899E0
8.531274584E-1,-3.642059307E0,-6.850033602E0,-3.979184033E0,8.719028725E0
8.631124584E-1,-3.289164347E0,-7.180872572E0,-4.280924919E0,8.983866159E0
8.730984583E-1,-2.900850463E0,-7.282572609E0,-4.783079122E0,9.183062839E0
8.830834583E-1,-2.338334576E0,-7.249683191E0,-5.137121598E0,9.187803506E0
8.930694584E-1,-1.596368664E0,-7.215930138E0,-5.389910179E0,9.147085460E0
9.030544584E-1,-1.010236020E0,-6.920278543E0,-5.614514011E0,8.968478104E0
9.130404583E-1,-4.365667154E-1,-6.570046697E0,-5.827930366E0,8.793229012E0
9.230264584E-1,4.190550354E-1,-6.378124707E0,-6.221781271E0,8.920013682E0
9.330114584E-1,9.804323231E-1,-6.217311074E0,-6.649785762E0,9.156192179E0
9.429964584E-1,1.557430447E0,-6.199244932E0,-6.918068880E0,9.418912058E0
9.529824583E-1,1.917246172E0,-6.372261119E0,-6.933189780E0,9.609925347E0
9.629684584E-1,2.049273524E0,-6.539136561E0,-6.851140480E0,9.690095707E0
9.729534584E-1,2.640572183E0,-6.854392117E0,-6.746693421E0,9.973624460E0
9.829394583E-1,2.970107516E0,-6.573930418E0,-6.800874306E0,9.914130881E0
9.929244583E-1,3.542393808E0,-6.548030761E0,-6.960729581E0,1.019200751E1
1.002910458E0,3.811786143E0,-6.556731418E0,-7.174389764E0,1.043993817E1
1.012895458E0,3.725925336E0,-6.484112508E0,-7.234262913E0,1.040484476E1
1.022881458E0,3.692575741E0,-6.710048336E0,-6.823826966E0,1.025789836E1
1.032866458E0,3.459606882E0,-6.829533849E0,-6.328165512E0,9.932627604E0
1.042852458E0,3.082666125E0,-6.917493514E0,-5.981041462E0,9.650254086E0
1.052837458E0,2.859769680E0,-7.076461766E0,-5.695243594E0,9.523150389E0
1.062823458E0,3.127263131E0,-7.210644255E0,-5.496736470E0,9.590999796E0
1.072808458E0,3.716915361E0,-7.171988897E0,-5.223683778E0,9.619758664E0
1.082794458E0,4.263020160E0,-6.847094207E0,-4.491828725E0,9.232148464E0
1.092779458E0,4.808519772E0,-6.509125727E0,-3.831595632E0,8.953865379E0
1.102765458E0,5.167776795E0,-6.324322137E0,-3.333321058E0,8.821224222E0
1.112750458E0,5.963617929E0,-6.087888803E0,-3.198887722E0,9.102747472E0
1.122736458E0,7.077266927E0,-5.745067134E0,-3.146013690E0,9.643179231E0
1.132721458E0,7.725680459E0,-5.282823102E0,-2.371218440E0,9.654896963E0
1.142707458E0,8.254019662E0,-4.558295780E0,-9.938202542E-1,9.481275215E0
1.152692458E0,9.337801668E0,-3.685593581E0,4.897440720E-1,1.005077058E1
1.162678458E0,1.043188179E1,-2.997019034E0,1.758148404E0,1.099533386E1
1.172663458E0,1.100227417E1,-2.310329629E0,2.828587648E0,1.159260833E1
1.182649458E0,1.101074445E1,-1.733411466E0,3.805966117E0,1.177822511E1
1.192634458E0,1.045278325E1,-1.329324718E0,4.672732807E0,1.152658725E1
1.202620458E0,9.689949061E0,-1.080359192E0,5.209453409E0,1.105444226E1
1.212605458E0,8.482049378E0,-5.450344661E-1,5.777274182E0,1.027711639E1
1.222591458E0,7.450160242E0,-1.950806558E-2,6.686624975E0,1.001080525E1
1.232576458E0,7.038875864E0,3.544427177E-1,7.799740123E0,1.051224757E1
1.242562458E0,6.549887837E0,8.856104388E-1,8.939985182E0,1.111794368E1
1.252547458E0,5.936888552E0,1.281155647E0,9.797393403E0,1.152722529E1
1.262533458E0,4.695290780E0,1.687142594E0,1.006832063E1,1.123669373E1
1.272518458E0,3.010736017E0,2.135606786E0,9.867772830E0,1.053557252E1
1.282504458E0,1.038615116E0,2.539718238E0,9.826919503E0,1.020280535E1
1.292489458E0,-1.005525795E0,2.610026036E0,1.000102035E1,1.038478339E1
1.302475458E0,-3.284505870E0,2.228238522E0,1.004170995E1,1.079763699E1
1.312460458E0,-5.805829645E0,1.368807018E0,9.759057888E0,1.143767902E1
1.322446458E0,-7.784057305E0,3.267732547E-1,9.501059437E0,1.228692229E1
1.332431458E0,-9.102737752E0,-1.052831926E-1,9.585606083E0,1.321948422E1
1.342417458E0,-9.317877865E0,-1.772636964E-1,9.550118746E0,1.334387644E1
1.352402458E0,-8.809006382E0,-4.391068920E-2,8.843593247E0,1.248237410E1
1.362388458E0,-7.931583726E0,4.143401331E-1,7.566761908E0,1.096984886E1
1.372374458E0,-7.064498363E0,1.030501300E0,6.067741637E0,9.369448149E0
1.382359458E0,-5.915200059E0,1.076878052E0,4.408992391E0,7.455767699E0
1.392345458E0,-4.688488422E0,8.720318884E-1,2.792620840E0,5.526399773E0
1.402330458E0,-3.321558506E0,5.954533256E-1,1.410414489E0,3.657401346E0
1.412316458E0,-2.080113639E0,3.729717036E-1,4.748032665E-1,2.165968325E0
1.422301458E0,-8.414007376E-1,3.832327631E-1,-1.720712775E-1,9.404419581E-1
1.432287458E0,5.455701441E-1,3.628189272E-1,-9.862557113E-1,1.184054342E0
1.442272458E0,1.894118972E0,2.659962354E-1,-1.746529402E0,2.590136218E0
1.452258458E0,3.271607497E0,4.065671369E-1,-2.263324447E0,3.998918604E0
1.462243458E0,4.733547943E0,7.520007572E-1,-2.444457155E0,5.380274347E0
1.472229458E0,6.364121211E0,9.210953633E-1,-2.331525786E0,6.840063446E0
1.482214458E0,7.959197786E0,8.521792026E-1,-1.972133693E0,8.244049375E0
1.492200458E0,8.839700755E0,9.525258286E-1,-1.132024459E0,8.962649958E0
1.502185458E0,9.476666608E0,9.270960684E-1,-2.094864410E-1,9.524211342E0
1.512171458E0,9.651699500E0,6.706082462E-1,5.221306300E-1,9.689047376E0
1.522156458E0,9.353922442E0,1.952008892E-1,1.281669325E0,9.443338641E0
1.532142458E0,8.840657945E0,-3.814235249E-1,2.141845034E0,9.104406458E0
1.542127458E0,8.609209362E0,-6.652122163E-1,2.914623579E0,9.113507762E0
1.552113458E0,8.710739830E0,-5.196813045E-1,3.805551549E0,9.519941157E0
1.562098458E0,8.558281283E0,-2.594984074E-1,4.898435331E0,9.864389826E0
1.572084750E0,8.372525182E0,-8.019653611E-2,5.950624831E0,1.027207600E1
1.582069750E0,8.309091078E0,1.339382952E-1,6.928555276E0,1.081960315E1
1.592055750E0,7.842994316E0,4.215786206E-1,7.729216270E0,1.101957678E1
1.602040750E0,6.732368912E0,4.817777523E-1,8.413542815E0,1.078631557E1
1.612026750E0,5.417030734E0,5.989434555E-2,9.049946750E0,1.054748053E1
1.622011750E0,3.527349215E0,-5.536240259E-1,9.764418615E0,1.039675733E1
1.631997750E0,1.525467812E0,-1.189578237E0,1.045963268E1,1.063701387E1
1.641982750E0,-2.600447566E-1,-1.645088688E0,1.096031806E1,1.108614054E1
1.651968750E0,-2.106010957E0,-1.615268766E0,1.162377238E1,1.192293838E1
1.661953750E0,-3.529081452E0,-1.512249597E0,1.205094306E1,1.264778808E1
1.671939750E0,-4.478347970E0,-1.340766111E0,1.167673529E1,1.257773435E1
1.681924750E0,-5.136024660E0,-1.168305043E0,1.091992549E1,1.212387969E1
1.691910750E0,-5.903098662E0,-8.927873844E-1,1.022689946E1,1.184200640E1
1.701895750E0,-6.764040356E0,-9.172704072E-1,9.680170763E0,1.184480194E1
1.711881750E0,-7.565319985E0,-1.295226972E0,9.108877328E0,1.191147873E1
1.721867750E0,-7.988000586E0,-1.838157171E0,8.594884853E0,1.187682705E1
1.731852750E0,-8.298104160E0,-2.064847729E0,8.261170807E0,1.188987266E1
1.741838750E0,-8.661122696E0,-2.382563792E0,7.807131003E0,1.190138442E1
1.751823750E0,-9.221040958E0,-2.912553373E0,7.231335797E0,1.207488223E1
1.761809750E0,-9.467361934E0,-3.385110431E0,6.427568178E0,1.193329574E1
1.771794750E0,-9.813335252E0,-3.576848234E0,5.142798074E0,1.164232640E1
1.781780750E0,-9.833020488E0,-3.986587485E0,3.836656398E0,1.128277909E1
1.791765750E0,-9.874437486E0,-4.235770966E0,2.593133138E0,1.105308151E1
1.801751750E0,-9.819484184E0,-4.565850967E0,1.672981369E0,1.095756047E1
1.811736750E0,-1.007005492E1,-4.937193015E0,9.211668456E-1,1.125301867E1
1.821722750E0,-1.039992442E1,-5.519791456E0,2.562858009E-1,1.177676560E1
1.831707750E0,-1.074247185E1,-6.308540502E0,-5.605123383E-1,1.247046747E1
1.841693750E0,-1.088656128E1,-6.955981641E0,-1.368933172E0,1.299141544E1
1.851678750E0,-1.057013803E1,-7.251418059E0,-2.081653796E0,1.298630681E1
1.861664750E0,-1.015320583E1,-7.471372771E0,-2.275525832E0,1.280964549E1
1.871649750E0,-9.602571194E0,-7.702985660E0,-2.328923775E0,1.252873687E1
1.881635750E0,-9.006012526E0,-7.833554571E0,-3.040370876E0,1.231733307E1
1.891620750E0,-8.414911648E0,-8.038459718E0,-3.840461181E0,1.225466094E1
1.901606750E0,-7.880965549E0,-8.344248632E0,-4.382549527E0,1.228587985E1
1.911591750E0,-7.248880953E0,-8.519234746E0,-5.012209284E0,1.225748252E1
1.921577750E0,-6.106754259E0,-8.476735429E0,-5.320166929E0,1.172397830E1
1.931562750E0,-5.340060911E0,-8.207967576E0,-5.527636081E0,1.124463174E1
1.941548750E0,-4.712477209E0,-8.371366848E0,-5.931214414E0,1.129010756E1
1.951533750E0,-4.406698528E0,-8.628332680E0,-6.244563192E0,1.152656437E1
1.961519750E0,-3.878703141E0,-8.773469929E0,-6.382753363E0,1.152205073E1
1.971504750E0,-3.611951116E0,-8.896744437E0,-6.319255525E0,1.149483549E1
1.981490750E0,-3.717708536E0,-9.226670072E0,-6.152000599E0,1.169614931E1
1.991475750E0,-3.824568449E0,-9.829510989E0,-6.164213094E0,1.221655161E1
2.001461750E0,-3.738281964E0,-1.028224686E1,-6.418165855E0,1.268432913E1
2.011446750E0,-2.883435116E0,-1.053882152E1,-6.701713715E0,1.281771913E1
2.021432750E0,-1.977705797E0,-1.044191210E1,-6.510726110E0,1.246332231E1
2.031417750E0,-1.262006893E0,-1.028282691E1,-6.300412288E0,1.212536126E1
2.041403750E0,-6.410328101E-1,-1.034029568E1,-6.433473866E0,1.219517215E1
2.051388750E0,-2.396094688E-1,-1.042526976E1,-6.725568016E0,1.240874399E1
2.061374750E0,1.211051003E-1,-1.027351463E1,-6.840309682E0,1.234299825E1
2.071359750E0,8.985587324E-1,-1.006143495E1,-6.940408167E0,1.225598411E1
2.081345750E0,1.818705239E0,-9.791590626E0,-7.127730153E0,1.224693729E1
2.091331750E0,3.074442894E0,-9.624129878E0,-7.235330615E0,1.242682921E1
2.101316750E0,4.199578163E0,-9.136735802E0,-7.132396231E0,1.232831999E1
2.111302750E0,5.311877332E0,-8.445220106E0,-6.948654495E0,1.215818994E1
2.121287750E0,6.214624863E0,-7.746455031E0,-7.043174152E0,1.217519732E1
2.131273750E0,6.806722691E0,-7.406134801E0,-6.980018960E0,1.224348689E1
2.141258750E0,7.239420742E0,-7.303845949E0,-6.447795451E0,1.213793411E1
2.151244750E0,7.879157590E0,-7.090783351E0,-5.432841606E0,1.191117546E1
2.161229750E0,8.935402134E0,-6.549784341E0,-4.207628902E0,1.185095891E1
2.171215750E0,1.028857706E1,-5.549695871E0,-3.187199138E0,1.211660763E1
2.181200750E0,1.150594631E1,-4.746038180E0,-2.198703359E0,1.263906544E1
2.191186750E0,1.220995692E1,-4.403468234E0,-1.029151470E0,1.302047362E1
2.201171750E0,1.240843598E1,-4.260218759E0,1.174787486E-1,1.311992944E1
2.211157750E0,1.246922831E1,-4.226232695E0,1.038098295E0,1.320682950E1
2.221142750E0,1.216044855E1,-3.969253122E0,1.345185290E0,1.286238713E1
2.231128750E0,1.106026919E1,-3.385332626E0,1.596886289E0,1.167647538E1
2.241113750E0,9.275012512E0,-2.649738863E0,2.402946017E0,9.940881385E0
2.251099750E0,7.602598323E0,-1.883382314E0,3.656176824E0,8.643741040E0
2.261084750E0,6.847871886E0,-1.344127529E0,5.006277283E0,8.588529585E0
2.271070750E0,6.498034728E0,-6.235364060E-1,6.871295248E0,9.477760883E0
2.281055750E0,6.252766836E0,1.084279896E-1,9.137428113E0,1.107255356E1
2.291041750E0,5.383827320E0,9.242394112E-1,1.050725357E1,1.184238965E1
2.301026750E0,3.632330709E0,1.905830652E0,1.088340378E1,1.163075641E1
2.311012750E0,1.360760518E0,2.341437547E0,1.097615349E1,1.130530603E1
2.320997750E0,-1.479367049E0,1.884393883E0,1.167197332E1,1.191530228E1
2.330983750E0,-3.906486186E0,1.050671051E0,1.262142081E1,1.325386009E1
2.340968750E0,-5.535010589E0,6.252717865E-1,1.280511226E1,1.396417584E1
2.350954750E0,-6.657371355E0,5.650374985E-1,1.235214717E1,1.404334008E1
2.360939750E0,-7.131195213E0,4.955510515E-1,1.112231634E1,1.322140071E1
2.370925750E0,-7.292888852E0,8.906674033E-1,1.010807702E1,1.249610889E1
2.380911750E0,-7.172816863E0,1.176276845E0,8.344438081E0,1.106628103E1
2.390896750E0,-6.758474976E0,1.009950968E0,6.061220822E0,9.134297061E0
2.400882750E0,-6.014688680E0,8.557537517E-1,4.395829723E0,7.498807462E0
2.410867750E0,-4.880593722E0,7.278982419E-1,2.978606152E0,5.763863768E0
2.420853750E0,-3.282452328E0,7.333672158E-1,1.811805378E0,3.820334997E0
2.430838750E0,-1.230724289E0,9.408578559E-1,6.762106097E-1,1.690312566E0
2.440824750E0,1.117463722E0,1.318107711E0,-1.417593116E-1,1.733847978E0
2.450809750E0,3.167508932E0,1.564209417E0,-3.992543167E-1,3.555174812E0
2.460795750E0,4.798244168E0,1.503358321E0,-4.714493036E-1,5.050296801E0
2.470780750E0,6.161799363E0,1.348631347E0,-6.937253594E-1,6.345694034E0
2.480766750E0,7.637123208E0,1.210322331E0,-9.535645133E-1,7.791008684E0
2.490751750E0,9.003562542E0,1.170292219E0,-5.980245656E-1,9.098975531E0
2.500737750E0,1.028986696E1,1.135546748E0,3.037394643E-2,1.035237900E1
2.510722750E0,1.144923066E1,9.355447834E-1,6.196551704E-1,1.150409054E1
2.520708750E0,1.210904801E1,6.602145280E-1,1.259758639E0,1.219228932E1
2.530693750E0,1.245586157E1,3.583098469E-1,2.069084621E0,1.263162637E1
2.540679750E0,1.235326750E1,-3.737642571E-2,2.789310147E0,1.266431467E1
2.550664750E0,1.191864162E1,-5.844736433E-1,3.309669655E0,1.238343816E1
2.560650750E0,1.109368369E1,-9.390464616E-1,3.749659769E0,1.174783276E1
2.570635708E0,1.020200786E1,-1.302386010E0,3.914966403E0,1.100473242E1
2.580621708E0,8.952069622E0,-1.739077125E0,4.447969930E0,1.014634793E1
2.590606708E0,7.836944202E0,-2.064783848E0,5.762673685E0,9.944316706E0
2.600592708E0,6.923768746E0,-2.163490988E0,7.214171880E0,1.023052016E1
2.610577708E0,5.992416050E0,-2.222373472E0,8.674884118E0,1.077504564E1
2.620563708E0,4.918797675E0,-1.999219896E0,1.014911044E1,1.145407759E1
2.630548708E0,3.446335457E0,-1.728053370E0,1.075426686E1,1.142443225E1
2.640534708E0,1.581767144E0,-1.608077714E0,1.114326106E1,1.136926420E1
2.650519708E0,-3.181539472E-1,-1.712679724E0,1.183304306E1,1.196057699E1
2.660505708E0,-2.245113294E0,-1.898572065E0,1.258451435E1,1.292343263E1
2.670490708E0,-3.549382693E0,-2.037134119E0,1.312670678E1,1.374985323E1
2.680476708E0,-4.891525092E0,-1.919725391E0,1.350808206E1,1.449415897E1
2.690462708E0,-6.581313112E0,-1.953108899E0,1.421547821E1,1.578632755E1
2.700447708E0,-7.967197947E0,-2.231481973E0,1.446702192E1,1.666584766E1
2.710433708E0,-8.866339501E0,-2.393472504E0,1.417361332E1,1.688881290E1
2.720418708E0,-9.545258541E0,-2.456963472E0,1.357133140E1,1.677288484E1
2.730404708E0,-1.047546811E1,-2.818953776E0,1.298111111E1,1.691718588E1
2.740389708E0,-1.107603212E1,-3.438035919E0,1.259337405E1,1.711991964E1
2.750375708E0,-1.136154113E1,-4.048077682E0,1.194682520E1,1.697640074E1
2.760360708E0,-1.169274731E1,-4.667338166E0,1.087039958E1,1.663339929E1
2.770346708E0,-1.227099600E1,-5.568208156E0,9.448824506E0,1.645790295E1
2.780331708E0,-1.285435985E1,-6.440053153E0,8.087476342E0,1.649594269E1
2.790317708E0,-1.313529049E1,-7.167108811E0,6.598530239E0,1.635371231E1
2.800302708E0,-1.316951074E1,-7.841202729E0,5.043676659E0,1.613564835E1
2.810288708E0,-1.316554866E1,-8.577923834E0,3.558990253E0,1.611145122E1
2.820273708E0,-1.306278034E1,-9.283894433E0,2.055668769E0,1.615712537E1
2.830259708E0,-1.297076388E1,-9.821864001E0,4.828367561E-1,1.627706544E1
2.840244708E0,-1.293187054E1,-1.019023859E1,-7.652233583E-1,1.648210559E1
2.850230708E0,-1.281442453E1,-1.051801011E1,-1.909437507E0,1.668783881E1
2.860215708E0,-1.249778260E1,-1.082667644E1,-2.955890889E0,1.679728501E1
2.870201708E0,-1.184995438E1,-1.099653805E1,-3.828194307E0,1.661325794E1
2.880186708E0,-1.102649801E1,-1.091692002E1,-4.253244200E0,1.608890573E1
2.890172708E0,-9.937305579E0,-1.092927168E1,-4.694348209E0,1.549954602E1
2.900157708E0,-8.745148355E0,-1.100844064E1,-5.313963618E0,1.503002310E1
2.910143708E0,-7.622212223E0,-1.082591396E1,-5.648362373E0,1.439453124E1
2.920128708E0,-6.563328831E0,-1.065375556E1,-5.954673443E0,1.385777502E1
2.930114708E0,-5.635037153E0,-1.063730032E1,-6.490661974E0,1.367605553E1
2.940099708E0,-5.136208262E0,-1.072192591E1,-7.090533675E0,1.384254306E1
2.950085708E0,-4.853102160E0,-1.087343896E1,-7.583245794E0,1.411700719E1
2.960071708E0,-4.339164649E0,-1.109106297E1,-7.830409938E0,1.425325743E1
2.970056708E0,-3.511684231E0,-1.117515646E1,-8.023910092E0,1.419856264E1
2.980042708E0,-2.756477154E0,-1.116108805E1,-8.327942501E0,1.419586838E1
2.990027708E0,-2.072653469E0,-1.118757009E1,-8.414985908E0,1.415166438E1
3.000013708E0,-1.369385161E0,-1.122003267E1,-8.591763609E0,1.419798403E1
3.009998708E0,-7.500253484E-1,-1.114512165E1,-8.819792156E0,1.423253344E1
3.019984708E0,-1.555380560E-1,-1.112026981E1,-8.857783855E0,1.421776802E1
3.029969708E0,9.708658397E-2,-1.113415461E1,-8.843078107E0,1.421896111E1
3.039955708E0,4.211530895E-1,-1.117071023E1,-8.529776106E0,1.406126657E1
3.049940708E0,9.417802542E-1,-1.119012416E1,-8.349963700E0,1.399384588E1
3.059926708E0,1.636751582E0,-1.105622643E1,-8.121273834E0,1.381572247E1
3.069911708E0,2.363825805E0,-1.061136091E1,-7.796839904E0,1.337831698E1
3.079897708E0,2.969534489E0,-1.012959244E1,-7.682736168E0,1.305569657E1
3.089882708E0,3.391585930E0,-9.870338588E0,-7.882785788E0,1.307917240E1
3.099868708E0,3.545884888E0,-9.836693709E0,-7.931157464E0,1.312391334E1
3.109853708E0,3.724762325E0,-9.920568509E0,-7.856518341E0,1.319152813E1
3.119839708E0,3.864085686E0,-1.001579626E1,-7.763286241E0,1.324824314E1
3.129824708E0,3.896880088E0,-1.001086823E1,-7.442267085E0,1.306868381E1
3.139810708E0,4.256857487E0,-9.821058254E0,-6.972702339E0,1.277468586E1
3.149795708E0,4.833826522E0,-9.610418158E0,-6.683157576E0,1.266454149E1
3.159781708E0,5.531311641E0,-9.564736785E0,-6.768971313E0,1.295756809E1
3.169766708E0,6.335853431E0,-9.523473569E0,-6.513294207E0,1.316292479E1
3.179752708E0,7.313749378E0,-9.377109575E0,-5.671957642E0,1.317543993E1
3.189737708E0,8.144673806E0,-8.948736125E0,-4.627702814E0,1.295496905E1
3.199723708E0,9.451386171E0,-8.476976334E0,-3.398411677E0,1.314294603E1
3.209708708E0,1.103810123E1,-7.842293819E0,-2.078452445E0,1.369894944E1
3.219694708E0,1.240414295E1,-7.051649691E0,-6.503811193E-1,1.428326018E1
3.229679708E0,1.298892182E1,-6.194123356E0,7.375964338E-1,1.440913955E1
3.239665708E0,1.338469646E1,-5.341499326E0,1.961992282E0,1.454410974E1
3.249650708E0,1.368439901E1,-4.319586709E0,2.991753032E0,1.465851942E1
3.259636708E0,1.376578406E1,-2.969491512E0,4.112678306E0,1.467067870E1
3.269621708E0,1.360245613E1,-1.625545393E0,5.628770692E0,1.481054590E1
3.279607708E0,1.335613632E1,-6.610752381E-1,7.240142289E0,1.520667808E1
3.289593708E0,1.301740595E1,-5.023185823E-1,8.811110795E0,1.572707395E1
3.299578708E0,1.215986499E1,-9.221597028E-1,1.051875036E1,1.610455850E1
3.309564708E0,1.068645670E1,-1.182797733E0,1.192748729E1,1.605815432E1
3.319549708E0,8.428098289E0,-8.408239829E-1,1.276327894E1,1.531799971E1
3.329535708E0,6.188200711E0,-5.118948232E-1,1.350388727E1,1.486306953E1
3.339520708E0,4.049274607E0,-5.979612695E-1,1.437135212E1,1.494288942E1
3.349506708E0,2.221290568E0,-8.813804168E-1,1.567660736E1,1.585771047E1
3.359491708E0,8.900960572E-1,-8.447318233E-1,1.656675706E1,1.661214262E1
3.369477708E0,-1.030835907E0,-2.532359663E-1,1.595443313E1,1.598970568E1
3.379462708E0,-3.537464313E0,3.273030125E-1,1.441518051E1,1.484648814E1
3.389448708E0,-6.393987619E0,8.969928481E-1,1.295820055E1,1.447765987E1
3.399433708E0,-8.853818858E0,1.015763539E0,1.125191402E1,1.435365644E1
3.409419708E0,-1.062053285E1,5.909912422E-1,9.230802299E0,1.408377434E1
3.419404708E0,-1.178955498E1,1.030926977E-1,7.020719090E0,1.372205273E1
3.429390708E0,-1.259757703E1,-2.210336687E-1,5.077153723E0,1.358400872E1
3.439375708E0,-1.260016501E1,-3.269236743E-1,4.175008455E0,1.327786628E1
3.449361708E0,-1.152927319E1,-4.568414240E-1,3.653526866E0,1.210293778E1
3.459346708E0,-9.524830123E0,-2.904379988E-1,3.283141422E0,1.007897617E1
3.469332708E0,-6.984724799E0,-6.735093422E-2,2.485935549E0,7.414229038E0
3.479317708E0,-4.323120474E0,-1.795497201E-2,1.145361373E0,4.472308765E0
3.489303708E0,-1.760092311E0,1.601843266E-1,-2.142302871E-1,1.780302945E0
3.499288708E0,1.097025365E0,3.893592198E-1,-1.090396376E0,1.595001414E0
3.509274708E0,3.668950651E0,5.856695451E-1,-1.813063114E0,4.134175317E0
3.519260708E0,5.735337367E0,7.406413713E-1,-2.074151818E0,6.143675620E0
3.529245708E0,7.676453919E0,7.766200201E-1,-2.119519195E0,8.001465181E0
3.539231708E0,1.001101441E1,8.677287032E-1,-1.742539262E0,1.019851978E1
3.549216708E0,1.183543574E1,1.030710192E0,-1.026131383E0,1.192446428E1
3.559202708E0,1.290518618E1,9.261296698E-1,-2.459812528E-1,1.294071302E1
3.569187708E0,1.306894915E1,4.795466010E-1,4.815755117E-1,1.308660811E1
3.579173833E0,1.229412291E1,-1.573120281E-1,1.135562609E0,1.234745754E1
3.589158833E0,1.102415679E1,-9.563501269E-1,1.620241823E0,1.118355140E1
3.599144833E0,9.517670792E0,-1.715085999E0,2.328848931E0,9.947417486E0
3.609129833E0,8.287220153E0,-1.953974141E0,3.316613224E0,9.137612165E0
3.619115833E0,7.512002733E0,-1.604080119E0,4.737934524E0,9.025036379E0
3.629100833E0,6.998452308E0,-1.019201994E0,6.362806172E0,9.513275450E0
3.639086833E0,6.935860788E0,-4.558195500E-1,7.849435024E0,1.048463478E1
3.649071833E0,6.611650221E0,-1.074805945E-2,9.097195176E0,1.124602126E1
3.659057833E0,5.558586563E0,2.154755978E-1,1.008572662E1,1.151808126E1
3.669042833E0,3.707232957E0,-1.213993067E-1,1.101155019E1,1.161949016E1
3.679028833E0,1.555435085E0,-8.167996010E-1,1.197913925E1,1.210728364E1
3.689013833E0,-3.673256687E-1,-1.245870624E0,1.290895647E1,1.297413885E1
3.698999833E0,-1.848814745E0,-1.160340624E0,1.356422352E1,1.373872869E1
3.708984833E0,-3.098195745E0,-9.195715789E-1,1.379222751E1,1.416580278E1
3.718970833E0,-4.425371026E0,-9.277661593E-1,1.369050701E1,1.441785840E1
3.728955833E0,-5.743311215E0,-1.213617237E0,1.331318618E1,1.454989405E1
3.738941833E0,-7.726856334E0,-1.552623159E0,1.278126380E1,1.501584669E1
3.748926833E0,-9.776735190E0,-2.181000182E0,1.212086173E1,1.572439512E1
3.758912833E0,-1.126497904E1,-2.815233192E0,1.144983409E1,1.630717607E1
3.768897833E0,-1.193717729E1,-3.119686309E0,1.107358330E1,1.657868787E1
3.778883833E0,-1.227693911E1,-3.148780885E0,1.072471503E1,1.660293852E1
3.788869833E0,-1.268668509E1,-3.409523141E0,9.817559280E0,1.640003954E1
3.798854833E0,-1.295045299E1,-4.004125916E0,8.623064924E0,1.606563119E1
3.808840833E0,-1.277926522E1,-4.401833060E0,7.421343994E0,1.541953633E1
3.818825833E0,-1.200506230E1,-4.701888778E0,6.046793402E0,1.424054034E1
3.828811833E0,-1.152051289E1,-4.900443265E0,5.023920672E0,1.348986065E1
3.838796833E0,-1.150413133E1,-5.427762714E0,4.117482378E0,1.337009001E1
3.848782833E0,-1.176309048E1,-6.431607435E0,2.697458575E0,1.367523874E1
3.858767833E0,-1.224981973E1,-7.473429236E0,1.212248257E0,1.440068657E1
3.868753833E0,-1.259312379E1,-8.214093704E0,5.243782997E-3,1.503522962E1
3.878738833E0,-1.259587666E1,-8.752011232E0,-1.140297684E0,1.538031496E1
3.888724833E0,-1.236403222E1,-9.014205644E0,-2.215998838E0,1.546078417E1
3.898709833E0,-1.184049709E1,-9.135882694E0,-3.261396797E0,1.530681002E1
3.908695833E0,-1.116702999E1,-9.316266958E0,-4.119870965E0,1.511518196E1
3.918680833E0,-1.044382999E1,-9.577107739E0,-4.861440582E0,1.498092728E1
3.928666833E0,-9.676563030E0,-9.651901814E0,-5.346722059E0,1.467591624E1
3.938651833E0,-8.616904882E0,-9.668303838E0,-5.734550332E0,1.416376420E1
3.948637833E0,-7.689451695E0,-9.682542978E0,-6.131885008E0,1.380142455E1
3.958622833E0,-6.941863539E0,-9.811832517E0,-6.302931268E0,1.357160526E1
3.968608833E0,-6.438601289E0,-9.954013413E0,-6.453819838E0,1.349776871E1
3.978593833E0,-5.866388673E0,-1.018019658E1,-6.762904826E0,1.355683592E1
3.988579833E0,-5.397394615E0,-1.021302519E1,-7.064246932E0,1.354035955E1
3.998564833E0,-4.846541000E0,-1.014556235E1,-7.326615007E0,1.342015956E1
4.008550833E0,-4.272028088E0,-1.015550145E1,-7.590015700E0,1.337881803E1
4.018536833E0,-3.773805554E0,-1.019584373E1,-7.715833747E0,1.333157635E1
4.028521833E0,-3.267248398E0,-1.041428518E1,-8.061380804E0,1.356901280E1
4.038507833E0,-2.994141619E0,-1.055413771E1,-8.341234977E0,1.378154229E1
4.048492833E0,-2.742673339E0,-1.061179360E1,-8.135848603E0,1.365007154E1
4.058478833E0,-2.347215766E0,-1.067396120E1,-7.959967865E0,1.352050139E1
4.068463833E0,-1.484287773E0,-1.047918576E1,-7.996428763E0,1.326496579E1
4.078449833E0,-7.304945518E-1,-1.007771360E1,-7.889471494E0,1.281942644E1
4.088434833E0,-1.961135299E-1,-9.832549202E0,-7.297353201E0,1.224617688E1
4.098420833E0,4.185607630E-1,-9.638444447E0,-6.954702855E0,1.189296835E1
4.108405833E0,1.199771322E0,-9.349354012E0,-6.904379379E0,1.168419130E1
4.118391833E0,2.020537528E0,-9.014743003E0,-6.959780577E0,1.156662047E1
4.128376833E0,2.603807815E0,-8.810830128E0,-7.139345647E0,1.163532548E1
4.138362833E0,2.910826105E0,-8.968456444E0,-7.374308991E0,1.197023612E1
4.148347833E0,3.069916272E0,-9.045430945E0,-7.430898344E0,1.210216745E1
4.158333833E0,3.426649051E0,-8.920806314E0,-7.276803746E0,1.201143546E1
4.168318833E0,4.125150124E0,-8.662854057E0,-6.995198917E0,1.187411941E1
4.178304833E0,5.064421996E0,-8.336445522E0,-6.814986561E0,1.189910652E1
4.188289833E0,5.698951898E0,-7.997170190E0,-6.584061888E0,1.182297148E1
4.198275833E0,6.067183812E0,-7.775232103E0,-6.108470417E0,1.160079155E1
4.208260833E0,6.257917648E0,-7.603804019E0,-5.832287711E0,1.144530248E1
4.218246833E0,6.556567696E0,-7.369277462E0,-5.639943552E0,1.136238503E1
4.228231833E0,7.003362215E0,-7.207392619E0,-5.481539556E0,1.144730827E1
4.238217833E0,7.363424399E0,-7.358496950E0,-5.212959400E0,1.164226962E1
4.248202833E0,7.549909063E0,-7.654531538E0,-4.288725105E0,1.157523835E1
4.258188833E0,7.764558011E0,-7.931904738E0,-3.167818542E0,1.154290034E1
4.268174833E0,7.956951871E0,-7.883327240E0,-2.065637103E0,1.138976681E1
4.278159833E0,8.174860057E0,-7.459295931E0,-8.539636266E-1,1.109949038E1
4.288145833E0,8.751482059E0,-6.946007461E0,6.024351203E-1,1.118920846E1
4.298130833E0,1.013925905E1,-6.300903454E0,2.060903197E0,1.211417684E1
4.308116833E0,1.191519878E1,-5.178073157E0,3.391172240E0,1.342700461E1
4.318101833E0,1.396689086E1,-4.026040988E0,4.962079350E0,1.535920824E1
4.328087833E0,1.530476070E1,-3.064259090E0,6.820561296E0,1.703365610E1
4.338072833E0,1.579022578E1,-2.418758642E0,8.104414557E0,1.791265359E1
4.348058833E0,1.486809063E1,-1.580796652E0,7.986382661E0,1.695114583E1
4.358043833E0,1.352411747E1,-1.091463639E0,7.685400159E0,1.559353782E1
4.368029833E0,1.185508355E1,-5.475370744E-1,8.381680167E0,1.452912129E1
4.378014833E0,1.033758257E1,-1.430830115E-1,1.019076717E1,1.451681170E1
4.388000833E0,9.040882396E0,-2.517428067E-1,1.266423178E1,1.556225227E1
4.397985833E0,7.960994636E0,-7.768501811E-1,1.553367217E1,1.747214649E1
4.407971833E0,6.255700969E0,-1.487527569E0,1.810581088E1,1.921371699E1
4.417956833E0,3.510555719E0,-1.892604982E0,1.948520765E1,1.988917475E1
4.427942833E0,4.628635811E-1,-1.948913668E0,1.933077332E1,1.943428168E1
4.437927833E0,-2.154350328E0,-1.666559226E0,1.797553024E1,1.818071320E1
4.447913833E0,-4.628952657E0,-1.147549693E0,1.561148341E1,1.632367873E1
4.457898833E0,-7.333079104E0,-7.269745280E-1,1.305927201E1,1.499490335E1
4.467884833E0,-1.024056557E1,-1.143160481E0,1.042501833E1,1.465800144E1
4.477869833E0,-1.301787022E1,-1.969495429E0,8.142544250E0,1.548046782E1
4.487855833E0,-1.507792381E1,-2.250245688E0,6.461330586E0,1.655766243E1
4.497841833E0,-1.586132558E1,-2.141520221E0,4.854995196E0,1.672539196E1
4.507826833E0,-1.558548786E1,-1.905647927E0,2.792657093E0,1.594797352E1
4.517812833E0,-1.416611485E1,-1.672215676E0,1.027588509E0,1.430143536E1
4.527797833E0,-1.189124975E1,-1.395916610E0,2.437797761E-1,1.197538444E1
4.537783833E0,-9.168190314E0,-9.008996652E-1,-2.563454425E-1,9.215912697E0
4.547768833E0,-6.128563789E0,-4.396139187E-1,-1.047146276E0,6.232902200E0
4.557754833E0,-3.716670948E0,5.676199213E-2,-1.626839236E0,4.057520272E0
4.567739833E0,-2.098385311E0,2.225920247E-1,-2.348058203E0,3.156920248E0
4.577725708E0,-6.819575456E-1,1.753192596E-1,-3.110188385E0,3.188898670E0
4.587710708E0,6.454715777E-1,1.529157990E-1,-3.142766731E0,3.212008644E0
4.597696708E0,1.960555328E0,5.722158328E-2,-2.866785754E0,3.473544597E0
4.607681708E0,3.151696599E0,6.473525539E-3,-2.652816837E0,4.119547370E0
4.617667708E0,4.480378708E0,9.415457077E-2,-2.575499105E0,5.168738152E0
4.627652708E0,5.925900464E0,1.726141915E-1,-2.405823432E0,6.397974551E0
4.637638708E0,7.274584728E0,3.628437048E-1,-1.494162405E0,7.435304957E0
4.647623708E0,8.800936639E0,5.118155569E-1,-3.117852330E-1,8.821317981E0
4.657609708E0,9.946475183E0,7.137380397E-1,3.229510760E-1,9.977278584E0
4.667594708E0,1.050328448E1,5.989476947E-1,8.871828282E-1,1.055768993E1
4.677580708E0,1.037021939E1,9.494869575E-2,1.665924364E0,1.050360745E1
4.687565708E0,1.027762406E1,-2.664247267E-1,2.668324823E0,1.062169929E1
4.697551708E0,1.030152163E1,-3.450528203E-1,3.407421652E0,1.085591689E1
4.707536708E0,1.025893635E1,-1.811961499E-1,4.510531045E0,1.120818886E1
4.717522708E0,1.010800335E1,-7.182427347E-3,5.756275662E0,1.163213191E1
4.727508708E0,9.510933630E0,1.329583749E-1,7.041072662E0,1.183436693E1
4.737493708E0,8.592385168E0,1.422013611E-2,8.547843418E0,1.212002113E1
4.747479708E0,6.706690865E0,-2.398481083E-1,1.001047997E1,1.205184379E1
4.757464708E0,4.751739800E0,-6.793663520E-1,1.109742825E1,1.209104973E1
4.767450708E0,3.144803317E0,-8.301774457E-1,1.204015261E1,1.247173834E1
4.777435708E0,1.770921793E0,-6.791165297E-1,1.334316719E1,1.347729476E1
4.787421708E0,1.508178180E-1,-6.788231456E-1,1.437825885E1,1.439506424E1
4.797406708E0,-1.914643283E0,-1.105920003E0,1.465540167E1,1.482125892E1
4.807392708E0,-4.075654613E0,-1.604489424E0,1.419374645E1,1.485421776E1
4.817377708E0,-5.517218097E0,-1.846792339E0,1.353538973E1,1.473285826E1
4.827363708E0,-6.543578691E0,-1.799147033E0,1.305687231E1,1.471520529E1
4.837348708E0,-7.355776241E0,-1.897588417E0,1.273177765E1,1.482587090E1
4.847334708E0,-8.276719138E0,-2.306637990E0,1.222817217E1,1.494499425E1
4.857319708E0,-9.466123493E0,-2.923871243E0,1.140050698E1,1.510390931E1
4.867305708E0,-1.058128634E1,-3.523316390E0,1.054230178E1,1.534657961E1
4.877290708E0,-1.164457093E1,-4.152218347E0,9.714400948E0,1.572280303E1
4.887276708E0,-1.261680268E1,-4.780226265E0,8.674329218E0,1.603989589E1
4.897261708E0,-1.313289430E1,-5.303166735E0,7.588659146E0,1.606811245E1
4.907247708E0,-1.324025737E1,-5.671914958E0,6.390427249E0,1.575793752E1
4.917232708E0,-1.337638055E1,-5.993615899E0,4.831735557E0,1.543362098E1
4.927218708E0,-1.379673922E1,-6.548949943E0,3.204956548E0,1.560482313E1
4.937204708E0,-1.394605840E1,-7.204504094E0,1.839012473E0,1.580441049E1
4.947189708E0,-1.373543000E1,-7.605217876E0,8.120618945E-1,1.572134920E1
4.957175708E0,-1.348364304E1,-7.814790856E0,2.389932454E-2,1.558461283E1
4.967160708E0,-1.308697027E1,-8.031852365E0,-7.816680676E-1,1.537499425E1
4.977146708E0,-1.272704023E1,-8.284556161E0,-1.682083730E0,1.527877055E1
4.987131708E0,-1.237635815E1,-8.418442197E0,-2.475285430E0,1.517140231E1
4.997117708E0,-1.194174982E1,-8.604577782E0,-3.146683781E0,1.505143735E1
5.007102708E0,-1.141229379E1,-8.837915601E0,-3.863072364E0,1.494230671E1
5.017088708E0,-1.060234216E1,-9.127325293E0,-4.519283742E0,1.470175676E1
5.027073708E0,-9.715639388E0,-9.419629943E0,-4.805852273E0,1.436033750E1
5.037059708E0,-8.903214966E0,-9.776153392E0,-5.259147141E0,1.423021576E1
5.047044708E0,-8.067049679E0,-1.011844530E1,-5.822002459E0,1.418999431E1
5.057030708E0,-7.391316202E0,-1.039704525E1,-6.099138846E0,1.413964638E1
5.067015708E0,-6.809555082E0,-1.070983503E1,-6.311548895E0,1.417414041E1
5.077001708E0,-6.181310352E0,-1.103793868E1,-6.626518521E0,1.428129671E1
5.086986708E0,-5.624589933E0,-1.135445080E1,-6.984408465E0,1.446863941E1
5.096972708E0,-5.161731943E0,-1.157733496E1,-7.362021652E0,1.465870132E1
5.106957708E0,-4.663582207E0,-1.169795718E1,-7.647158200E0,1.473330342E1
5.116943708E0,-4.223078122E0,-1.189353601E1,-7.928015755E0,1.490449669E1
5.126928708E0,-3.505318075E0,-1.194680766E1,-8.107184383E0,1.485731829E1
5.136914708E0,-2.796644602E0,-1.177076554E1,-8.306015443E0,1.467521839E1
5.146900708E0,-2.007555102E0,-1.160915083E1,-8.443504533E0,1.449466900E1
5.156885708E0,-1.311589820E0,-1.136248721E1,-8.432521123E0,1.421034116E1
5.166871708E0,-7.202564427E-1,-1.108586012E1,-8.317844945E0,1.387809815E1
5.176856708E0,-1.723424056E-1,-1.078490860E1,-7.955925100E0,1.340301084E1
5.186842708E0,3.646555742E-1,-1.048525050E1,-7.574283181E0,1.293998522E1
5.196827708E0,8.588363307E-1,-1.036382722E1,-7.732274948E0,1.295895792E1
5.206813708E0,1.347403870E0,-1.032890998E1,-8.132229761E0,1.321495515E1
5.216798708E0,1.794614418E0,-1.025178287E1,-8.362525858E0,1.335108728E1
5.226784708E0,2.113807489E0,-1.013193483E1,-8.535582976E0,1.341567972E1
5.236769708E0,2.374751620E0,-1.016797590E1,-8.524755102E0,1.347956337E1
5.246755708E0,2.763363712E0,-1.027728609E1,-8.212016189E0,1.344232116E1
5.256740708E0,3.282763692E0,-1.023687949E1,-7.784062568E0,1.327259843E1
5.266726708E0,3.840233432E0,-1.003270290E1,-7.498436024E0,1.310072758E1
5.276711708E0,4.751893582E0,-9.928560483E0,-7.354917870E0,1.323826359E1
5.286697708E0,5.557071549E0,-9.796094152E0,-7.127599175E0,1.332843482E1
5.296682708E0,6.203116373E0,-9.593085256E0,-6.490167884E0,1.313880575E1
5.306668708E0,6.876645450E0,-9.412859452E0,-5.718730690E0,1.298437740E1
5.316653708E0,7.679234270E0,-9.260639471E0,-5.070999529E0,1.305546317E1
5.326639708E0,8.646743808E0,-9.079647682E0,-4.280560053E0,1.324874994E1
5.336624708E0,9.515841783E0,-8.886591332E0,-3.258771397E0,1.342171157E1
5.346610708E0,1.035096451E1,-8.492162722E0,-1.818103414E0,1.351165401E1
5.356596708E0,1.135114361E1,-7.847583210E0,-3.585255361E-1,1.380440379E1
5.366581708E0,1.244724512E1,-7.077299087E0,8.188797480E-1,1.434198861E1
5.376566708E0,1.312368026E1,-6.296304619E0,1.947228062E0,1.468557566E1
5.386552708E0,1.364127111E1,-5.673073876E0,3.394312779E0,1.515880615E1
5.396538708E0,1.435440455E1,-5.041099792E0,4.787214857E0,1.594926466E1
5.406523708E0,1.479894964E1,-4.057222728E0,6.180027473E0,1.654275389E1
5.416509708E0,1.493954711E1,-3.067776191E0,7.888597920E0,1.717065217E1
5.426494708E0,1.460365381E1,-2.305267987E0,9.398434955E0,1.751889108E1
5.436480708E0,1.355699987E1,-1.541680680E0,1.026604306E1,1.707514758E1
5.446465708E0,1.266370670E1,-1.283447171E0,1.122772058E1,1.697287287E1
5.456451708E0,1.128042505E1,-1.073400055E0,1.246075219E1,1.684252125E1
5.466436708E0,9.637925214E0,-8.874648102E-1,1.338786682E1,1.652005370E1
5.476422708E0,7.303593934E0,-7.067613613E-1,1.429790875E1,1.607084910E1
5.486407708E0,4.138695492E0,-1.668681327E-1,1.551678424E1,1.606011328E1
5.496393708E0,1.036099497E0,2.971284195E-1,1.654005868E1,1.657514189E1
5.506378708E0,-1.908811124E0,3.366598000E-1,1.732311663E1,1.743121537E1
5.516364708E0,-4.813163339E0,2.557661296E-1,1.730778640E1,1.796639718E1
5.526349708E0,-7.802846748E0,-5.526861325E-2,1.614092657E1,1.792810594E1
5.536335708E0,-1.068599360E1,-6.438541648E-1,1.373455057E1,1.741387053E1
5.546320708E0,-1.347818525E1,-9.291344078E-1,1.052720076E1,1.712736770E1
5.556306708E0,-1.522986605E1,-9.820080746E-1,7.564635860E0,1.703340469E1
5.566291708E0,-1.567360423E1,-6.641577441E-1,5.526632114E0,1.663269784E1
5.576278208E0,-1.526792441E1,-6.033602960E-2,4.715177745E0,1.597955122E1
5.586264208E0,-1.405500138E1,2.851548202E-1,4.583579140E0,1.478626304E1
5.596249208E0,-1.232313212E1,5.106799545E-1,4.274010002E0,1.305325786E1
5.606235208E0,-1.031693372E1,6.268077770E-1,3.242678690E0,1.083268085E1
5.616220208E0,-8.125613052E0,5.556287438E-1,1.750600818E0,8.330601059E0
5.626206208E0,-5.693999307E0,6.805511440E-1,7.132497972E-1,5.778711209E0
5.636191208E0,-3.714486428E0,9.055887667E-1,-4.099833727E-2,3.823503799E0
5.646177208E0,-2.045083116E0,9.187733609E-1,-5.378701651E-1,2.305604857E0
5.656162208E0,-6.969033211E-1,5.795011711E-1,-1.333131840E0,1.612059660E0
5.666148208E0,3.136758571E-1,2.670934289E-1,-2.060683926E0,2.101463701E0
5.676133208E0,1.459569253E0,1.252778379E-1,-2.549381931E0,2.940303585E0
5.686119208E0,2.715068342E0,1.068378393E-1,-3.069997548E0,4.099743330E0
5.696104208E0,3.905669622E0,1.757931764E-1,-3.438269223E0,5.206424271E0
5.706090208E0,5.210598294E0,1.999502901E-1,-3.425058024E0,6.238696752E0
5.716075208E0,6.373464476E0,2.207045435E-1,-3.220493769E0,7.144322224E0
5.726061208E0,7.510338031E0,2.332159770E-1,-2.944478293E0,8.070286206E0
5.736046208E0,8.743005935E0,1.101412969E-1,-2.453625589E0,9.081440547E0
5.746032208E0,9.529766927E0,4.785843685E-2,-1.812328704E0,9.700684690E0
5.756017208E0,9.949520413E0,-1.732451791E-1,-1.128212074E0,1.001478072E1
5.766003208E0,1.011754015E1,-5.818209077E-1,-5.726365399E-1,1.015042102E1
5.775989208E0,1.030141053E1,-7.431096272E-1,1.280639631E-1,1.032897242E1
5.785974208E0,1.072318774E1,-7.831580112E-1,7.904634494E-1,1.078076640E1
5.795960208E0,1.077372288E1,-6.976459175E-1,1.750507847E0,1.093727993E1
5.805945208E0,1.048060430E1,-7.096123905E-1,3.090617169E0,1.094981875E1
5.815931208E0,1.018941179E1,-7.611083803E-1,4.241646248E0,1.106322564E1
5.825916208E0,9.880541979E0,-6.240290339E-1,5.126834006E0,1.114894385E1
5.835902208E0,9.149559916E0,-5.109715113E-1,6.229003751E0,1.108043439E1
5.845887208E0,7.893105538E0,-5.528068775E-1,8.001749729E0,1.125320884E1
5.855873208E0,6.482377639E0,-6.646838473E-1,1.004988553E1,1.197761344E1
5.865858208E0,5.367403076E0,-6.879202437E-1,1.193205396E1,1.310176178E1
5.875844208E0,4.312855102E0,-8.115480705E-1,1.355020073E1,1.424314815E1
5.885829208E0,2.647092998E0,-1.282714954E0,1.464935682E1,1.494175740E1
5.895815208E0,4.980517229E-1,-1.951113683E0,1.511131258E1,1.524488990E1
5.905800208E0,-2.050275590E0,-2.391489421E0,1.498405612E1,1.531159004E1
5.915786208E0,-4.421501631E0,-2.503687695E0,1.481526922E1,1.566238586E1
5.925771208E0,-6.079431390E0,-2.453444910E0,1.484626765E1,1.622931117E1
5.935757208E0,-6.953856763E0,-2.280410011E0,1.509971054E1,1.677967974E1
5.945742208E0,-7.922807055E0,-2.119174063E0,1.506281344E1,1.715080520E1
5.955728208E0,-9.026149167E0,-2.319295603E0,1.453056011E1,1.726231960E1
5.965713208E0,-1.020371291E1,-2.806544522E0,1.364293640E1,1.726621449E1
5.975699208E0,-1.162837648E1,-3.532973067E0,1.236883746E1,1.734039153E1
5.985684208E0,-1.294682888E1,-4.376121683E0,1.103817023E1,1.756735669E1
5.995670208E0,-1.363406617E1,-5.037365760E0,9.778205180E0,1.751787974E1
6.005656208E0,-1.396991036E1,-5.528328976E0,8.401695186E0,1.721363700E1
6.015641208E0,-1.433933394E1,-5.912741890E0,7.163567737E0,1.708489734E1
6.025627208E0,-1.467998103E1,-6.389513329E0,5.934301744E0,1.707464965E1
6.035612208E0,-1.498092435E1,-6.969967012E0,4.344950176E0,1.708470446E1
6.045598208E0,-1.535100399E1,-7.652509571E0,2.454455894E0,1.732739391E1
6.055583208E0,-1.569644345E1,-8.258524357E0,8.125249940E-1,1.775504882E1
6.065569208E0,-1.576160365E1,-8.716208146E0,-4.995440054E-1,1.801804591E1
6.075554208E0,-1.532912370E1,-9.123090155E0,-1.908537036E0,1.794032667E1
6.085540208E0,-1.456604101E1,-9.346494724E0,-3.334582302E0,1.762515116E1
6.095525208E0,-1.380734256E1,-9.384958878E0,-4.380898858E0,1.726014011E1
6.105511208E0,-1.279395226E1,-9.440742484E0,-5.146884109E0,1.671236815E1
6.115496208E0,-1.187536872E1,-9.364190152E0,-5.742982017E0,1.617696763E1
6.125482208E0,-1.112159713E1,-9.319296985E0,-6.004542006E0,1.570330359E1
6.135467208E0,-1.045370360E1,-9.808469784E0,-6.337483050E0,1.567321568E1
6.145453208E0,-9.594909003E0,-1.015782513E1,-6.617150697E0,1.546060715E1
6.155438208E0,-8.155817429E0,-1.009199016E1,-7.211631850E0,1.484497414E1
6.165424208E0,-6.871512179E0,-9.994631681E0,-7.656032519E0,1.434312295E1
6.175410208E0,-5.701169747E0,-9.997604406E0,-7.553516210E0,1.376630079E1
6.185395208E0,-4.824334152E0,-1.007058935E1,-7.573139466E0,1.349234640E1
6.195381208E0,-4.154130387E0,-1.024871893E1,-7.740513675E0,1.349846624E1
6.205366208E0,-3.506092247E0,-1.044587885E1,-8.067353734E0,1.365618044E1
6.215352208E0,-3.081956858E0,-1.068174969E1,-8.608246325E0,1.406058815E1
6.225337208E0,-2.878529594E0,-1.093548961E1,-8.962437905E0,1.442900408E1
6.235323208E0,-2.577701166E0,-1.117604172E1,-9.122883748E0,1.465521954E1
6.245308208E0,-2.148843566E0,-1.132121990E1,-9.339723648E0,1.483300329E1
6.255294208E0,-1.706614553E0,-1.120968076E1,-9.255332538E0,1.463662038E1
6.265279208E0,-9.956913632E-1,-1.100191749E1,-8.990219196E0,1.424280980E1
6.275265208E0,-3.273066670E-1,-1.074209178E1,-8.848192667E0,1.392085410E1
6.285250208E0,4.938731198E-1,-1.051511807E1,-8.837515651E0,1.374457353E1
6.295236208E0,1.271707570E0,-1.030354242E1,-8.866910189E0,1.365292360E1
6.305221208E0,1.781294607E0,-9.972913953E0,-8.796126135E0,1.341655165E1
6.315207208E0,1.898222840E0,-9.736200537E0,-8.664264990E0,1.317066204E1
6.325192208E0,1.832148280E0,-9.806057807E0,-8.714686115E0,1.324618025E1
6.335178208E0,1.789692670E0,-1.002849174E1,-8.742803037E0,1.342424118E1
6.345163208E0,1.729141390E0,-1.013067534E1,-8.506722289E0,1.334109579E1
6.355149208E0,1.756759690E0,-1.010862432E1,-8.090378900E0,1.306616704E1
6.365135208E0,2.310788928E0,-1.014159560E1,-7.639327608E0,1.290546524E1
6.375120208E0,3.124945880E0,-1.001121439E1,-7.223180686E0,1.273436451E1
6.385106208E0,4.147927076E0,-9.754444435E0,-6.572268054E0,1.247193620E1
6.395091208E0,5.504640736E0,-9.458858328E0,-5.766429352E0,1.237023759E1
6.405077208E0,6.453739731E0,-8.986177601E0,-4.815838147E0,1.206625217E1
6.415062208E0,7.366474891E0,-8.734573081E0,-3.589468864E0,1.197672768E1
6.425048208E0,8.415027423E0,-8.466930817E0,-2.406083048E0,1.217747263E1
6.435033208E0,9.463119779E0,-8.009710128E0,-1.435561025E0,1.248066215E1
6.445019208E0,1.053230070E1,-7.386883428E0,-6.793242520E-1,1.288242548E1
6.455004208E0,1.125388687E1,-6.827706009E0,3.083470702E-2,1.316314894E1
6.464990208E0,1.190329151E1,-6.504947891E0,8.624648935E-1,1.359215000E1
6.474975208E0,1.240812724E1,-6.237459410E0,1.908823550E0,1.401824272E1
6.484961208E0,1.300015198E1,-5.672468689E0,2.962290666E0,1.448985916E1
6.494946208E0,1.367809220E1,-4.864298994E0,4.117546697E0,1.508992385E1
6.504932208E0,1.403904901E1,-3.789614086E0,5.297222455E0,1.547632507E1
6.514917208E0,1.378439692E1,-2.736882257E0,6.305030419E0,1.540303644E1
6.524903208E0,1.317470657E1,-2.063624345E0,7.141591562E0,1.512725252E1
6.534888208E0,1.215207299E1,-1.731334827E0,8.291175794E0,1.481262956E1
6.544874208E0,1.002283631E1,-1.570470031E0,9.942168124E0,1.420458837E1
6.554859208E0,7.530505078E0,-1.936704682E0,1.137331742E1,1.377721601E1
6.564845208E0,4.944620733E0,-2.291750979E0,1.242490992E1,1.356760050E1
6.574830333E0,2.382835980E0,-2.416325762E0,1.348658887E1,1.390699884E1
6.584816333E0,6.179884947E-1,-2.193041500E0,1.431774485E1,1.449790186E1
6.594802333E0,-7.092826076E-1,-1.529060342E0,1.450542176E1,1.460302598E1
6.604787333E0,-1.834872498E0,-5.120858444E-1,1.424369688E1,1.437052155E1
6.614773333E0,-3.234626489E0,5.746878894E-1,1.418335244E1,1.455886538E1
6.624758333E0,-4.590119251E0,1.310688326E0,1.396640671E1,1.475966175E1
6.634744333E0,-5.818368414E0,1.755204623E0,1.316336765E1,1.449856552E1
6.644729333E0,-7.071937775E0,1.878813300E0,1.187412911E1,1.394765878E1
6.654715333E0,-8.159928607E0,1.718891367E0,1.038897726E1,1.332178182E1
6.664700333E0,-9.358301421E0,1.358130441E0,9.071175066E0,1.310376056E1
6.674686333E0,-1.065792462E1,8.507741167E-1,7.674105093E0,1.316081543E1
6.684671333E0,-1.146315054E1,2.168684046E-1,6.072350997E0,1.297398546E1
6.694657333E0,-1.170794188E1,-4.175803676E-2,4.449942781E0,1.252516018E1
6.704642333E0,-1.100346232E1,-7.501319870E-3,3.045298909E0,1.141709616E1
6.714628333E0,-9.852934935E0,2.416233961E-1,2.059136168E0,1.006870153E1
6.724613333E0,-8.403220725E0,2.301541556E-1,1.290625505E0,8.504869410E0
6.734599333E0,-6.913246681E0,2.327732697E-1,6.869700712E-1,6.951193491E0
6.744584333E0,-5.387600529E0,7.773281179E-2,2.120785117E-3,5.388161685E0
6.754570333E0,-3.656314818E0,-5.834410250E-2,-7.452334821E-1,3.731945207E0
6.764555333E0,-1.552598601E0,-8.010217667E-2,-1.495328924E0,2.157078433E0
6.774541333E0,8.111272171E-1,-9.627352864E-2,-2.221394064E0,2.366809570E0
6.784527333E0,2.664303985E0,1.480208024E-1,-2.708629096E0,3.802249000E0
6.794512333E0,4.162769648E0,2.566972256E-1,-2.847937254E0,5.050276350E0
6.804498333E0,5.556255278E0,3.086927868E-2,-3.100595443E0,6.362909533E0
6.814483333E0,7.036014236E0,-2.126770473E-1,-3.374246305E0,7.806168457E0
6.824469333E0,8.375727702E0,-5.025009423E-2,-3.155895485E0,8.950699186E0
6.834454333E0,9.442333512E0,1.060023453E-1,-2.493364436E0,9.766563615E0
6.844440333E0,1.054495057E1,1.949249737E-2,-2.002910512E0,1.073349957E1
6.854425333E0,1.142091142E1,-1.633695973E-1,-1.746491395E0,1.155483187E1
6.864411333E0,1.201608781E1,-3.467652505E-1,-9.666166681E-1,1.205989055E1
6.874396333E0,1.233914062E1,-5.861718209E-1,2.875713283E-1,1.235640263E1
6.884382333E0,1.230303758E1,-7.672032255E-1,1.520673096E0,1.242037765E1
6.894367333E0,1.210283827E1,-8.810971923E-1,2.740404035E0,1.244045179E1
6.904353333E0,1.173532907E1,-7.979072472E-1,4.142965713E0,1.247071647E1
6.914338333E0,1.120067137E1,-5.149613589E-1,5.914266844E0,1.267670212E1
6.924324333E0,1.041245617E1,-2.344324172E-1,7.972456348E0,1.311618322E1
6.934309333E0,9.218029642E0,-2.126790208E-1,9.839264145E0,1.348437695E1
6.944295333E0,7.575643244E0,-2.878632505E-1,1.140770958E1,1.369704616E1
6.954281333E0,5.768454242E0,-4.904352129E-1,1.287320659E1,1.411506426E1
6.964266333E0,3.683065245E0,-9.044742143E-1,1.406739046E1,1.456964370E1
6.974252333E0,8.055641761E-1,-1.322804926E0,1.488013473E1,1.496051991E1
6.984237333E0,-2.236068236E0,-1.661539099E0,1.540155200E1,1.565147013E1
6.994223333E0,-4.964305385E0,-2.282412098E0,1.516237281E1,1.611680124E1
7.004208333E0,-7.826266601E0,-2.686912244E0,1.452022457E1,1.671247641E1
7.014194333E0,-9.907259077E0,-3.038146302E0,1.391945824E1,1.735325425E1
7.024179333E0,-1.130754210E1,-3.099068735E0,1.348021073E1,1.786563227E1
7.034165333E0,-1.217574135E1,-3.082137537E0,1.313538522E1,1.817378866E1
7.044150333E0,-1.281804162E1,-3.200139319E0,1.255146238E1,1.822312516E1
7.054136333E0,-1.338340072E1,-3.543773166E0,1.184518188E1,1.822037532E1
7.064121333E0,-1.387588245E1,-4.064369487E0,1.105564404E1,1.820127684E1
7.074107333E0,-1.444543049E1,-4.563438406E0,9.935488265E0,1.811654932E1
7.084092333E0,-1.483526319E1,-5.145827517E0,8.459897786E0,1.783632376E1
7.094078333E0,-1.491058936E1,-5.738062170E0,7.078659149E0,1.747450852E1
7.104063333E0,-1.506240647E1,-6.269217392E0,5.724752153E0,1.729022737E1
7.114049333E0,-1.512580549E1,-6.829036835E0,4.447697450E0,1.718161076E1
7.124034333E0,-1.494083116E1,-7.431656728E0,3.021784916E0,1.695845340E1
7.134020333E0,-1.441896950E1,-7.813884537E0,1.708233647E0,1.648883062E1
7.144006333E0,-1.359854200E1,-7.955108244E0,7.676733416E-1,1.577318655E1
7.153991333E0,-1.285677475E1,-8.122474267E0,-5.941531241E-2,1.520772091E1
7.163977333E0,-1.215612979E1,-8.454530042E0,-1.058805040E0,1.484491960E1
7.173962333E0,-1.152281669E1,-8.805883968E0,-2.047811866E0,1.464624288E1
7.183948333E0,-1.099513706E1,-9.118274388E0,-2.760754099E0,1.454846143E1
7.193933333E0,-1.042707421E1,-9.475909978E0,-3.297750106E0,1.447038017E1
7.203919333E0,-9.851091893E0,-9.904516733E0,-3.913199374E0,1.450712213E1
7.213904333E0,-9.280816458E0,-1.032517712E1,-4.567056663E0,1.461508957E1
7.223890333E0,-8.524402515E0,-1.069878380E1,-5.123421571E0,1.460749334E1
7.233875333E0,-7.543173071E0,-1.096252129E1,-5.503401126E0,1.440013045E1
7.243861333E0,-6.612800369E0,-1.105095458E1,-5.594856257E0,1.404119448E1
7.253846333E0,-5.686407282E0,-1.109231895E1,-5.534659756E0,1.363844662E1
7.263832333E0,-4.879503216E0,-1.112533350E1,-5.728694345E0,1.343132667E1
7.273817333E0,-4.251991434E0,-1.117197791E1,-6.042064759E0,1.339399373E1
7.283803333E0,-3.763533165E0,-1.129284921E1,-6.320411519E0,1.347739689E1
7.293788333E0,-3.495089249E0,-1.136687964E1,-6.833095973E0,1.371542206E1
7.303774333E0,-3.101322836E0,-1.139866043E1,-7.396040753E0,1.393732692E1
7.313759333E0,-2.500960262E0,-1.131030081E1,-7.746155069E0,1.393487083E1
7.323745333E0,-1.820015161E0,-1.116302699E1,-7.889522949E0,1.379022114E1
7.333731333E0,-1.131571738E0,-1.097085474E1,-7.824250481E0,1.352253689E1
7.343716333E0,-4.628029893E-1,-1.054699476E1,-7.590300459E0,1.300253614E1
7.353702333E0,4.336684699E-1,-1.008650079E1,-7.491021169E0,1.257143448E1
7.363687333E0,1.239292068E0,-9.701912464E0,-7.839875996E0,1.253501519E1
7.373673333E0,1.822877812E0,-9.415214126E0,-8.280840840E0,1.267049587E1
7.383658333E0,2.163443771E0,-9.226232116E0,-8.333428359E0,1.261942456E1
7.393644333E0,2.333747436E0,-9.045668927E0,-8.421286283E0,1.257730361E1
7.403629333E0,2.661186250E0,-8.882967228E0,-8.692495347E0,1.271017287E1
7.413615333E0,3.041412557E0,-8.784121801E0,-9.098968636E0,1.300777523E1
7.423600333E0,3.170480487E0,-8.786080619E0,-9.236562976E0,1.313625726E1
7.433586333E0,3.444505863E0,-8.890302560E0,-8.995191084E0,1.310784356E1
7.443571333E0,3.876347005E0,-8.883575923E0,-8.619844278E0,1.297095612E1
7.453557333E0,4.355313781E0,-8.693874705E0,-8.127405224E0,1.267307899E1
7.463542333E0,4.950333463E0,-8.587564723E0,-7.635739172E0,1.251225727E1
7.473528333E0,5.764201562E0,-8.489535568E0,-7.158055567E0,1.251143450E1
7.483513333E0,6.761550611E0,-8.109793410E0,-6.290681936E0,1.229064665E1
7.493499333E0,7.367285900E0,-7.459441527E0,-5.294352057E0,1.174522597E1
7.503484333E0,7.440416442E0,-7.090035492E0,-4.729991081E0,1.131376223E1
7.513470333E0,7.392635334E0,-7.283966001E0,-4.417249244E0,1.127915373E1
7.523455333E0,7.939518397E0,-7.660405067E0,-3.784702132E0,1.166369274E1
7.533441333E0,8.746721256E0,-7.634603058E0,-2.645272175E0,1.190755061E1
7.543427333E0,9.578442074E0,-7.081726599E0,-1.022239476E0,1.195585119E1
7.553412333E0,1.089974441E1,-6.016375017E0,7.353288835E-1,1.247164404E1
7.563398333E0,1.248111453E1,-4.703939981E0,2.450275134E0,1.356130965E1
7.573383333E0,1.387688233E1,-3.487924948E0,3.897441713E0,1.482981913E1
7.583369333E0,1.470307987E1,-2.372212174E0,5.093362205E0,1.574008535E1
7.593354333E0,1.449860390E1,-1.658814589E0,6.318439838E0,1.590232257E1
7.603340333E0,1.395359780E1,-1.947762790E0,7.430938105E0,1.592844978E1
7.613325333E0,1.256030571E1,-2.540480423E0,8.254044805E0,1.524285327E1
7.623311333E0,1.070130161E1,-2.820726652E0,8.925593430E0,1.421761488E1
7.633296333E0,8.855691136E0,-2.625821997E0,9.662512171E0,1.336721168E1
7.643282333E0,7.005652569E0,-1.836160786E0,1.047343444E1,1.273355737E1
7.653267333E0,5.355851317E0,-9.801000550E-1,1.121891468E1,1.247035629E1
7.663253333E0,3.915591470E0,-5.707819493E-1,1.199580265E1,1.263158461E1
7.673238333E0,2.304391197E0,-5.000226000E-1,1.270039798E1,1.291744364E1
7.683224333E0,-5.237058699E-2,-6.721930609E-1,1.316910377E1,1.318635205E1
7.693209333E0,-3.180078107E0,-9.202546068E-1,1.313072849E1,1.354163196E1
7.703195333E0,-5.931002744E0,-9.389127065E-1,1.311339618E1,1.442288147E1
7.713181333E0,-8.234951307E0,-6.005727822E-1,1.330575203E1,1.565944277E1
7.723166333E0,-9.882636452E0,-3.333842629E-1,1.297652221E1,1.631464916E1
7.733152333E0,-1.090513321E1,-2.479236978E-1,1.167634470E1,1.597874907E1
7.743137333E0,-1.124670065E1,-3.734821290E-2,1.077959232E1,1.557848776E1
7.753123333E0,-1.120827041E1,6.009826720E-1,1.030872656E1,1.523995896E1
7.763108333E0,-1.068750452E1,1.213036316E0,9.183742154E0,1.414338467E1
7.773094333E0,-9.889966521E0,1.571836379E0,7.754823566E0,1.266567787E1
7.783079333E0,-9.059395266E0,1.526051949E0,6.606492977E0,1.131579545E1
7.793065333E0,-8.341830808E0,1.113674873E0,5.241772140E0,9.914766165E0
7.803050333E0,-7.605485678E0,5.305968136E-1,3.390754749E0,8.343989642E0
7.813036333E0,-6.706418384E0,2.341135977E-1,1.682536304E0,6.918221241E0
7.823021333E0,-5.309668254E0,2.594570383E-2,4.782373363E-1,5.331225102E0
7.833007333E0,-3.603265077E0,-2.240740746E-2,-3.812828994E-1,3.623451112E0
7.842992333E0,-1.954141079E0,9.708987303E-2,-1.294129157E0,2.345818423E0
7.852978333E0,-5.021862891E-1,2.054888459E-1,-2.150652110E0,2.218044461E0
7.862963333E0,9.348554698E-1,1.733227278E-1,-3.116710954E0,3.258509274E0
7.872949333E0,2.242733185E0,2.127443634E-1,-3.644188862E0,4.284299799E0
7.882934333E0,3.390445431E0,1.690948986E-1,-3.765118053E0,5.069499705E0
7.892920333E0,4.397243873E0,-2.311024278E-2,-4.216560524E0,6.092263160E0
7.902906333E0,5.203213261E0,-2.171984068E-1,-4.520298234E0,6.895919047E0
7.912891333E0,6.023752449E0,-3.308763921E-1,-4.185948011E0,7.342835522E0
7.922877333E0,7.116425146E0,-5.665248840E-1,-3.388985966E0,7.902511194E0
7.932862333E0,8.333220783E0,-8.323783377E-1,-2.329690345E0,8.692691149E0
7.942848333E0,9.459810839E0,-8.472089231E-1,-1.246053350E0,9.579062221E0
7.952833333E0,1.064860533E1,-7.336488323E-1,-2.990084821E-1,1.067803550E1
7.962819333E0,1.185762125E1,-6.242228691E-1,7.968626422E-1,1.190074896E1
7.972804333E0,1.279835989E1,-6.349846695E-1,2.172560458E0,1.299697043E1
7.982790333E0,1.340945240E1,-6.898672204E-1,3.530610207E0,1.388360684E1
7.992775333E0,1.354195732E1,-6.990226445E-1,4.574923507E0,1.431094567E1
8.002761333E0,1.306588170E1,-8.632913974E-1,5.314292817E0,1.413167523E1
8.012746333E0,1.213389985E1,-1.157784513E0,6.252030087E0,1.369890035E1
8.022732333E0,1.090887893E1,-1.214633483E0,7.628393900E0,1.336680095E1
8.032717333E0,9.489357405E0,-1.222886097E0,9.268153728E0,1.332073676E1
8.042703333E0,7.818590376E0,-1.336094624E0,1.115964730E1,1.369135611E1
8.052688333E0,5.983437651E0,-1.659321835E0,1.348316708E1,1.484421334E1
8.062674333E0,3.823353397E0,-2.016629834E0,1.566614318E1,1.625154975E1
8.072659333E0,1.788856226E0,-2.463915227E0,1.723846649E1,1.750530239E1
8.082645333E0,-1.015744682E-1,-2.881105000E0,1.804558807E1,1.827441742E1
8.092630333E0,-2.230768612E0,-3.009005241E0,1.834197524E1,1.872053677E1
8.102616333E0,-3.863726375E0,-3.266626254E0,1.832870323E1,1.901422075E1
8.112602333E0,-5.535628640E0,-3.632406431E0,1.802905916E1,1.920636705E1
8.122587333E0,-7.371612840E0,-4.114924221E0,1.777579286E1,1.967872173E1
8.132573333E0,-9.302639437E0,-4.690746032E0,1.720250728E1,2.011140113E1
8.142558333E0,-1.123637680E1,-5.368255600E0,1.597558251E1,2.025570459E1
8.152544333E0,-1.318689568E1,-6.215315419E0,1.424669065E1,2.038363456E1
8.162529333E0,-1.515656418E1,-7.240154568E0,1.162386711E1,2.042683437E1
8.172515333E0,-1.707811595E1,-8.259113172E0,9.120507440E0,2.104895843E1
8.182500333E0,-1.841529933E1,-9.063543865E0,7.380194798E0,2.181142710E1
8.192486333E0,-1.932315791E1,-9.890585157E0,5.530856727E0,2.240085897E1
8.202471333E0,-2.026973325E1,-1.073928863E1,3.600529457E0,2.321978076E1
8.212457333E0,-2.078746209E1,-1.141597052E1,1.911461813E0,2.379278566E1
8.222442333E0,-2.034935361E1,-1.191384223E1,3.245479506E-1,2.358264532E1
8.232428333E0,-1.903608769E1,-1.212638618E1,-1.038989410E0,2.259427749E1
8.242413333E0,-1.740591905E1,-1.199328250E1,-2.205915315E0,2.125255056E1
8.252399333E0,-1.598859841E1,-1.189821613E1,-3.659610894E0,2.026315815E1
8.262384333E0,-1.452303006E1,-1.199055302E1,-5.107836987E0,1.951363017E1
8.272370333E0,-1.299629399E1,-1.193488285E1,-6.168644114E0,1.869217099E1
8.282356333E0,-1.150788641E1,-1.177230452E1,-6.684850929E0,1.776811288E1
8.292341333E0,-9.900576879E0,-1.167030569E1,-7.055524056E0,1.685223656E1
8.302327333E0,-8.301324806E0,-1.134230262E1,-7.537283755E0,1.594899585E1
8.312312333E0,-6.897770271E0,-1.106344423E1,-7.842399654E0,1.521454124E1
8.322298333E0,-5.589674454E0,-1.094699576E1,-8.112259766E0,1.472718355E1
8.332283333E0,-4.560434107E0,-1.095427438E1,-8.488284849E0,1.458919689E1
8.342269333E0,-3.645464725E0,-1.098050966E1,-8.729515239E0,1.449363453E1
8.352254333E0,-2.776250390E0,-1.083938477E1,-8.748998162E0,1.420368957E1
8.362240333E0,-2.173921689E0,-1.069689164E1,-8.795237358E0,1.401804645E1
8.372225333E0,-1.553161980E0,-1.075530532E1,-8.899573320E0,1.404604250E1
8.382211333E0,-9.336563520E-1,-1.074070015E1,-9.108433524E0,1.411374915E1
8.392196333E0,-2.407042503E-1,-1.056838153E1,-9.300728567E0,1.408020520E1
8.402182333E0,2.270211261E-1,-1.030522057E1,-9.111075296E0,1.375720912E1
8.412167333E0,6.499924256E-1,-1.006595368E1,-8.810012687E0,1.339261876E1
8.422153333E0,1.141806120E0,-1.019461698E1,-8.934625624E0,1.360373006E1
8.432138333E0,1.485713909E0,-1.041216030E1,-9.206611199E0,1.397791536E1
8.442124333E0,1.767428081E0,-1.028918868E1,-9.202365535E0,1.391670712E1
8.452109333E0,1.704481051E0,-1.012812478E1,-9.262722250E0,1.383048050E1
8.462095333E0,1.572537460E0,-1.019685062E1,-9.683870881E0,1.415012339E1
8.472081333E0,1.519775840E0,-1.040978048E1,-1.013818200E1,1.461013287E1
8.482066333E0,1.533287294E0,-1.047159842E1,-1.022818585E1,1.471805453E1
8.492052333E0,2.045623692E0,-1.040739365E1,-9.819416356E0,1.445404291E1
8.502037333E0,2.882743390E0,-1.013821474E1,-9.420298864E0,1.413632336E1
8.512023333E0,3.827249982E0,-9.929545155E0,-9.002752118E0,1.393891155E1
8.522008333E0,4.816507946E0,-9.896603111E0,-8.600479469E0,1.396816914E1
8.531994333E0,5.511754459E0,-9.887315394E0,-8.212396842E0,1.398506006E1
8.541979333E0,6.047752345E0,-9.975588470E0,-7.904607596E0,1.409150436E1
8.551965333E0,6.585325472E0,-1.005661918E1,-7.418481781E0,1.412572026E1
8.561950333E0,7.600008591E0,-9.800164983E0,-6.573480182E0,1.403616778E1
8.571936333E0,9.327031682E0,-9.175023370E0,-4.886841472E0,1.396623763E1
8.581921458E0,1.124661645E1,-8.225413914E0,-2.341773616E0,1.412896738E1
8.591907458E0,1.310262327E1,-7.091120735E0,1.543173766E-1,1.489921285E1
8.601892458E0,1.445279799E1,-5.984856770E0,1.384223056E0,1.570407443E1
8.611878458E0,1.485679030E1,-5.254485741E0,1.681788445E0,1.584809928E1
8.621863458E0,1.440836733E1,-5.383088817E0,2.077313992E0,1.552075797E1
8.631849458E0,1.366301925E1,-5.935830206E0,2.672503243E0,1.513454488E1
8.641835458E0,1.315573820E1,-6.223873404E0,3.696023260E0,1.501567966E1
8.651820458E0,1.264236787E1,-5.472799723E0,5.078100387E0,1.468223777E1
8.661806458E0,1.266530065E1,-4.517855852E0,6.271220648E0,1.483742129E1
8.671791458E0,1.248294939E1,-3.472690904E0,7.564355194E0,1.500343551E1
8.681777458E0,1.194447930E1,-2.568857545E0,9.238876719E0,1.531752127E1
8.691762458E0,1.057403930E1,-1.729418841E0,1.043505566E1,1.495632252E1
8.701748458E0,8.453630156E0,-1.108506519E0,1.114558241E1,1.403269955E1
8.711733458E0,5.731113338E0,-8.954616085E-1,1.210698277E1,1.342484799E1
8.721719458E0,2.895932077E0,-9.494355751E-1,1.368359092E1,1.401886268E1
8.731704458E0,-1.505865607E-1,-1.059132045E0,1.576640890E1,1.580266074E1
8.741690458E0,-3.271488214E0,-1.447789599E0,1.755842847E1,1.791918358E1
8.751675458E0,-6.307995542E0,-2.173495720E0,1.792110085E1,1.912278084E1
8.761661458E0,-9.281308209E0,-2.681224073E0,1.751917494E1,2.000632738E1
8.771646458E0,-1.161161719E1,-2.281746977E0,1.777778442E1,2.135616169E1
8.781632458E0,-1.251192117E1,-1.391672409E0,1.728162479E1,2.138082035E1
8.791617458E0,-1.213789583E1,-4.819790427E-1,1.526622638E1,1.950944609E1
8.801603458E0,-1.144827756E1,3.301337957E-1,1.265154566E1,1.706556929E1
8.811588458E0,-1.093241047E1,1.152747795E0,1.027711301E1,1.504876998E1
8.821574458E0,-1.019595249E1,1.582700944E0,7.564708951E0,1.279403028E1
8.831559458E0,-9.216162626E0,1.757273660E0,4.953097442E0,1.060937503E1
8.841545458E0,-8.547617131E0,1.625927655E0,2.939171945E0,9.183906090E0
8.851531458E0,-7.552897575E0,1.298567486E0,1.687279565E0,7.847257586E0
8.861516458E0,-6.219523076E0,1.171371761E0,1.062909785E0,6.417503900E0
8.871502458E0,-4.672201880E0,1.093624843E0,5.487676209E-1,4.829765171E0
8.881487458E0,-3.149356251E0,1.203786313E0,5.533278644E-2,3.372033215E0
8.891473458E0,-1.688517421E0,1.307018759E0,-2.446042335E-1,2.149237155E0
8.901458458E0,-3.377174517E-1,1.282894755E0,-1.172607059E0,1.770559049E0
8.911444458E0,6.315941615E-1,1.185732158E0,-2.601313393E0,2.927747137E0
8.921429458E0,1.266809504E0,1.058392226E0,-3.559698350E0,3.923831389E0
8.931415458E0,1.729272368E0,9.039602441E-1,-3.800069200E0,4.271773984E0
8.941400458E0,2.114162415E0,7.130726266E-1,-3.728827894E0,4.345378320E0
8.951386458E0,2.512069387E0,3.518698698E-1,-4.043422129E0,4.773213543E0
8.961371458E0,3.052511449E0,-2.252170591E-1,-4.667310099E0,5.581427455E0
8.971357458E0,3.819692456E0,-6.581003210E-1,-5.132602285E0,6.431699052E0
8.981342458E0,5.034105937E0,-7.939421772E-1,-4.959386122E0,7.111123503E0
8.991328458E0,6.621989853E0,-5.781587966E-1,-4.043414528E0,7.780373914E0
9.001313458E0,8.417743455E0,-1.965246257E-1,-2.818841509E0,8.879352130E0
9.011299458E0,1.028114408E1,1.862227819E-1,-1.555959873E0,1.039988527E1
9.021285458E0,1.169761453E1,4.762052827E-1,-2.127661443E-1,1.170923681E1
9.031270458E0,1.295084241E1,6.143556196E-1,1.246132872E0,1.302515256E1
9.041256458E0,1.406544919E1,4.479975834E-1,2.455809524E0,1.428525684E1
9.051241458E0,1.441998926E1,2.723121420E-2,3.534342484E0,1.484683160E1
9.061227458E0,1.373562880E1,-4.739684303E-1,5.121569758E0,1.466705906E1
9.071212458E0,1.267903693E1,-9.847516613E-1,6.933699072E0,1.448460894E1
9.081198458E0,1.144797000E1,-1.468794406E0,8.361378635E0,1.425222883E1
9.091183458E0,1.020190261E1,-1.941432887E0,9.537538462E0,1.410009285E1
9.101169458E0,8.913034780E0,-2.065417247E0,1.069298336E1,1.407295387E1
9.111154458E0,7.594922683E0,-1.803353374E0,1.210606710E1,1.440457547E1
9.121140458E0,5.995781123E0,-1.417453952E0,1.375547191E1,1.507221200E1
9.131125458E0,4.197191329E0,-1.375924541E0,1.473273928E1,1.538061085E1
9.141111458E0,2.319791301E0,-1.683735276E0,1.504330479E1,1.531396144E1
9.151096458E0,5.181873409E-1,-1.980365110E0,1.574105186E1,1.587359688E1
9.161082458E0,-1.540211713E0,-2.148744894E0,1.686696481E1,1.707289837E1
9.171067458E0,-3.561802763E0,-2.842034198E0,1.722674048E1,1.781920831E1
9.181053458E0,-5.510155245E0,-3.657189562E0,1.715907884E1,1.838942177E1
9.191039458E0,-7.894255686E0,-4.310650702E0,1.673165790E1,1.899603533E1
9.201024458E0,-1.019933101E1,-5.177286707E0,1.528309325E1,1.908935803E1
9.211010458E0,-1.236350831E1,-6.191651738E0,1.336203148E1,1.922854062E1
9.220995458E0,-1.419104738E1,-6.939150431E0,1.205913852E1,1.987361206E1
9.230981458E0,-1.535591799E1,-7.463050429E0,1.085432558E1,2.023160208E1
9.240966458E0,-1.618189216E1,-8.043707594E0,9.304560247E0,2.032559242E1
9.250952458E0,-1.701572616E1,-8.583348881E0,7.924951814E0,2.064009874E1
9.260937458E0,-1.746544604E1,-9.203506912E0,6.148335564E0,2.067724293E1
9.270923458E0,-1.759468705E1,-9.611821489E0,4.002299831E0,2.044452320E1
9.280908458E0,-1.753724751E1,-9.860358560E0,2.293693131E0,2.024951233E1
9.290894458E0,-1.705166315E1,-9.889458983E0,1.303723853E0,1.975500724E1
9.300879458E0,-1.609418626E1,-1.000183428E1,3.106707537E-1,1.895141253E1
9.310865458E0,-1.509185890E1,-1.018337279E1,-8.415540808E-1,1.822562755E1
9.320850458E0,-1.430785370E1,-1.038668047E1,-1.963854035E0,1.778916893E1
9.330836458E0,-1.352612540E1,-1.078732701E1,-3.101915159E0,1.757681342E1
9.340821458E0,-1.299615132E1,-1.117779706E1,-3.944459758E0,1.758982259E1
9.350807458E0,-1.234375993E1,-1.144613982E1,-4.508975101E0,1.742737451E1
9.360792458E0,-1.138723263E1,-1.161066877E1,-5.336975920E0,1.711607456E1
9.370778458E0,-1.051429362E1,-1.164157949E1,-6.044029423E0,1.681092011E1
9.380764458E0,-9.732675835E0,-1.170177307E1,-6.619151030E0,1.659727786E1
9.390749458E0,-9.040692362E0,-1.189898796E1,-7.144671291E0,1.656400799E1
9.400735458E0,-8.288749784E0,-1.202208939E1,-7.296291931E0,1.632390524E1
9.410720458E0,-7.566787636E0,-1.220941196E1,-7.521130237E0,1.621398827E1
9.420706458E0,-6.759725111E0,-1.229447959E1,-7.842955724E0,1.607358288E1
9.430691458E0,-5.926840112E0,-1.234106436E1,-7.893851058E0,1.580323346E1
9.440677458E0,-5.596739645E0,-1.273129701E1,-8.154429885E0,1.612154288E1
9.450662458E0,-4.844107096E0,-1.276203933E1,-8.466796331E0,1.606305268E1
9.460648458E0,-3.957334743E0,-1.271605332E1,-8.695621269E0,1.590510419E1
9.470633458E0,-3.068045747E0,-1.264176678E1,-8.654070954E0,1.562434370E1
9.480619458E0,-2.191715205E0,-1.253934812E1,-8.779118924E0,1.546324015E1
9.490604458E0,-1.601819293E0,-1.246405352E1,-8.967341380E0,1.543799426E1
9.500590458E0,-1.061644740E0,-1.233813257E1,-9.041927294E0,1.533339669E1
9.510575458E0,-2.437165348E-1,-1.203566545E1,-8.947584808E0,1.499919713E1
9.520561458E0,7.895720413E-1,-1.175608552E1,-8.748024015E0,1.467504327E1
9.530546458E0,1.495404353E0,-1.166672837E1,-8.780225217E0,1.467791333E1
9.540532458E0,2.141656900E0,-1.119311208E1,-8.935918443E0,1.448181932E1
9.550517458E0,2.580545544E0,-1.084091791E1,-8.856881629E0,1.423478376E1
9.560503458E0,2.817910048E0,-1.085700945E1,-8.982145361E0,1.436990628E1
9.570489458E0,2.873805336E0,-1.109470578E1,-9.238849238E0,1.472099143E1
9.580474000E0,3.141801356E0,-1.136101605E1,-9.437948100E0,1.510028032E1
9.590460000E0,3.706116431E0,-1.143945528E1,-9.487343039E0,1.531685719E1
9.600445000E0,4.548042980E0,-1.138452420E1,-9.275414801E0,1.537287891E1
9.610431000E0,5.724799515E0,-1.122306620E1,-8.872973751E0,1.540974392E1
9.620416000E0,7.264070849E0,-1.091763923E1,-7.992557321E0,1.535716589E1
9.630402000E0,8.870643051E0,-1.036293376E1,-6.321763396E0,1.503473966E1
9.640387000E0,1.034090379E1,-9.634489975E0,-4.721775743E0,1.490143800E1
9.650373000E0,1.166535544E1,-9.058375511E0,-4.044664078E0,1.531319666E1
9.660358000E0,1.272786352E1,-8.565111415E0,-3.653516926E0,1.577047334E1
9.670344000E0,1.340096224E1,-8.153881416E0,-3.000642554E0,1.597108096E1
9.680329000E0,1.402995659E1,-7.740300837E0,-2.035874775E0,1.615229782E1
9.690315000E0,1.465981047E1,-7.302992256E0,-7.778083205E-1,1.639660711E1
9.700300000E0,1.552516096E1,-6.749811156E0,8.015252119E-1,1.694795021E1
9.710286000E0,1.652056757E1,-5.666090546E0,2.501110243E0,1.764339217E1
9.720271000E0,1.651416838E1,-4.038847268E0,4.074205965E0,1.748225382E1
9.730257000E0,1.554736518E1,-2.878871072E0,4.964258022E0,1.657263770E1
9.740242000E0,1.393880083E1,-2.443247804E0,6.223911996E0,1.545951840E1
9.750228000E0,1.164628065E1,-2.634970551E0,9.449871157E0,1.522757327E1
9.760214000E0,8.625851707E0,-3.452940179E0,1.372279533E1,1.657236330E1
9.770199000E0,5.682101392E0,-4.279709575E0,1.769381607E1,1.907022069E1
9.780185000E0,3.706549125E0,-4.425808106E0,2.099389220E1,2.177314385E1
9.790170000E0,1.858860992E0,-3.963872514E0,2.240622633E1,2.282995023E1
9.800156000E0,-1.516259032E-1,-3.163046922E0,2.175466875E1,2.198393660E1
9.810141000E0,-1.934111588E0,-2.477544502E0,2.039134130E1,2.063215487E1
9.820127000E0,-4.231140556E0,-1.946987449E0,1.990808530E1,2.044566386E1
9.830112000E0,-6.471201856E0,-1.419695920E0,2.000257630E1,2.107119002E1
9.840098000E0,-8.221492771E0,-8.456670123E-1,1.855590498E1,2.031328890E1
9.850083000E0,-9.944981804E0,-2.443497334E-1,1.603611523E1,1.887112507E1
9.860069000E0,-1.103029403E1,2.610854879E-2,1.305909425E1,1.709409286E1
9.870054000E0,-1.163302034E1,2.854265696E-1,9.890836587E0,1.527210787E1
9.880040000E0,-1.154297789E1,5.034106229E-1,7.297295313E0,1.366544108E1
9.890025000E0,-1.094045740E1,6.694446503E-1,5.641920496E0,1.232773423E1
9.900011000E0,-9.934841563E0,8.202794252E-1,4.299877499E0,1.085646728E1
9.909997000E0,-8.268922461E0,1.108677477E0,3.034218435E0,8.877540533E0
9.919982000E0,-5.979270340E0,1.411646790E0,1.993828032E0,6.459084353E0
9.929968000E0,-4.087247303E0,1.741845489E0,7.606759787E-1,4.507576308E0
9.939953000E0,-2.445514770E0,2.057343412E0,-5.926077050E-1,3.250290494E0
9.949939000E0,-1.099873836E0,2.433853522E0,-2.266737467E0,3.503064967E0
9.959924000E0,-3.231169177E-1,2.723488917E0,-3.238916591E0,4.244099093E0
9.969910000E0,-1.197700714E-1,2.533616669E0,-3.497152439E0,4.320142761E0
9.979895000E0,-2.098731795E-1,1.751803736E0,-3.874251071E0,4.257074634E0
9.989881000E0,-6.590519553E-1,8.081552967E-1,-4.340646041E0,4.464154177E0
9.999866000E0,-1.272810355E0,-6.033544488E-2,-4.570101893E0,4.744419657E0
1.000985200E1,-1.505413178E0,-8.452688900E-1,-4.537189670E0,4.854568821E0
1.001983700E1,-1.119109787E0,-1.268174829E0,-4.241005978E0,4.565830244E0
1.002982300E1,-9.381659257E-2,-1.371041531E0,-4.222557428E0,4.440557135E0
1.003980800E1,1.531669808E0,-1.222352758E0,-4.394031120E0,4.811202360E0
1.004979400E1,3.413564737E0,-7.247473966E-1,-4.218570212E0,5.474853206E0
1.005977900E1,5.357721841E0,-2.043757553E-1,-3.650759379E0,6.486524248E0
1.006976500E1,7.311743199E0,2.167826698E-1,-2.831298417E0,7.843776773E0
1.007975000E1,8.797535314E0,5.913821286E-1,-2.115443686E0,9.067605109E0
1.008973600E1,9.798150617E0,4.860847382E-1,-1.671409053E0,9.951564807E0
1.009972200E1,1.068145499E1,2.648249285E-1,-8.831119967E-1,1.072117063E1
1.010970700E1,1.161364968E1,3.229437670E-1,5.280889428E-1,1.163013455E1
1.011969300E1,1.242838317E1,4.052769488E-1,1.796745290E0,1.256412557E1
1.012967800E1,1.308279770E1,2.327471034E-1,2.776767869E0,1.337625533E1
1.013966400E1,1.336538544E1,1.236753353E-1,3.668819674E0,1.386034132E1
1.014964900E1,1.308072428E1,-3.615655035E-2,4.838094989E0,1.394682107E1
1.015963500E1,1.211600269E1,-4.530678503E-1,6.358686224E0,1.369071518E1
1.016962000E1,1.067873954E1,-1.013261369E0,8.143703753E0,1.346781673E1
1.017960600E1,9.093958157E0,-1.619916864E0,1.001462448E1,1.362412966E1
1.018959100E1,7.370672607E0,-2.217319724E0,1.210185827E1,1.434218586E1
1.019957700E1,5.638962974E0,-2.770265765E0,1.449090312E1,1.579425684E1
1.020956200E1,3.778281890E0,-3.009006118E0,1.587782408E1,1.659622937E1
1.021954800E1,1.663907075E0,-2.930011112E0,1.556249076E1,1.592308609E1
1.022953300E1,1.094909403E-3,-3.058517709E0,1.502914517E1,1.533720106E1
1.023951900E1,-1.329601291E0,-3.100130589E0,1.533737179E1,1.570393653E1
1.024950400E1,-2.491786565E0,-2.817118335E0,1.657863627E1,1.699989225E1
1.025949000E1,-3.490584846E0,-2.622506626E0,1.794490603E1,1.846838856E1
1.026947600E1,-4.670423449E0,-2.880333168E0,1.836391517E1,1.916618258E1
1.027946100E1,-6.325216761E0,-3.419743197E0,1.804900986E1,1.942858120E1
1.028944700E1,-7.930301431E0,-4.061855476E0,1.720432927E1,1.937465603E1
1.029943200E1,-9.557477467E0,-5.163466228E0,1.526149013E1,1.873285456E1
1.030941800E1,-1.158344414E1,-6.231222185E0,1.324396918E1,1.866566440E1
1.031940300E1,-1.308652588E1,-6.960724318E0,1.167222592E1,1.886662929E1
1.032938900E1,-1.393302378E1,-7.671108980E0,1.005258577E1,1.881567287E1
1.033937400E1,-1.437497973E1,-8.187804038E0,9.026193021E0,1.884548587E1
1.034936000E1,-1.473071381E1,-8.791457133E0,8.113881783E0,1.897679439E1
1.035934500E1,-1.520021833E1,-9.442159849E0,6.871855411E0,1.916829196E1
1.036933100E1,-1.567669624E1,-1.015401742E1,5.338546482E0,1.942583211E1
1.037931600E1,-1.609887807E1,-1.108157762E1,3.410310761E0,1.983949236E1
1.038930200E1,-1.624331131E1,-1.180036414E1,1.682747388E0,2.014759030E1
1.039928700E1,-1.606393160E1,-1.245244914E1,2.399440026E-1,2.032660722E1
1.040927300E1,-1.579775231E1,-1.288071091E1,-1.011607484E0,2.040845514E1
1.041925800E1,-1.440939644E1,-1.299925619E1,-2.230201140E0,1.953420499E1
1.042924400E1,-1.259313432E1,-1.274479706E1,-3.265973412E0,1.821217907E1
1.043923000E1,-1.094554565E1,-1.246422894E1,-3.841518357E0,1.702701489E1
1.044921500E1,-9.720450477E0,-1.263283691E1,-4.688191676E0,1.661489895E1
1.045920100E1,-8.905765522E0,-1.291626081E1,-5.680568252E0,1.668566176E1
1.046918600E1,-8.016995759E0,-1.312037074E1,-6.415603606E0,1.666062180E1
1.047917200E1,-7.205450174E0,-1.323634090E1,-7.068525340E0,1.664581879E1
1.048915700E1,-6.217948421E0,-1.340116690E1,-7.731086794E0,1.667404749E1
1.049914300E1,-5.323685784E0,-1.348472244E1,-8.310965695E0,1.671082046E1
1.050912800E1,-4.571348519E0,-1.375717228E1,-8.738919316E0,1.692707084E1
1.051911400E1,-3.534657357E0,-1.355820674E1,-9.247003765E0,1.678766962E1
1.052909900E1,-2.081092171E0,-1.269250658E1,-9.382734012E0,1.592062704E1
1.053908500E1,-9.228967443E-1,-1.276653584E1,-9.154521278E0,1.573662720E1
1.054907000E1,-3.835203364E-2,-1.320447241E1,-9.182530026E0,1.608348284E1
1.055905600E1,8.915898015E-1,-1.237386139E1,-9.489009495E0,1.561885653E1
1.056904100E1,1.487721404E0,-1.161099505E1,-9.721017657E0,1.521600162E1
1.057902658E1,2.228082694E0,-1.126384702E1,-9.957678448E0,1.519848553E1
1.058901158E1,2.792662355E0,-1.115354865E1,-1.016108086E1,1.534432061E1
1.059899758E1,2.847188811E0,-1.101661973E1,-1.027359649E1,1.533033526E1
1.060898258E1,2.799299530E0,-1.085264509E1,-1.003839809E1,1.504610978E1
1.061896858E1,2.707837967E0,-1.076898079E1,-9.882294974E0,1.486482720E1
1.062895458E1,2.618572034E0,-1.083315515E1,-9.948855000E0,1.493967489E1
1.063893958E1,2.548717688E0,-1.097807956E1,-9.953860216E0,1.503640668E1
1.064892558E1,2.499686738E0,-1.104068687E1,-9.749113528E0,1.493955872E1
1.065891058E1,2.392506690E0,-1.096615007E1,-9.319118060E0,1.458857420E1
1.066889658E1,2.291875817E0,-1.098927113E1,-8.946294912E0,1.435454518E1
1.067888158E1,2.293193048E0,-1.108232840E1,-8.383143141E0,1.408381433E1
1.068886758E1,2.315386009E0,-1.123906652E1,-7.730248303E0,1.383598090E1
1.069885258E1,2.640238599E0,-1.133552804E1,-7.055853839E0,1.361066233E1
1.070883858E1,3.371790474E0,-1.117691764E1,-5.905983678E0,1.308331388E1
1.071882358E1,4.419308633E0,-1.077634360E1,-4.790942457E0,1.259416531E1
1.072880958E1,5.632050396E0,-1.032192373E1,-4.180804215E0,1.247963241E1
1.073879458E1,7.048790402E0,-9.744990656E0,-3.649746056E0,1.256864891E1
1.074878058E1,8.440631796E0,-8.855540278E0,-2.429599965E0,1.247268274E1
1.075876558E1,9.906109514E0,-7.758177529E0,-4.713259274E-1,1.259136499E1
1.076875158E1,1.149389403E1,-6.660047625E0,1.387230864E0,1.335628106E1
1.077873658E1,1.264141829E1,-5.746067593E0,2.746348899E0,1.415504084E1
1.078872258E1,1.322241868E1,-4.873977597E0,3.762814250E0,1.458584192E1
1.079870858E1,1.347336598E1,-4.076216823E0,4.693933641E0,1.483846850E1
1.080869358E1,1.347896527E1,-3.369034097E0,5.641131706E0,1.499517464E1
1.081867958E1,1.307463148E1,-2.496258515E0,6.492683356E0,1.480986941E1
1.082866458E1,1.257581603E1,-1.661789360E0,7.173493971E0,1.457297871E1
1.083865058E1,1.178060289E1,-1.014220751E0,7.637843585E0,1.407650180E1
1.084863558E1,1.080592116E1,-8.258387386E-1,8.092893788E0,1.352571150E1
1.085862158E1,9.648857169E0,-1.612060691E0,8.489672393E0,1.295274958E1
1.086860658E1,7.755003076E0,-2.303262100E0,9.264515591E0,1.229944463E1
1.087859258E1,5.747727032E0,-2.332783522E0,1.032912048E1,1.204860884E1
1.088857758E1,3.868725452E0,-1.577264788E0,1.101059943E1,1.177659122E1
1.089856358E1,2.811817249E0,-2.158356401E-1,1.123113887E1,1.157978331E1
1.090854858E1,2.197937666E0,1.022238380E0,1.147875442E1,1.173190966E1
1.091853458E1,1.540452180E0,1.547815286E0,1.152881243E1,1.173380761E1
1.092851958E1,1.445373968E-1,1.373836647E0,1.156883311E1,1.165101789E1
1.093850558E1,-1.563503658E0,6.658435694E-1,1.197474448E1,1.209472599E1
1.094849158E1,-3.667574217E0,3.041728161E-1,1.221417627E1,1.275655611E1
1.095847658E1,-5.521918674E0,8.379334118E-1,1.194295200E1,1.318437791E1
1.096846258E1,-6.618404925E0,1.550349469E0,1.118547562E1,1.308899278E1
1.097844758E1,-7.177085330E0,1.791963437E0,1.041952545E1,1.277842703E1
1.098843358E1,-7.917083216E0,1.720751659E0,1.026495314E1,1.307709661E1
1.099841858E1,-8.453654130E0,1.653286923E0,1.066116047E1,1.370612886E1
1.100840458E1,-8.785625705E0,1.335886755E0,1.086228013E1,1.403427740E1
1.101838958E1,-8.880520168E0,1.041103325E0,1.075355817E1,1.398522606E1
1.102837558E1,-8.689361824E0,8.557901506E-1,1.032750665E1,1.352385963E1
1.103836058E1,-8.264192648E0,7.546705958E-1,9.708607526E0,1.277197980E1
1.104834658E1,-7.373336014E0,4.764260881E-1,8.255496084E0,1.107909208E1
1.105833158E1,-5.961243374E0,-9.617997319E-2,5.097086881E0,7.843849044E0
1.106831758E1,-4.712134854E0,-3.257791550E-1,1.652610254E0,5.004145041E0
1.107830258E1,-3.729103590E0,1.164358976E-1,2.812814784E-1,3.741509077E0
1.108828858E1,-2.638184765E0,3.288470428E-1,-3.538512719E-1,2.682045852E0
1.109827358E1,-1.414398489E0,2.119258994E-1,-1.492300066E0,2.066977301E0
1.110825958E1,-2.869214103E-2,-1.095461234E-1,-3.087992939E0,3.090068605E0
1.111824558E1,8.304952419E-1,-1.926475563E-1,-4.620274512E0,4.698273299E0
1.112823058E1,1.430570718E0,-2.213700297E-1,-5.205506539E0,5.403039477E0
1.113821658E1,2.066341400E0,-3.153371973E-1,-5.125456987E0,5.535297070E0
1.114820158E1,2.923147066E0,-4.692211490E-1,-5.064259443E0,5.866147029E0
1.115818758E1,4.177906335E0,-5.430162265E-1,-5.167304925E0,6.667143928E0
1.116817258E1,5.389786218E0,-4.585203058E-1,-5.243919822E0,7.533839091E0
1.117815858E1,6.623459843E0,-2.123018754E-1,-4.741463318E0,8.148421122E0
1.118814358E1,7.903632281E0,-8.191715240E-2,-3.685582471E0,8.721102671E0
1.119812958E1,9.030255082E0,9.383465499E-2,-2.768088262E0,9.445455225E0
1.120811458E1,1.007587056E1,1.760978164E-1,-2.026951924E0,1.027923694E1
1.121810058E1,1.079845894E1,2.225210541E-1,-9.028299773E-1,1.083841931E1
1.122808558E1,1.145701447E1,1.994629978E-1,5.337712669E-1,1.147117596E1
1.123807158E1,1.189559307E1,7.970836669E-2,1.714623485E0,1.201879451E1
1.124805658E1,1.185120685E1,4.767834261E-2,2.601014600E0,1.213336944E1
1.125804258E1,1.168368295E1,-1.419807748E-1,3.345220726E0,1.215397497E1
1.126802758E1,1.117783565E1,-5.580008130E-1,4.436456763E0,1.203900010E1
1.127801358E1,1.021849467E1,-9.258028105E-1,6.036110539E0,1.190417467E1
1.128799958E1,9.145916516E0,-1.117324120E0,7.447966366E0,1.184771729E1
1.129798458E1,8.010396007E0,-1.220615184E0,8.666381097E0,1.186433761E1
1.130797058E1,6.751994507E0,-1.357072826E0,9.707190161E0,1.190212659E1
1.131795558E1,4.999540706E0,-1.514223324E0,1.088775645E1,1.207607221E1
1.132794158E1,3.001469350E0,-1.973547257E0,1.212453378E1,1.264547454E1
1.133792658E1,8.995477159E-1,-2.295174085E0,1.294766036E1,1.318024730E1
1.134791258E1,-9.367972570E-1,-2.294359129E0,1.359534942E1,1.381937765E1
1.135789758E1,-2.311738516E0,-2.385202787E0,1.411076511E1,1.449644850E1
1.136788358E1,-3.848509581E0,-2.347850189E0,1.420877964E1,1.490680534E1
1.137786858E1,-5.158655139E0,-2.184738746E0,1.433917957E1,1.539470289E1
1.138785458E1,-6.298249403E0,-2.028823033E0,1.452455619E1,1.596078948E1
1.139783958E1,-7.869343624E0,-2.113486038E0,1.450547204E1,1.663737093E1
1.140782558E1,-9.106150771E0,-2.461133414E0,1.390316088E1,1.680110241E1
1.141781058E1,-9.927957051E0,-2.880734579E0,1.273535380E1,1.640281072E1
1.142779658E1,-1.078568278E1,-3.147163253E0,1.188488214E1,1.635499963E1
1.143778158E1,-1.186091557E1,-3.610939840E0,1.154646634E1,1.694228703E1
1.144776758E1,-1.334888928E1,-4.603072295E0,1.067422549E1,1.770085335E1
1.145775358E1,-1.481760460E1,-5.803252777E0,8.855020460E0,1.821127498E1
1.146773858E1,-1.602275434E1,-6.844450096E0,6.961644670E0,1.876271969E1
1.147772458E1,-1.669359019E1,-7.699177369E0,6.046142022E0,1.935223808E1
1.148770958E1,-1.686318868E1,-8.346524953E0,5.339822345E0,1.955876565E1
1.149769558E1,-1.648320152E1,-8.931072856E0,3.963498877E0,1.916166272E1
1.150768058E1,-1.580029351E1,-9.216798803E0,2.809373113E0,1.850651865E1
1.151766658E1,-1.504278205E1,-9.390800831E0,1.638060043E0,1.780886500E1
1.152765158E1,-1.410366074E1,-9.637956204E0,2.095893520E-1,1.708354102E1
1.153763758E1,-1.313814042E1,-9.783098130E0,-1.060503656E0,1.641476198E1
1.154762258E1,-1.226882669E1,-9.893251487E0,-2.063500530E0,1.589523726E1
1.155760858E1,-1.135118571E1,-1.006173784E1,-2.879036255E0,1.543945709E1
1.156759358E1,-1.028231703E1,-1.028006468E1,-3.599782183E0,1.497879185E1
1.157757975E1,-9.458082987E0,-1.047762807E1,-4.504354631E0,1.481638398E1
1.158756475E1,-8.861443042E0,-1.068590355E1,-5.545083588E0,1.494863403E1
1.159755075E1,-8.250827082E0,-1.078580440E1,-6.101148534E0,1.488736839E1
1.160753675E1,-7.613948354E0,-1.078879817E1,-6.426953051E0,1.468591506E1
1.161752175E1,-6.829303468E0,-1.090268556E1,-6.697490855E0,1.450394160E1
1.162750775E1,-6.049746246E0,-1.100065332E1,-6.959161357E0,1.435422342E1
1.163749275E1,-5.222752317E0,-1.102945554E1,-7.307357202E0,1.422404656E1
1.164747875E1,-4.383540338E0,-1.112592056E1,-7.813600363E0,1.428474308E1
1.165746375E1,-3.853479714E0,-1.109651374E1,-8.299741380E0,1.438289366E1
1.166744975E1,-3.268645298E0,-1.114333123E1,-8.451954929E0,1.436291806E1
1.167743475E1,-2.934759051E0,-1.133383235E1,-8.483391314E0,1.445809443E1
1.168742075E1,-2.659694917E0,-1.148200196E1,-8.859602339E0,1.474458883E1
1.169740575E1,-2.521761731E0,-1.158318218E1,-9.051696821E0,1.491518042E1
1.170739175E1,-2.320942764E0,-1.171007612E1,-8.916075917E0,1.489996871E1
1.171737675E1,-1.901095870E0,-1.177946853E1,-8.944556535E0,1.491224785E1
1.172736275E1,-1.283387676E0,-1.183949137E1,-9.364295987E0,1.514960987E1
1.173734775E1,-9.151179010E-1,-1.169092298E1,-9.536164951E0,1.511468037E1
1.174733375E1,-8.142201018E-1,-1.149148497E1,-9.422599744E0,1.488296231E1
1.175731875E1,-8.212287207E-1,-1.148215750E1,-9.451624153E0,1.489454788E1
1.176730475E1,-6.991072098E-1,-1.160880117E1,-9.618751609E0,1.509216346E1
1.177729075E1,-3.036562146E-1,-1.180407829E1,-9.814413478E0,1.535419107E1
1.178727575E1,-5.623259984E-2,-1.231583596E1,-1.005416335E1,1.589871625E1
1.179726175E1,1.428689669E-1,-1.275679554E1,-1.071810066E1,1.666235055E1
1.180724675E1,4.987348969E-1,-1.287279261E1,-1.084940339E1,1.684241907E1
1.181723275E1,1.081078400E0,-1.284618778E1,-1.062312901E1,1.670461436E1
1.182721775E1,1.983917440E0,-1.273400778E1,-1.025120049E1,1.646748292E1
1.183720375E1,3.090594657E0,-1.265488559E1,-9.376965734E0,1.605071310E1
1.184718875E1,4.444790799E0,-1.228648645E1,-7.582910748E0,1.510676835E1
1.185717475E1,6.353214399E0,-1.134026078E1,-5.219498926E0,1.400742720E1
1.186715975E1,8.745657063E0,-1.004163277E1,-3.838760226E0,1.385846262E1
1.187714575E1,1.103269606E1,-8.619827321E0,-3.327807718E0,1.439083422E1
1.188713075E1,1.284408863E1,-7.240452776E0,-2.394572219E0,1.493749461E1
1.189711675E1,1.416282521E1,-6.204531984E0,-1.319152316E0,1.551844057E1
1.190710175E1,1.479263582E1,-5.619176581E0,-6.544928813E-1,1.583747394E1
1.191708775E1,1.508905106E1,-5.435369357E0,-5.017004585E-1,1.604600902E1
1.192707275E1,1.510457074E1,-5.295282934E0,-7.615589082E-2,1.600605755E1
1.193705875E1,1.517211076E1,-4.663066482E0,1.178072451E0,1.591618637E1
1.194704475E1,1.554978476E1,-3.934857168E0,3.069549651E0,1.633098411E1
1.195702975E1,1.592543562E1,-2.999577483E0,5.492583193E0,1.711097411E1
1.196701575E1,1.603356467E1,-2.089551338E0,8.257132720E0,1.815548572E1
1.197700075E1,1.504334455E1,-1.397143210E0,1.124083121E1,1.883110487E1
1.198698675E1,1.270499155E1,-1.011714781E0,1.446646527E1,1.928001542E1
1.199697175E1,9.858119076E0,-1.151643402E0,1.756786587E1,2.017767840E1
1.200695775E1,6.629204147E0,-1.510944206E0,2.056266940E1,2.165762389E1
1.201694275E1,3.247488610E0,-1.899717388E0,2.311000188E1,2.341425410E1
1.202692875E1,6.132445756E-1,-2.500349812E0,2.338628983E1,2.352756618E1
1.203691375E1,-1.850147325E0,-2.346195134E0,2.239119898E1,2.258967615E1
1.204689975E1,-4.035706143E0,-1.545813345E0,2.161967759E1,2.204737903E1
1.205688475E1,-5.759268267E0,-5.557303391E-1,2.077773467E1,2.156831623E1
1.206687075E1,-7.155575763E0,1.522671966E-1,1.900681185E1,2.030971065E1
1.207685575E1,-7.941318170E0,6.001437427E-1,1.552228647E1,1.744609080E1
1.208684175E1,-8.500688547E0,9.534482999E-1,1.087391024E1,1.383519763E1
1.209682775E1,-9.221667194E0,1.391607212E0,6.989503729E0,1.165456472E1
1.210681275E1,-9.715678564E0,1.518541493E0,4.947011660E0,1.100787457E1
1.211679875E1,-9.305359561E0,1.022767188E0,3.732701089E0,1.007813607E1
1.212678375E1,-8.322963597E0,3.742237752E-1,2.848761712E0,8.804953706E0
1.213676975E1,-6.935255016E0,2.964714483E-1,1.930424919E0,7.205011993E0
1.214675475E1,-5.068317996E0,4.280894221E-1,2.902557850E-1,5.094639956E0
1.215674075E1,-3.317207301E0,6.755106980E-1,-1.304576377E0,3.627960653E0
1.216672575E1,-1.569437120E0,1.035548763E0,-2.020970222E0,2.760401194E0
1.217671175E1,-1.737004031E-1,1.254585461E0,-2.824874666E0,3.095815464E0
1.218669675E1,5.018201803E-1,1.463430024E0,-4.047933256E0,4.333499114E0
1.219668275E1,9.611202123E-1,1.565668882E0,-4.762761801E0,5.104798829E0
1.220666775E1,1.014059587E0,1.290170300E0,-4.933667729E0,5.199416651E0
1.221665375E1,6.566104504E-1,5.562038905E-1,-5.017868804E0,5.091120445E0
1.222663875E1,3.703333303E-1,-4.355751738E-1,-4.975733183E0,5.008472144E0
1.223662475E1,4.187065779E-1,-1.090116222E0,-4.820493116E0,4.959921618E0
1.224660975E1,1.152566020E0,-1.378197500E0,-4.381197066E0,4.735263933E0
1.225659575E1,2.349883704E0,-1.382969120E0,-3.387665665E0,4.348659065E0
1.226658175E1,3.833177012E0,-1.020834829E0,-2.001645759E0,4.443189789E0
1.227656675E1,5.757752668E0,-4.599508271E-1,-1.137876352E0,5.887107367E0
1.228655275E1,8.175236617E0,1.664098571E-1,-5.610163683E-1,8.196153083E0
1.229653775E1,1.032338904E1,8.165424697E-1,1.260922819E-1,1.035639909E1
1.230652375E1,1.168414021E1,1.283760290E0,5.494692868E-1,1.176728895E1
1.231650875E1,1.249739669E1,1.387330997E0,1.316880088E0,1.264293417E1
1.232649475E1,1.250506472E1,1.135020133E0,1.934761214E0,1.270465330E1
1.233647975E1,1.212002674E1,5.448039396E-1,2.458393409E0,1.237883507E1
1.234646575E1,1.138191283E1,2.452746168E-2,2.920037516E0,1.175053873E1
1.235645075E1,1.022677082E1,-4.292879552E-1,3.947636551E0,1.097064100E1
1.236643675E1,9.345456843E0,-7.483243203E-1,5.888445539E0,1.107119432E1
1.237642175E1,8.660014649E0,-7.614100966E-1,8.127917440E0,1.190120334E1
1.238640775E1,7.888804327E0,-5.284943010E-1,1.056271675E1,1.319407159E1
1.239639275E1,7.051762542E0,-4.137957573E-1,1.259286885E1,1.443879939E1
1.240637875E1,5.895413666E0,-6.705249234E-1,1.417654862E1,1.536815008E1
1.241636475E1,3.725925628E0,-1.133737693E0,1.518808185E1,1.567946788E1
1.242634975E1,8.056831670E-1,-2.382515261E0,1.541110518E1,1.561498214E1
1.243633575E1,-2.089053447E0,-3.686191751E0,1.582823034E1,1.638551280E1
1.244632075E1,-4.142604355E0,-4.275824393E0,1.690512725E1,1.792281151E1
1.245630675E1,-5.454112022E0,-3.891331372E0,1.790266809E1,1.911531643E1
1.246629175E1,-6.301151960E0,-3.603540773E0,1.814621631E1,1.954418554E1
1.247627775E1,-7.024629707E0,-4.121512571E0,1.773700243E1,1.951751889E1
1.248626275E1,-8.387439090E0,-4.912420117E0,1.692958615E1,1.952157507E1
1.249624875E1,-1.004564396E1,-5.562974898E0,1.569345903E1,1.944598439E1
1.250623375E1,-1.166801125E1,-6.561768209E0,1.424910906E1,1.955086692E1
1.251621975E1,-1.382036782E1,-7.781142468E0,1.284780278E1,2.041114355E1
1.252620475E1,-1.561268677E1,-9.289522963E0,1.158826692E1,2.154853023E1
1.253619075E1,-1.671690421E1,-1.067513298E1,9.916572522E0,2.217547657E1
1.254617575E1,-1.772834855E1,-1.162693339E1,7.776951184E0,2.258231370E1
1.255616175E1,-1.836549508E1,-1.253281444E1,5.569472324E0,2.292121004E1
1.256614675E1,-1.882487340E1,-1.323437507E1,3.413175897E0,2.326315352E1
1.257613275E1,-1.899872515E1,-1.381161220E1,1.272024343E0,2.352297249E1
1.258611925E1,-1.864113634E1,-1.428499810E1,-2.777520990E-1,2.348681079E1
1.259610425E1,-1.791971974E1,-1.447036185E1,-1.613786497E0,2.308921901E1
1.260609025E1,-1.687359438E1,-1.457586433E1,-3.109946310E0,2.251323554E1
1.261607525E1,-1.535059936E1,-1.464791256E1,-4.304705545E0,2.165023632E1
1.262606125E1,-1.370539285E1,-1.451120582E1,-5.360451322E0,2.066754281E1
1.263604625E1,-1.199132836E1,-1.427360305E1,-6.016404253E0,1.958889532E1
1.264603225E1,-1.019495261E1,-1.401760259E1,-6.339479290E0,1.845587274E1
1.265601725E1,-8.715954961E0,-1.371122954E1,-6.845089781E0,1.763011459E1
1.266600325E1,-7.352898241E0,-1.339746444E1,-7.259973121E0,1.691934915E1
1.267598825E1,-5.947959670E0,-1.327800115E1,-7.946659602E0,1.657808606E1
1.268597425E1,-4.718232331E0,-1.295285502E1,-8.497002463E0,1.619374016E1
1.269595925E1,-3.652650076E0,-1.256794919E1,-8.511769021E0,1.561234804E1
1.270594525E1,-2.671909166E0,-1.232666384E1,-8.457053701E0,1.518576627E1
1.271593025E1,-1.710045699E0,-1.227536621E1,-8.780438640E0,1.518897543E1
1.272591625E1,-1.038341977E0,-1.212489397E1,-9.244488877E0,1.528240107E1
1.273590225E1,-6.657727450E-1,-1.191089406E1,-9.426215077E0,1.520415013E1
1.274588725E1,-2.261643811E-1,-1.182106679E1,-9.707843880E0,1.529807188E1
1.275587325E1,1.786807143E-1,-1.167057467E1,-9.953191295E0,1.533949989E1
1.276585825E1,8.790574642E-1,-1.117173466E1,-9.568400066E0,1.473549040E1
1.277584425E1,1.458565140E0,-1.114783592E1,-9.493567400E0,1.471494071E1
1.278582925E1,1.580330337E0,-1.122664704E1,-9.953162059E0,1.508643373E1
1.279581525E1,1.658616076E0,-1.105383609E1,-1.006165364E1,1.503912143E1
1.280580025E1,1.764759704E0,-1.097067582E1,-9.801213974E0,1.481667642E1
1.281578625E1,1.983622887E0,-1.095032867E1,-9.535954451E0,1.465533640E1
1.282577125E1,2.222036380E0,-1.089195475E1,-8.899309026E0,1.423972700E1
1.283575725E1,2.566271614E0,-1.084530566E1,-8.077658867E0,1.376426452E1
1.284574225E1,2.921296130E0,-1.063406915E1,-7.441175995E0,1.330370242E1
1.285572825E1,3.418022069E0,-1.048149892E1,-7.168119210E0,1.315015694E1
1.286571325E1,3.851256018E0,-1.028233925E1,-7.256054317E0,1.316088894E1
1.287569925E1,4.411847878E0,-9.986929729E0,-7.092146337E0,1.301928211E1
1.288568525E1,5.003968218E0,-9.538870457E0,-6.538147212E0,1.260067921E1
1.289567025E1,5.485625006E0,-9.116464090E0,-5.816164014E0,1.212558300E1
1.290565625E1,5.718823661E0,-8.828857094E0,-5.090366092E0,1.168612376E1
1.291564125E1,6.270113186E0,-8.615754150E0,-4.247243788E0,1.147103390E1
1.292562725E1,7.402404862E0,-8.291144804E0,-3.148449056E0,1.155211718E1
1.293561225E1,8.500789120E0,-7.235445220E0,-1.678704624E0,1.128862846E1
1.294559825E1,9.888295387E0,-5.831634577E0,4.895990610E-2,1.147992790E1
1.295558325E1,1.127126246E1,-4.503826335E0,1.080191231E0,1.218575489E1
1.296556925E1,1.234869614E1,-3.612142028E0,1.799539674E0,1.299138982E1
1.297555425E1,1.243864269E1,-3.130982253E0,2.606553082E0,1.308881205E1
1.298554025E1,1.189808398E1,-3.049988961E0,3.226936816E0,1.269960457E1
1.299552525E1,1.117332394E1,-3.137076221E0,3.579642618E0,1.214488601E1
1.300551125E1,1.033494431E1,-3.287831766E0,3.910396219E0,1.152875146E1
1.301549625E1,9.116048353E0,-3.410045882E0,4.615002662E0,1.077167582E1
1.302548225E1,7.947760048E0,-3.576640073E0,5.429487058E0,1.026832867E1
1.303546725E1,7.255701145E0,-3.544069620E0,6.289820057E0,1.023559793E1
1.304545325E1,6.533482304E0,-3.001753232E0,7.036507741E0,1.006028601E1
1.305543925E1,5.882103649E0,-2.242041459E0,7.657148167E0,9.912507821E0
1.306542425E1,5.134306163E0,-1.262136117E0,8.337521995E0,9.872606564E0
1.307541025E1,4.328829988E0,-5.069119722E-1,8.870091659E0,9.883028627E0
1.308539525E1,3.173943208E0,-7.793983977E-2,8.939350759E0,9.486410390E0
1.309538125E1,1.721018292E0,2.747643911E-1,9.089754594E0,9.255324846E0
1.310536625E1,2.779722467E-2,3.917434220E-1,9.473316153E0,9.481453187E0
1.311535225E1,-1.595882907E0,2.153208659E-1,9.968631452E0,1.009786207E1
1.312533725E1,-3.000564493E0,9.744238704E-2,1.073308122E1,1.114503992E1
1.313532325E1,-4.010043883E0,2.377328049E-1,1.154421750E1,1.222317171E1
1.314530825E1,-4.892082916E0,9.712969988E-1,1.221157777E1,1.319085004E1
1.315529425E1,-5.663711314E0,1.633225565E0,1.254606423E1,1.386177403E1
1.316527925E1,-6.690578277E0,1.813003180E0,1.265047796E1,1.442516589E1
1.317526525E1,-7.840382949E0,1.666800277E0,1.257857709E1,1.491544265E1
1.318525125E1,-8.767189434E0,1.489817485E0,1.249138575E1,1.533355421E1
1.319523625E1,-9.465061639E0,1.260281965E0,1.177800205E1,1.516235584E1
1.320522225E1,-9.956979121E0,8.669200332E-1,9.925195996E0,1.408554220E1
1.321520725E1,-1.013493094E1,4.809008892E-1,7.846469316E0,1.282634678E1
1.322519325E1,-9.982759495E0,2.345901458E-1,5.946154634E0,1.162184472E1
1.323517825E1,-9.314172485E0,6.992027387E-3,4.143482607E0,1.019422906E1
1.324516425E1,-8.433276583E0,-2.140504121E-1,2.690455365E0,8.854632775E0
1.325514925E1,-7.397455194E0,-5.802297342E-1,1.303331505E0,7.533769502E0
1.326513525E1,-6.320938938E0,-8.334134410E-1,1.846960008E-2,6.375671584E0
1.327512025E1,-5.101712614E0,-7.786508312E-1,-7.063828272E-1,5.208910194E0
1.328510625E1,-3.533782906E0,-7.330540974E-1,-1.720684124E0,3.998217577E0
1.329509125E1,-1.990500966E0,-5.343675368E-1,-2.923740558E0,3.577135951E0
1.330507725E1,-4.739336394E-1,-3.648643564E-1,-3.912129918E0,3.957587597E0
1.331506225E1,7.056839387E-1,-2.601508105E-1,-4.709983664E0,4.769655583E0
1.332504825E1,1.741400370E0,-2.209453757E-1,-5.135553374E0,5.427264557E0
1.333503325E1,2.768289406E0,-1.960539979E-1,-4.915834306E0,5.645112074E0
1.334501925E1,3.782317930E0,-2.332908945E-1,-4.468501258E0,5.858997957E0
1.335500525E1,4.943514440E0,-3.682564723E-1,-4.189316592E0,6.490325212E0
1.336499025E1,6.120416864E0,-3.407538743E-1,-3.982392401E0,7.309929207E0
1.337497625E1,7.336794425E0,-3.246584630E-1,-3.554913574E0,8.159127776E0
1.338496125E1,8.203258229E0,-1.877195960E-1,-2.690271762E0,8.635174947E0
1.339494725E1,9.246638898E0,7.911107361E-2,-1.475541362E0,9.363963466E0
1.340493225E1,1.077945783E1,2.494334489E-1,-3.579267812E-1,1.078828252E1
1.341491825E1,1.223391647E1,6.612402758E-1,1.066975939E0,1.229814574E1
1.342490325E1,1.330733078E1,1.156981544E0,2.958392327E0,1.368121866E1
1.343488925E1,1.390197975E1,1.464477260E0,4.920523188E0,1.481962493E1
1.344487425E1,1.399992996E1,1.487882495E0,6.645368190E0,1.556832527E1
1.345486025E1,1.325729382E1,1.078373770E0,7.630705304E0,1.533448378E1
1.346484525E1,1.168599260E1,3.255741370E-1,8.052460876E0,1.419544109E1
1.347483125E1,9.673474531E0,-4.170761915E-1,9.205145887E0,1.335981934E1
1.348481625E1,7.219154878E0,-1.233367085E0,1.108371887E1,1.328481146E1
1.349480225E1,4.770871890E0,-2.066324589E0,1.314523310E1,1.413605564E1
1.350478825E1,2.779160550E0,-2.499072488E0,1.486523719E1,1.532789527E1
1.351477325E1,1.196587806E0,-2.583933129E0,1.590499960E1,1.615789420E1
1.352475925E1,-5.210192205E-1,-2.607669608E0,1.659860802E1,1.681027037E1
1.353474425E1,-2.288145001E0,-2.932979159E0,1.706741087E1,1.746809916E1
1.354473025E1,-4.310966159E0,-3.192067530E0,1.734305096E1,1.815365365E1
1.355471525E1,-6.366775846E0,-3.591814767E0,1.691033361E1,1.842271290E1
1.356470125E1,-8.285636727E0,-4.195338639E0,1.580063148E1,1.832791852E1
1.357468625E1,-1.017629532E1,-4.504630912E0,1.506729591E1,1.873158008E1
1.358467208E1,-1.158735826E1,-4.694402003E0,1.459693653E1,1.921912687E1
1.359465708E1,-1.287266982E1,-4.967917210E0,1.389508120E1,1.958211202E1
1.360464308E1,-1.384613416E1,-5.601284101E0,1.272291912E1,1.962046089E1
1.361462808E1,-1.474823557E1,-6.536231080E0,1.089481053E1,1.946611584E1
1.362461408E1,-1.555290951E1,-7.617377161E0,8.790235650E0,1.942126854E1
1.363459908E1,-1.633984066E1,-8.497657936E0,6.812685097E0,1.963703800E1
1.364458508E1,-1.692568723E1,-9.264709134E0,5.342567028E0,2.002140719E1
1.365457108E1,-1.716017227E1,-1.017300333E1,4.025824349E0,2.035113684E1
1.366455608E1,-1.717743559E1,-1.099853546E1,2.676647750E0,2.057174078E1
1.367454208E1,-1.687316052E1,-1.174899401E1,1.201537912E0,2.059577868E1
1.368452708E1,-1.643402410E1,-1.224144885E1,-5.125406116E-1,2.049860766E1
1.369451308E1,-1.580374805E1,-1.273666943E1,-2.399207892E0,2.043862517E1
1.370449808E1,-1.486634465E1,-1.307313693E1,-4.100272268E0,2.021700633E1
1.371448408E1,-1.367700462E1,-1.319403279E1,-5.307365620E0,1.973096770E1
1.372446908E1,-1.231873969E1,-1.323154502E1,-6.129754282E0,1.908923829E1
1.373445508E1,-1.084609621E1,-1.311390021E1,-6.972476637E0,1.839096550E1
1.374444008E1,-9.456121246E0,-1.280799844E1,-7.855682189E0,1.775316298E1
1.375442608E1,-8.282673942E0,-1.248705881E1,-8.429969983E0,1.719283918E1
1.376441108E1,-7.244459288E0,-1.236158926E1,-8.627352687E0,1.672490041E1
1.377439708E1,-6.324839616E0,-1.238920098E1,-8.829586827E0,1.647596736E1
1.378438208E1,-5.378320413E0,-1.230116530E1,-8.910017032E0,1.611314375E1
1.379436808E1,-4.325276342E0,-1.215219812E1,-9.057653965E0,1.576150469E1
1.380435408E1,-3.351065018E0,-1.200221003E1,-9.337120467E0,1.557127165E1
1.381433908E1,-2.520620062E0,-1.197246875E1,-9.518951917E0,1.550174116E1
1.382432508E1,-1.845945955E0,-1.180358947E1,-9.362718408E0,1.517869351E1
1.383431008E1,-1.051394132E0,-1.161955420E1,-9.355373721E0,1.495468110E1
1.384429608E1,-4.148443823E-1,-1.150848868E1,-9.663160043E0,1.503309913E1
1.385428108E1,4.293276066E-2,-1.142816080E1,-9.879256761E0,1.510643626E1
1.386426708E1,4.783075394E-1,-1.123256208E1,-9.938734639E0,1.500592134E1
1.387425208E1,6.106360596E-1,-1.125176200E1,-1.025235473E1,1.523436254E1
1.388423808E1,7.907091055E-1,-1.121389075E1,-1.075015626E1,1.555449859E1
1.389422308E1,7.495862225E-1,-1.118426759E1,-1.079609901E1,1.556295199E1
1.390420908E1,7.442257876E-1,-1.120233197E1,-1.048295488E1,1.536028830E1
1.391419408E1,8.465726729E-1,-1.118832205E1,-9.935801675E0,1.498717420E1
1.392418008E1,1.194815003E0,-1.096464967E1,-9.164539897E0,1.434015052E1
1.393416608E1,1.844658252E0,-1.062482120E1,-8.557033487E0,1.376635070E1
1.394415108E1,2.655558012E0,-1.038628871E1,-8.488770168E0,1.367428976E1
1.395413708E1,3.014663592E0,-1.006679685E1,-8.429406311E0,1.347158068E1
1.396412208E1,3.056067726E0,-9.814708178E0,-7.712051184E0,1.285082799E1
1.397410808E1,3.496906271E0,-9.808137077E0,-7.081741802E0,1.259281435E1
1.398409308E1,4.339464319E0,-9.774306257E0,-6.674110179E0,1.260602079E1
1.399407908E1,5.410029278E0,-9.504019883E0,-5.549668390E0,1.226350806E1
1.400406408E1,6.363390309E0,-8.865674087E0,-4.139525796E0,1.167170026E1
1.401405008E1,7.050856808E0,-8.209141113E0,-2.879499355E0,1.119803983E1
1.402403508E1,7.517796739E0,-7.627164230E0,-2.008701594E0,1.089613620E1
1.403402108E1,7.834141631E0,-7.342476164E0,-1.665724974E0,1.086555894E1
1.404400608E1,8.684885196E0,-7.206585703E0,-1.198688564E0,1.134896306E1
1.405399208E1,1.021308249E1,-6.557488632E0,1.374738872E-2,1.213704660E1
1.406397708E1,1.188248361E1,-5.410835609E0,1.977393848E0,1.320532639E1
1.407396308E1,1.307951741E1,-4.081740687E0,4.330773602E0,1.436975931E1
1.408394908E1,1.371299072E1,-3.149564997E0,6.245075408E0,1.539372733E1
1.409393408E1,1.378912848E1,-2.692991302E0,7.190791789E0,1.578289432E1
1.410392008E1,1.343625487E1,-2.515710740E0,7.670223126E0,1.567463136E1
1.411390508E1,1.249296800E1,-2.406462825E0,7.693913705E0,1.486814114E1
1.412389108E1,1.132677827E1,-2.454184875E0,7.555636411E0,1.383497636E1
1.413387608E1,1.008967116E1,-2.825576625E0,7.586768156E0,1.293616629E1
1.414386208E1,8.687031709E0,-3.111389695E0,7.585401662E0,1.194502340E1
1.415384708E1,7.983901688E0,-3.029411732E0,7.462321281E0,1.134047003E1
1.416383308E1,7.970439059E0,-2.320338162E0,7.461732466E0,1.116195858E1
1.417381808E1,7.892187526E0,-1.141547600E0,7.690095474E0,1.107823647E1
1.418380408E1,7.258438811E0,-1.104487143E-1,7.712545273E0,1.059152904E1
1.419378908E1,6.202199530E0,3.746682367E-1,8.094228707E0,1.020412631E1
1.420377508E1,4.688822590E0,4.406994543E-1,8.849389592E0,1.002451841E1
1.421376008E1,2.944696394E0,-7.113883361E-2,9.619027013E0,1.005991940E1
1.422374608E1,8.123768402E-1,-6.871984050E-1,1.030559597E1,1.036038156E1
1.423373208E1,-1.784451519E0,-6.177058549E-1,1.116301296E1,1.132160263E1
1.424371708E1,-4.389545721E0,-4.146748862E-1,1.255620681E1,1.330783214E1
1.425370308E1,-6.241411543E0,-3.950130388E-1,1.375081636E1,1.510616443E1
1.426368808E1,-7.819400216E0,-3.102944854E-1,1.446770137E1,1.644851620E1
1.427367408E1,-9.308578454E0,-6.599796161E-2,1.499641830E1,1.765068130E1
1.428365908E1,-1.088097251E1,2.671125054E-2,1.539301038E1,1.885049190E1
1.429364508E1,-1.249294111E1,-1.381556726E-1,1.536225637E1,1.980130261E1
1.430363008E1,-1.355554742E1,-4.405015992E-1,1.454925483E1,1.989039274E1
1.431361608E1,-1.397974304E1,-4.827443701E-1,1.290934706E1,1.903463945E1
1.432360108E1,-1.375227816E1,-4.128284086E-1,1.034720709E1,1.721511767E1
1.433358708E1,-1.317176542E1,-2.924582119E-1,7.590325018E0,1.520506396E1
1.434357208E1,-1.242471696E1,-1.300493851E-2,5.583462372E0,1.362163033E1
1.435355808E1,-1.120051232E1,1.128826909E-1,3.841155830E0,1.184139759E1
1.436354408E1,-9.528326758E0,-1.806036808E-2,2.025578413E0,9.741268136E0
1.437352908E1,-8.335028742E0,-1.300091855E-1,3.393507618E-1,8.342947049E0
1.438351508E1,-7.578732328E0,-3.632324350E-1,-1.131077794E0,7.671274892E0
1.439350008E1,-6.876880508E0,-7.947751862E-1,-2.676769372E0,7.422145740E0
1.440348608E1,-5.951065126E0,-1.216513801E0,-4.117394670E0,7.338121069E0
1.441347108E1,-4.934526685E0,-1.495650813E0,-5.117023548E0,7.264327563E0
1.442345708E1,-3.837124760E0,-1.662754589E0,-5.704659365E0,7.073289031E0
1.443344208E1,-2.446581594E0,-1.779183324E0,-6.031858444E0,6.747930874E0
1.444342808E1,-1.000376006E0,-1.621637553E0,-6.252675619E0,6.536544416E0
1.445341308E1,3.727369744E-1,-1.343304533E0,-6.282032735E0,6.434853161E0
1.446339908E1,1.695660672E0,-1.151250250E0,-6.201860976E0,6.531747226E0
1.447338408E1,2.807530948E0,-9.344082309E-1,-5.943551454E0,6.639363874E0
1.448337008E1,3.578683675E0,-7.607560855E-1,-5.609070838E0,6.696820315E0
1.449335508E1,4.353541198E0,-8.286150697E-1,-5.622749814E0,7.159276456E0
1.450334108E1,5.132694671E0,-8.420534331E-1,-5.783461706E0,7.778305591E0
1.451332708E1,5.966782442E0,-8.378044807E-1,-5.872603678E0,8.413791239E0
1.452331208E1,6.840625432E0,-5.884108660E-1,-5.237110155E0,8.635259488E0
1.453329808E1,7.849798720E0,-3.651525145E-1,-4.286102044E0,8.951164563E0
1.454328308E1,8.881873214E0,-1.106233998E-1,-3.251437234E0,9.458950968E0
1.455326908E1,9.942756354E0,2.842517909E-1,-1.989856018E0,1.014390112E1
1.456325408E1,1.115674240E1,7.359751470E-1,-6.668036091E-1,1.120085655E1
1.457324008E1,1.179719495E1,1.074917627E0,6.791207689E-1,1.186551565E1
1.458322533E1,1.175467868E1,1.194977483E0,2.248979473E0,1.202739999E1
1.459321133E1,1.156280346E1,1.128251908E0,3.904995731E0,1.225644190E1
1.460319633E1,1.087407280E1,1.011546308E0,5.599659745E0,1.227293259E1
1.461318233E1,9.783822016E0,7.893143253E-1,7.180678445E0,1.216175700E1
1.462316733E1,8.513917873E0,4.437625182E-1,8.601175287E0,1.211048880E1
1.463315333E1,7.002709665E0,3.702483995E-1,1.012661503E1,1.231760360E1
1.464313933E1,5.864630415E0,5.354851589E-1,1.179418247E1,1.318269222E1
1.465312433E1,5.166763473E0,5.755538620E-1,1.298571872E1,1.398769451E1
1.466311033E1,4.053227325E0,4.759948560E-1,1.414721431E1,1.472409235E1
1.467309533E1,2.971042486E0,3.675320023E-1,1.571113283E1,1.599380718E1
1.468308133E1,1.591319447E0,3.023570363E-1,1.700184838E1,1.707883385E1
1.469306633E1,-1.000949033E-1,-2.099398926E-2,1.757358094E1,1.757387854E1
1.470305233E1,-2.192239700E0,-5.549495531E-1,1.759751359E1,1.774221995E1
1.471303733E1,-4.392704971E0,-1.419068953E0,1.743699232E1,1.803769151E1
1.472302333E1,-6.645719023E0,-2.341983239E0,1.700200742E1,1.840431263E1
1.473300833E1,-8.749485819E0,-3.095570930E0,1.626450279E1,1.872618788E1
1.474299433E1,-1.047134582E1,-3.584720340E0,1.523215348E1,1.882864315E1
1.475297933E1,-1.190916211E1,-4.123425196E0,1.423617853E1,1.901314168E1
1.476296533E1,-1.338339019E1,-4.927828115E0,1.327262054E1,1.948232735E1
1.477295033E1,-1.456056100E1,-5.954806175E0,1.182205029E1,1.967817386E1
1.478293633E1,-1.535161327E1,-6.836739957E0,1.022591011E1,1.967186521E1
1.479292233E1,-1.598509710E1,-7.636355469E0,8.605893990E0,1.969514320E1
1.480290733E1,-1.644027009E1,-8.404175575E0,7.050726416E0,1.976424526E1
1.481289333E1,-1.656741312E1,-9.081608253E0,5.587447250E0,1.970214082E1
1.482287833E1,-1.638566295E1,-9.675737404E0,3.986300095E0,1.944223323E1
1.483286433E1,-1.607841282E1,-1.021045709E1,2.351796913E0,1.919113705E1
1.484284933E1,-1.559011067E1,-1.079509679E1,9.819626856E-1,1.898815199E1
1.485283533E1,-1.492566582E1,-1.122737677E1,-9.407175958E-2,1.867721443E1
1.486282033E1,-1.399250517E1,-1.148966883E1,-1.056317049E0,1.813611029E1
1.487280633E1,-1.289441327E1,-1.173235401E1,-2.047207848E0,1.755292238E1
1.488279133E1,-1.196208292E1,-1.200041493E1,-3.049327641E0,1.721626514E1
1.489277733E1,-1.108477955E1,-1.226178898E1,-3.857373083E0,1.697360108E1
1.490276233E1,-1.010071888E1,-1.243832811E1,-4.712294483E0,1.670156422E1
1.491274833E1,-9.046734874E0,-1.244404669E1,-5.345039231E0,1.628702411E1
1.492273433E1,-7.768834664E0,-1.256024022E1,-5.837605754E0,1.588055627E1
1.493271933E1,-6.906365678E0,-1.262069575E1,-6.525049449E0,1.579734530E1
1.494270533E1,-5.982497419E0,-1.266992229E1,-6.955455977E0,1.564274829E1
1.495269033E1,-5.028928227E0,-1.260095088E1,-7.226212467E0,1.537179979E1
1.496267633E1,-4.131785837E0,-1.242667344E1,-7.772521334E0,1.522845872E1
1.497266133E1,-3.026272362E0,-1.237357839E1,-8.363866040E0,1.523870144E1
1.498264733E1,-2.266011243E0,-1.217254760E1,-8.967666485E0,1.528805953E1
1.499263233E1,-1.429879139E0,-1.183935454E1,-9.465755703E0,1.522548526E1
1.500261833E1,-5.837780805E-1,-1.174282286E1,-1.004268878E1,1.546254453E1
1.501260333E1,-7.805265449E-2,-1.157944230E1,-1.046975888E1,1.561106746E1
1.502258933E1,7.164423770E-1,-1.137251402E1,-1.050052576E1,1.549543178E1
1.503257433E1,1.407124992E0,-1.106619008E1,-1.024048137E1,1.514291988E1
1.504256033E1,2.049408156E0,-1.091009164E1,-1.008201013E1,1.499590283E1
1.505254533E1,2.159821129E0,-1.078195342E1,-1.031828676E1,1.507920385E1
1.506253133E1,2.234956681E0,-1.049715075E1,-1.020897657E1,1.481244098E1
1.507251633E1,2.390076441E0,-1.036848862E1,-9.600166819E0,1.433112782E1
1.508250233E1,2.769663794E0,-1.026725928E1,-9.106215675E0,1.400038623E1
1.509248833E1,3.298127836E0,-1.002198963E1,-8.775542766E0,1.372326762E1
1.510247333E1,3.699682155E0,-9.645089808E0,-8.475432669E0,1.336219908E1
1.511245933E1,3.923925214E0,-9.357255355E0,-8.453521982E0,1.320671991E1
1.512244433E1,4.083550401E0,-9.291777064E0,-8.715631025E0,1.337814371E1
1.513243033E1,3.823634648E0,-9.323142114E0,-8.951614709E0,1.347859661E1
1.514241533E1,3.532183108E0,-9.459169400E0,-8.544401162E0,1.322720660E1
1.515240133E1,3.907225859E0,-9.481571252E0,-7.787868521E0,1.287701454E1
1.516238633E1,4.604961823E0,-9.049863135E0,-7.237243239E0,1.246929773E1
1.517237233E1,5.296656445E0,-8.466576476E0,-6.525391511E0,1.192972008E1
1.518235733E1,5.809587650E0,-7.935666837E0,-5.451969017E0,1.124500258E1
1.519234333E1,6.294031806E0,-7.527062237E0,-4.351043560E0,1.073326988E1
1.520232833E1,7.438251802E0,-7.347951497E0,-3.625804632E0,1.106645563E1
1.521231433E1,8.736645334E0,-6.805228143E0,-2.939703457E0,1.145783392E1
1.522230033E1,1.003633636E1,-5.833827868E0,-1.445226472E0,1.169830222E1
1.523228533E1,1.143570020E1,-4.729115168E0,1.963693821E-1,1.237652335E1
1.524227133E1,1.264544117E1,-3.878502581E0,1.595212816E0,1.332271251E1
1.525225633E1,1.330368562E1,-3.385485823E0,3.019367092E0,1.405582239E1
1.526224233E1,1.336182683E1,-3.144258356E0,4.128492100E0,1.433419770E1
1.527222733E1,1.319896199E1,-3.197586717E0,4.829631144E0,1.441396876E1
1.528221333E1,1.230259670E1,-3.022471964E0,5.588911393E0,1.384648521E1
1.529219833E1,1.075975739E1,-2.857970199E0,6.538693342E0,1.291103727E1
1.530218433E1,9.439054393E0,-2.521545092E0,7.566809855E0,1.235761097E1
1.531216933E1,8.429888121E0,-1.468502483E0,8.691187910E0,1.219656757E1
1.532215533E1,7.274359610E0,-2.250161342E-1,1.070656410E1,1.294594357E1
1.533214033E1,6.389182377E0,2.465904596E-1,1.362982460E1,1.505505154E1
1.534212633E1,5.393976917E0,-9.490915395E-2,1.687223081E1,1.771372822E1
1.535211233E1,4.214639421E0,-1.266090150E0,1.922308048E1,1.972036999E1
1.536209733E1,2.505481621E0,-2.318235357E0,1.972042242E1,2.001366318E1
1.537208333E1,6.421394688E-1,-2.778190497E0,1.882034180E1,1.903512414E1
1.538206833E1,-1.157551794E0,-2.519681584E0,1.680053459E1,1.702782088E1
1.539205433E1,-2.710704565E0,-1.732669892E0,1.420817738E1,1.456785395E1
1.540203933E1,-4.131543177E0,-1.066293422E0,1.146668342E1,1.223484611E1
1.541202533E1,-5.902005233E0,-8.610111295E-1,9.033341827E0,1.082479887E1
1.542201033E1,-8.351826038E0,-1.005214431E0,7.312726116E0,1.114627370E1
1.543199633E1,-1.120838618E1,-1.306877403E0,6.503743950E0,1.302438232E1
1.544198133E1,-1.350221146E1,-2.024292172E0,5.654702509E0,1.477779190E1
1.545196733E1,-1.449462078E1,-2.643357797E0,4.824004954E0,1.550330274E1
1.546195233E1,-1.383108460E1,-2.330243784E0,4.564118437E0,1.474991913E1
1.547193833E1,-1.249101854E1,-1.085841541E0,3.959232164E0,1.314838832E1
1.548192333E1,-1.095805402E1,1.859579030E-1,2.956661552E0,1.135144818E1
1.549190933E1,-9.506804327E0,1.039114102E0,2.541137357E0,9.895274918E0
1.550189533E1,-8.309715561E0,1.279374001E0,2.636284420E0,8.811252242E0
1.551188033E1,-7.667415878E0,1.336945394E0,2.394029598E0,8.142976541E0
1.552186633E1,-6.947351736E0,1.408421465E0,1.963466949E0,7.355579490E0
1.553185133E1,-5.931362348E0,1.293582150E0,1.067810921E0,6.163978768E0
1.554183733E1,-4.919855436E0,1.100514837E0,-1.332960516E-1,5.043201191E0
1.555182233E1,-3.855042967E0,8.839845474E-1,-1.050163440E0,4.092142252E0
1.556180833E1,-3.059872509E0,9.123393041E-1,-1.511210546E0,3.532554330E0
1.557179333E1,-1.982014464E0,8.722016039E-1,-1.988338666E0,2.939831223E0
1.558177933E1,-8.415765926E-1,7.215206838E-1,-2.916842598E0,3.120386835E0
1.559176408E1,2.938299686E-1,5.697054769E-1,-3.739861590E0,3.794399174E0
1.560175008E1,1.443131561E0,6.728247064E-1,-4.124684393E0,4.421350827E0
1.561173508E1,2.709890048E0,8.921839517E-1,-4.223291253E0,5.096634702E0
1.562172108E1,3.699170816E0,9.988949796E-1,-4.443826593E0,5.867644391E0
1.563170708E1,4.393096150E0,8.699099339E-1,-4.697940153E0,6.490506819E0
1.564169208E1,4.930711961E0,6.858588079E-1,-4.569795499E0,6.757614494E0
1.565167808E1,5.301531268E0,4.570302160E-1,-4.182794607E0,6.768373596E0
1.566166308E1,6.163751163E0,3.225144352E-1,-3.683986182E0,7.188017679E0
1.567164908E1,7.528503576E0,3.646835312E-1,-3.014289370E0,8.117715231E0
1.568163408E1,8.607260485E0,5.879692550E-1,-2.118585395E0,8.883639174E0
1.569162008E1,9.386243511E0,6.628601007E-1,-8.329270989E-1,9.446412986E0
1.570160508E1,1.009288128E1,5.673901257E-1,5.763471830E-1,1.012523383E1
1.571159108E1,1.032290723E1,5.323585796E-1,1.747968986E0,1.048337803E1
1.572157608E1,1.030881076E1,1.876905061E-1,2.651376083E0,1.064596648E1
1.573156208E1,1.025470765E1,-1.385715558E-1,3.548226113E0,1.085210300E1
1.574154708E1,1.018162330E1,-3.466897483E-1,4.552589482E0,1.115848188E1
1.575153308E1,9.835866913E0,-5.230006957E-1,5.600219323E0,1.133050149E1
1.576151808E1,9.179270203E0,-8.610438739E-1,6.598780500E0,1.133773796E1
1.577150408E1,8.258085231E0,-1.321577742E0,7.570808766E0,1.128094343E1
1.578149008E1,7.167559047E0,-1.662629751E0,8.586471879E0,1.130777342E1
1.579147508E1,5.629212742E0,-1.729639427E0,9.857865307E0,1.148290891E1
1.580146108E1,4.038539412E0,-2.161260567E0,1.120302896E1,1.210325187E1
1.581144608E1,2.377747733E0,-2.726370717E0,1.220091128E1,1.272591912E1
1.582143208E1,6.644797795E-1,-3.382230678E0,1.284946573E1,1.330375087E1
1.583141708E1,-8.263060042E-1,-3.683206748E0,1.354443303E1,1.406059955E1
1.584140308E1,-1.822308293E0,-3.899633249E0,1.435421276E1,1.498570555E1
1.585138808E1,-2.549635993E0,-4.109291013E0,1.523887544E1,1.598781539E1
1.586137408E1,-3.703025008E0,-4.246665498E0,1.598691325E1,1.695075093E1
1.587135908E1,-5.252942076E0,-4.406357635E0,1.607938228E1,1.748015797E1
1.588134508E1,-7.190387161E0,-4.890581059E0,1.543639672E1,1.771727390E1
1.589133008E1,-9.295126934E0,-5.661835527E0,1.449916875E1,1.812957971E1
1.590131608E1,-1.102771774E1,-6.405632933E0,1.350169457E1,1.857251862E1
1.591130208E1,-1.237937181E1,-6.906545187E0,1.222370840E1,1.871812651E1
1.592128708E1,-1.323292262E1,-7.277643991E0,1.084507879E1,1.859274259E1
1.593127308E1,-1.379874365E1,-7.325285350E0,9.583793446E0,1.832796302E1
1.594125808E1,-1.446833404E1,-7.639211833E0,8.221243095E0,1.831062766E1
1.595124408E1,-1.516479239E1,-8.251842744E0,6.698328177E0,1.851840806E1
1.596122908E1,-1.538344434E1,-8.945143011E0,5.149152828E0,1.852511047E1
1.597121508E1,-1.573509706E1,-9.318603505E0,3.995899469E0,1.871889054E1
1.598120008E1,-1.585268222E1,-9.692355191E0,3.183927037E0,1.885170216E1
1.599118608E1,-1.561075719E1,-1.029543467E1,2.178416444E0,1.882650295E1
1.600117108E1,-1.530236568E1,-1.096329546E1,9.554087251E-1,1.884858213E1
1.601115708E1,-1.503607295E1,-1.155648847E1,-5.600854915E-1,1.897233806E1
1.602114208E1,-1.466804803E1,-1.200130839E1,-2.143181123E0,1.907291958E1
1.603112808E1,-1.411749408E1,-1.235437145E1,-3.385109847E0,1.906287234E1
1.604111308E1,-1.321801456E1,-1.266353362E1,-4.213587799E0,1.878391107E1
1.605109908E1,-1.204310662E1,-1.284665322E1,-5.142590498E0,1.834445837E1
1.606108508E1,-1.100428912E1,-1.281816558E1,-6.021886602E0,1.793496212E1
1.607107008E1,-9.604497267E0,-1.267721143E1,-6.174749191E0,1.706123047E1
1.608105608E1,-8.140608822E0,-1.238024772E1,-5.931361179E0,1.595998406E1
1.609104108E1,-6.875536818E0,-1.223261371E1,-5.950568113E0,1.524201777E1
1.610102708E1,-5.791610386E0,-1.220556098E1,-6.617572281E0,1.504362764E1
1.611101208E1,-4.935690281E0,-1.208859445E1,-7.311560766E0,1.496509523E1
1.612099808E1,-4.155878119E0,-1.190713547E1,-7.624564558E0,1.473720403E1
1.613098308E1,-3.546013527E0,-1.159916847E1,-7.920259423E0,1.448604261E1
1.614096908E1,-2.941109420E0,-1.136001150E1,-8.217276928E0,1.432562829E1
1.615095408E1,-2.256149037E0,-1.112564223E1,-8.595398238E0,1.423906579E1
1.616094008E1,-1.733122321E0,-1.081369679E1,-8.737242919E0,1.400996663E1
1.617092508E1,-1.158043691E0,-1.056020478E1,-8.593539993E0,1.366411065E1
1.618091108E1,-6.089165762E-1,-1.035671934E1,-8.380926461E0,1.333687907E1
1.619089708E1,-3.326999925E-2,-1.023552293E1,-8.359033316E0,1.321516079E1
1.620088208E1,4.203308613E-1,-1.009902787E1,-8.501786070E0,1.320785404E1
1.621086808E1,9.441529812E-1,-9.720203725E0,-8.520805893E0,1.296062955E1
1.622085308E1,1.475756393E0,-9.311531882E0,-8.544724513E0,1.272378874E1
1.623083908E1,2.034387536E0,-9.255181680E0,-8.681965681E0,1.285199007E1
1.624082408E1,2.416563305E0,-9.080721815E0,-8.790050293E0,1.286717805E1
1.625081008E1,3.039139452E0,-8.896784198E0,-8.647754792E0,1.277391094E1
1.626079508E1,3.618972745E0,-8.506827539E0,-8.326611090E0,1.244168521E1
1.627078108E1,4.008090329E0,-8.210985324E0,-7.976911926E0,1.212914638E1
1.628076608E1,4.282370643E0,-7.993990474E0,-7.504677342E0,1.177126858E1
1.629075208E1,4.522048013E0,-7.710384727E0,-6.992811499E0,1.134893667E1
1.630073708E1,4.625419477E0,-7.499912446E0,-6.242079295E0,1.079846035E1
1.631072308E1,4.526167084E0,-7.581664706E0,-5.336393538E0,1.031721494E1
1.632070808E1,4.558646613E0,-7.764802424E0,-4.877246776E0,1.024016366E1
1.633069408E1,4.657694645E0,-7.626644998E0,-4.983198908E0,1.023191598E1
1.634068008E1,5.264353502E0,-7.243288676E0,-4.734754808E0,1.012899559E1
1.635066508E1,6.287413927E0,-6.539154103E0,-4.283177267E0,1.003183521E1
1.636065108E1,7.200096463E0,-5.789817045E0,-3.717651526E0,9.959131657E0
1.637063608E1,7.426945626E0,-5.413242323E0,-2.739305343E0,9.589916973E0
1.638062208E1,7.784899889E0,-5.587870588E0,-2.174208788E0,9.826298787E0
1.639060708E1,8.718846409E0,-5.457819157E0,-1.236899534E0,1.036030854E1
1.640059308E1,1.025430653E1,-4.819015524E0,5.513912666E-1,1.134362135E1
1.641057808E1,1.160521683E1,-3.961340670E0,3.055339748E0,1.263757803E1
1.642056408E1,1.201504700E1,-3.048665151E0,5.536099341E0,1.357586497E1
1.643054908E1,1.188920674E1,-2.196121228E0,7.291256309E0,1.411873237E1
1.644053508E1,1.167228673E1,-1.726684390E0,7.390801647E0,1.392291871E1
1.645052008E1,1.079928574E1,-1.669623605E0,5.752987772E0,1.234945682E1
1.646050608E1,9.636090358E0,-2.219209836E0,4.544384084E0,1.088258041E1
1.647049208E1,8.151239644E0,-2.851278938E0,5.112189655E0,1.003528686E1
1.648047708E1,6.452084384E0,-3.122791473E0,6.546268410E0,9.707463602E0
1.649046308E1,4.800853780E0,-3.096533967E0,7.722811815E0,9.606172076E0
1.650044808E1,3.277852908E0,-2.723692693E0,8.186564428E0,9.229445200E0
1.651043408E1,2.109545599E0,-1.949966313E0,8.591942534E0,9.059471715E0
1.652041908E1,1.058331561E0,-8.499129680E-1,9.132956162E0,9.233271685E0
1.653040508E1,-1.431018323E-2,8.546816647E-2,9.487488635E0,9.487884389E0
1.654039008E1,-1.054144443E0,4.383039963E-1,9.589878058E0,9.657592458E0
