"Time (s)","Linear Acceleration x (m/s^2)","Linear Acceleration y (m/s^2)","Linear Acceleration z (m/s^2)","Absolute acceleration (m/s^2)"
5.711000005E-3,-1.422413268E0,2.882987219E-1,-5.410156748E-1,1.548894321E0
1.569699997E-2,-1.636951849E0,3.735107803E-1,-4.271391034E-1,1.732503816E0
2.568199998E-2,-1.811998775E0,2.002519333E-1,-1.752711663E-1,1.831436698E0
3.566800000E-2,-2.029235846E0,1.615468740E-1,-6.094085097E-2,2.036568020E0
4.565300001E-2,-1.897805934E0,3.129494137E-1,-6.781308353E-3,1.923447604E0
5.563800002E-2,-1.561651114E0,5.266037500E-1,1.431965572E-1,1.654258433E0
6.562399998E-2,-1.223007280E0,8.228236949E-1,4.268394336E-1,1.534593608E0
7.560899999E-2,-5.806216073E-1,1.010759638E0,7.991769701E-1,1.413308291E0
8.559500001E-2,-9.427540714E-2,1.097359241E0,1.076033568E0,1.539783555E0
9.557999996E-2,-9.451174429E-2,1.119510248E0,1.243406023E0,1.675796588E0
1.055650000E-1,-1.478915424E-1,1.089478948E0,1.256355852E0,1.669510800E0
1.155510000E-1,-3.884203032E-2,1.157989020E0,1.186851169E0,1.658632862E0
1.255360000E-1,-1.766703319E-1,1.153475554E0,1.049751211E0,1.569616470E0
1.355220000E-1,-7.602744211E-1,1.206793975E0,1.020646987E0,1.753878321E0
1.455070000E-1,-1.343585930E0,1.178893985E0,1.088235538E0,2.092670726E0
1.554920000E-1,-1.872795053E0,1.065967879E0,1.166499057E0,2.450381375E0
1.654780000E-1,-2.517595298E0,7.685235268E-1,1.077539518E0,2.844293569E0
1.754630000E-1,-3.371717384E0,3.956945318E-1,7.967293257E-1,3.487094765E0
1.854490000E-1,-4.123719895E0,6.340545237E-2,5.911067247E-1,4.166352504E0
1.954340000E-1,-4.033046537E0,-2.994312358E-1,4.297332206E-1,4.066914565E0
2.054190000E-1,-3.480729949E0,-2.354463243E-1,2.933562711E-1,3.500996123E0
2.154050000E-1,-3.212038695E0,6.881412685E-2,5.459095019E-1,3.258825731E0
2.253900000E-1,-3.545242864E0,-1.054229593E-1,5.641896522E-1,3.591402362E0
2.353760000E-1,-4.627772981E0,-1.065245748E0,-8.359156108E-1,4.821803208E0
2.453610000E-1,-2.594867714E0,-1.660273615E0,1.040053019E0,3.251393119E0
2.553460000E-1,-2.819875297E0,-7.845612699E-1,4.704026520E-1,2.964542415E0
2.653320000E-1,-3.218554832E0,-1.559708523E0,7.961077666E-1,3.664092447E0
2.753170000E-1,-3.812148963E0,-2.361458268E0,8.608884841E-1,4.566190299E0
2.853020000E-1,-4.018323248E0,-2.625821412E0,4.507804196E-1,4.821313390E0
2.952880000E-1,-3.782421134E0,-2.781767823E0,-4.297286890E-1,4.714828586E0
3.052730000E-1,-3.630687642E0,-3.002791990E0,-1.182003242E0,4.857549192E0
3.152590000E-1,-3.515917908E0,-3.324690567E0,-1.488028383E0,5.062556130E0
3.252440000E-1,-3.307946773E0,-3.480590785E0,-1.347029502E0,4.987134703E0
3.352290000E-1,-2.967579765E0,-3.514348515E0,-6.805077285E-1,4.649759770E0
3.452150000E-1,-2.818590371E0,-3.547176538E0,-2.724948674E-3,4.530664466E0
3.552000000E-1,-2.814312548E0,-3.500637379E0,4.280872294E-1,4.511992449E0
3.651860000E-1,-2.633411975E0,-3.497883341E0,6.716268311E-1,4.429574370E0
3.751710000E-1,-2.366950850E0,-3.573366802E0,6.649520883E-1,4.337460997E0
3.851560000E-1,-1.993473106E0,-3.627849403E0,5.390773228E-1,4.174425790E0
3.951420000E-1,-1.295425485E0,-3.658275974E0,3.788720924E-1,3.899314601E0
4.051270000E-1,-6.677730775E-1,-3.680788924E0,2.944855146E-1,3.752445830E0
4.151130000E-1,-1.452126771E-1,-3.570609255E0,1.289457232E-1,3.575886488E0
4.250980000E-1,8.282048875E-1,-3.178251144E0,-3.790869775E-1,3.306192766E0
4.350830000E-1,1.850634983E0,-2.712060242E0,-8.710103068E-1,3.396877912E0
4.450690000E-1,2.877106090E0,-2.240574101E0,-8.081886989E-1,3.735114553E0
4.550540000E-1,3.851231167E0,-1.917444100E0,-3.979980424E-1,4.320529577E0
4.650400000E-1,4.315493658E0,-1.680327226E0,3.249765515E-2,4.631202997E0
4.750250000E-1,4.637565313E0,-1.341687486E0,8.217209101E-2,4.828445878E0
4.850100000E-1,5.303235732E0,-7.954657423E-1,-3.468559554E-1,5.373768140E0
4.949960000E-1,6.464053050E0,-4.453520107E-1,-8.129144186E-1,6.530172287E0
5.049810000E-1,8.175540673E0,-3.567473978E-1,-1.247798159E0,8.277906392E0
5.149670000E-1,9.672359467E0,-2.307340533E-1,-1.391104059E0,9.774607223E0
5.249520000E-1,1.108781776E1,5.775587261E-2,-1.112001546E0,1.114358946E1
5.349370000E-1,1.259243733E1,5.649094445E-1,-5.819283503E-1,1.261852769E1
5.449230000E-1,1.363553616E1,8.420107484E-1,-6.047395080E-2,1.366164286E1
5.549080000E-1,1.409805560E1,8.587296921E-1,2.961070937E-1,1.412728805E1
5.648940000E-1,1.423865307E1,6.351900530E-1,4.615438280E-1,1.426028507E1
5.748790000E-1,1.414657112E1,1.177278399E-1,6.030739287E-1,1.415990933E1
5.848640000E-1,1.372877469E1,-4.637403345E-1,5.553705892E-1,1.374782696E1
5.948500000E-1,1.287901639E1,-7.706565911E-1,4.432978839E-1,1.290966644E1
6.048350000E-1,1.207648136E1,-1.234249576E0,6.849957588E-1,1.215870031E1
6.148210000E-1,1.120365812E1,-1.919326903E0,1.181789234E0,1.142814057E1
6.248060000E-1,1.034683989E1,-2.568249727E0,1.481817470E0,1.076330736E1
6.347910000E-1,9.867475791E0,-3.152750852E0,1.455726317E0,1.046069097E1
6.447770000E-1,9.453946667E0,-3.896338928E0,1.598089646E0,1.034951473E1
6.547620000E-1,8.559384652E0,-5.014659267E0,2.244142072E0,1.017084298E1
6.647480000E-1,7.266096325E0,-5.977674635E0,2.852959135E0,9.831995000E0
6.747330000E-1,5.797500286E0,-6.512645751E0,3.200234629E0,9.288006563E0
6.847180000E-1,4.512132889E0,-7.000894690E0,3.343411013E0,8.974980048E0
6.947040000E-1,3.818116631E0,-7.564865656E0,3.128797733E0,9.032971950E0
7.046890000E-1,3.383957653E0,-8.147126713E0,2.633028690E0,9.206502221E0
7.146750000E-1,2.842661896E0,-8.678399464E0,2.322341564E0,9.422771050E0
7.246600000E-1,2.206629260E0,-9.047866895E0,2.102706111E0,9.547485587E0
7.346450000E-1,1.567905734E0,-9.126333606E0,1.969100157E0,9.467082386E0
7.446310000E-1,9.187699257E-1,-9.002148101E0,2.104470508E0,9.290403905E0
7.546160000E-1,4.582100014E-1,-8.889417291E0,2.237335913E0,9.178091750E0
7.646020000E-1,3.182855461E-1,-8.756152815E0,2.280713482E0,9.053903677E0
7.745870000E-1,-1.647219121E-2,-8.624868205E0,2.462755432E0,8.969603514E0
7.845720000E-1,-2.444074747E-1,-8.679570077E0,2.831387295E0,9.132985588E0
7.945580000E-1,-7.147860070E-1,-8.623623918E0,3.016460149E0,9.163887840E0
8.045430000E-1,-1.648970509E0,-8.014720607E0,2.870924413E0,8.671623674E0
8.145290000E-1,-2.328732863E0,-7.347441620E0,2.596868339E0,8.133364634E0
8.245140000E-1,-2.688300958E0,-6.920355726E0,2.188882375E0,7.740122187E0
8.344990000E-1,-3.043017033E0,-6.416535652E0,1.708922303E0,7.304265731E0
8.444850000E-1,-3.441370586E0,-5.703632594E0,1.488269581E0,6.825643019E0
8.544700000E-1,-3.895308648E0,-5.068190526E0,1.766149734E0,6.631686781E0
8.644560000E-1,-4.647176674E0,-4.715445548E0,2.312486667E0,7.012793476E0
8.744410000E-1,-5.763725599E0,-4.293388259E0,2.721208211E0,7.684965169E0
8.844260000E-1,-7.300797211E0,-3.778719846E0,2.500988036E0,8.592747218E0
8.944120000E-1,-9.041979918E0,-3.350466263E0,1.850155219E0,9.818660772E0
9.043970000E-1,-1.039842168E1,-2.846464341E0,1.068898942E0,1.083383947E1
9.143830000E-1,-1.122065598E1,-2.224515892E0,3.046060216E-1,1.144309296E1
9.243680000E-1,-1.190775527E1,-1.576548504E0,-3.216620573E-1,1.201597301E1
9.343530000E-1,-1.270712345E1,-1.106613044E0,-7.173063031E-1,1.277537111E1
9.443390000E-1,-1.290181819E1,-6.385878700E-1,-1.279774535E0,1.298085243E1
9.543240000E-1,-1.229794114E1,-1.190873176E-1,-1.910921238E0,1.244609007E1
9.643100000E-1,-1.133476205E1,3.132037675E-1,-2.044438315E0,1.152192065E1
9.742950000E-1,-1.053438114E1,6.570375896E-1,-1.468660066E0,1.065654010E1
9.842800000E-1,-1.002830463E1,9.304627490E-1,-4.813120946E-1,1.008287241E1
9.942660000E-1,-9.656610577E0,1.235817214E0,3.181405717E-1,9.740563918E0
1.004251125E0,-9.360300584E0,1.339162073E0,7.693935925E-1,9.486861894E0
1.014237125E0,-9.046678156E0,1.159644951E0,8.348490787E-1,9.158828258E0
1.024222125E0,-8.821859146E0,8.403489697E-1,8.178155547E-1,8.899449841E0
1.034207125E0,-8.767194697E0,4.075538546E-1,9.071080926E-1,8.823414763E0
1.044193125E0,-8.774373323E0,-5.002526879E-2,1.021378474E0,8.833761584E0
1.054178125E0,-8.772990457E0,-6.196177483E-1,1.007187574E0,8.852328198E0
1.064164125E0,-8.566041123E0,-1.228129295E0,8.177398333E-1,8.692183875E0
1.074149125E0,-8.194886770E0,-1.729653752E0,6.385109791E-1,8.399736160E0
1.084134125E0,-7.638375682E0,-2.277185857E0,6.637500469E-1,7.998182456E0
1.094120125E0,-6.899682895E0,-2.832414651E0,6.852221923E-1,7.489841538E0
1.104105125E0,-6.176722042E0,-3.229909540E0,6.384451979E-1,6.999415911E0
1.114091125E0,-5.698957745E0,-3.660468680E0,6.907505885E-1,6.808398249E0
1.124076125E0,-5.213345901E0,-4.089713366E0,8.094996446E-1,6.675329248E0
1.134061125E0,-4.814484225E0,-4.557430977E0,8.843450283E-1,6.688161301E0
1.144047125E0,-4.499372218E0,-5.076845575E0,9.965579206E-1,6.856517997E0
1.154032125E0,-4.305179462E0,-5.603644622E0,1.115145155E0,7.153946601E0
1.164018125E0,-4.091438587E0,-6.090792530E0,1.186325212E0,7.432697415E0
1.174003125E0,-3.699588892E0,-6.538078215E0,1.226084524E0,7.611616647E0
1.183988125E0,-3.135571148E0,-6.922536153E0,1.218754454E0,7.696666527E0
1.193974125E0,-2.459954031E0,-7.300083266E0,1.079534004E0,7.778687755E0
1.203959125E0,-1.493059327E0,-7.619965138E0,9.445736884E-1,7.822104213E0
1.213945125E0,-3.432251269E-1,-7.831609787E0,8.949046612E-1,7.890042439E0
1.223930125E0,5.129547772E-1,-7.776549481E0,1.019191908E0,7.859808940E0
1.233915125E0,7.910130876E-1,-7.739508539E0,1.290192373E0,7.886082075E0
1.243901125E0,4.796750204E-1,-7.881719840E0,1.587958176E0,8.054390538E0
1.253886125E0,-1.052734168E-1,-8.068659418E0,1.814781903E0,8.270899627E0
1.263872125E0,-4.029088265E-1,-8.141695819E0,1.879372294E0,8.365499779E0
1.273857125E0,-4.237939113E-1,-8.210140402E0,1.566850019E0,8.369051659E0
1.283842125E0,1.431272677E-1,-7.964182538E0,9.872877449E-1,8.026420497E0
1.293828125E0,1.397985940E0,-7.398459746E0,5.524265161E-1,7.549618954E0
1.303813125E0,2.316997209E0,-6.876491668E0,7.912332353E-1,7.299360504E0
1.313799125E0,2.670855205E0,-6.105334556E0,2.239432432E0,7.030194534E0
1.323784125E0,2.774541542E0,-5.380734728E0,3.969068350E0,7.239053153E0
1.333769125E0,3.147430178E0,-4.692050838E0,4.904631041E0,7.481782103E0
1.343755125E0,3.992928498E0,-4.113714432E0,4.700476091E0,7.413541657E0
1.353740125E0,5.036338989E0,-3.652301874E0,3.838488330E0,7.310130782E0
1.363725125E0,5.948920952E0,-3.172058943E0,3.079439924E0,7.411785795E0
1.373711125E0,7.025974567E0,-2.491403280E0,2.675061985E0,7.920060956E0
1.383696125E0,8.459407790E0,-1.625580330E0,2.367936983E0,8.933712393E0
1.393682125E0,9.870137444E0,-8.930955327E-1,1.797709203E0,1.007218900E1
1.403667125E0,1.102073383E1,-1.147182781E-1,1.050376571E0,1.107127027E1
1.413652125E0,1.181386419E1,3.636424345E-1,4.641601646E-1,1.182856997E1
1.423638125E0,1.214874944E1,6.968518656E-1,3.003404778E-1,1.217242456E1
1.433623125E0,1.238190716E1,1.034492902E0,4.408098936E-1,1.243286427E1
1.443609125E0,1.279761496E1,1.418418158E0,7.787772042E-1,1.289950978E1
1.453594125E0,1.322959906E1,1.530712765E0,1.021850344E0,1.335700382E1
1.463580125E0,1.340500150E1,1.526702744E0,6.708320484E-1,1.350832714E1
1.473565125E0,1.331047775E1,1.509390893E0,3.460499167E-2,1.339583056E1
1.483550125E0,1.299328969E1,1.343213024E0,-4.329746246E-1,1.306970792E1
1.493536125E0,1.272251449E1,1.207540664E0,-4.907243577E-1,1.278911020E1
1.503521125E0,1.254850603E1,9.975542861E-1,-4.373191059E-2,1.258817026E1
1.513507125E0,1.215437329E1,7.092397767E-1,5.844683808E-1,1.218906946E1
1.523492125E0,1.134513969E1,3.697697318E-1,1.251992952E0,1.142000047E1
1.533477125E0,1.047725969E1,-1.703060031E-2,1.843070440E0,1.063814689E1
1.543463125E0,9.780341753E0,-5.239619780E-1,2.324847389E0,1.006650567E1
1.553448125E0,9.307704295E0,-1.050113738E0,2.551253625E0,9.707986051E0
1.563433125E0,9.108641685E0,-1.617625194E0,2.504552791E0,9.584197895E0
1.573419125E0,8.949882764E0,-2.187455070E0,2.505602658E0,9.547952966E0
1.583404125E0,8.570633526E0,-2.857423777E0,2.879698453E0,9.482262011E0
1.593390125E0,7.978860803E0,-3.848980574E0,3.435564009E0,9.501577302E0
1.603375125E0,7.102581863E0,-4.939647676E0,3.816468886E0,9.455803670E0
1.613360125E0,6.274808500E0,-5.562973729E0,3.854773995E0,9.229256794E0
1.623346125E0,5.545480614E0,-6.080576860E0,3.954214668E0,9.130256504E0
1.633331125E0,4.666207314E0,-7.018707647E0,4.084949639E0,9.366032313E0
1.643317125E0,3.845488909E0,-7.977066877E0,4.044550642E0,9.735490271E0
1.653302125E0,3.163447456E0,-8.677688443E0,3.786391978E0,9.982306383E0
1.663287125E0,2.531026352E0,-9.351457840E0,3.369272663E0,1.025708811E1
1.673273125E0,2.136639111E0,-9.998281513E0,2.905300194E0,1.062881128E1
1.683258125E0,1.947042413E0,-1.050453812E1,2.220175796E0,1.091171278E1
1.693244125E0,1.671081462E0,-1.090069283E1,1.593185002E0,1.114252466E1
1.703229125E0,1.414477427E0,-1.134253651E1,1.192836086E0,1.149246444E1
1.713215125E0,9.621151891E-1,-1.169801682E1,1.002606719E0,1.178025820E1
1.723200125E0,3.997364196E-1,-1.137426233E1,7.255038071E-1,1.140438462E1
1.733185125E0,-1.853874341E-1,-1.056928902E1,2.879092973E-1,1.057483478E1
1.743171125E0,-6.844662935E-1,-9.954589949E0,-2.668201447E-2,9.978129438E0
1.753156125E0,-1.294493439E0,-9.448269020E0,-2.039685698E-1,9.538716052E0
1.763142125E0,-1.929366572E0,-8.834360493E0,-3.553580993E-1,9.049566845E0
1.773127125E0,-2.238881039E0,-8.025309330E0,-3.588839704E-1,8.339482949E0
1.783112125E0,-2.176779224E0,-7.207572128E0,6.207579553E-2,7.529363663E0
1.793098125E0,-2.225781814E0,-6.527433944E0,8.585227007E-1,6.949716527E0
1.803083125E0,-2.845059255E0,-5.823594071E0,1.611893753E0,6.678833097E0
1.813069125E0,-4.201679360E0,-5.174010512E0,1.859074854E0,6.919584780E0
1.823054125E0,-5.932862744E0,-4.559545330E0,1.482515336E0,7.627985689E0
1.833039125E0,-8.052393048E0,-3.874353982E0,7.079627448E-1,8.963975894E0
1.843025125E0,-1.027991967E1,-3.030218355E0,-5.215394765E-2,1.071735470E1
1.853010125E0,-1.209904226E1,-2.138382313E0,-6.072368538E-1,1.230155433E1
1.862996125E0,-1.333236037E1,-1.392483417E0,-9.519141367E-1,1.343863771E1
1.872981125E0,-1.442149082E1,-7.988986427E-1,-1.026287211E0,1.448001734E1
1.882966125E0,-1.513370742E1,-2.188203514E-1,-6.007479063E-1,1.514720702E1
1.892952125E0,-1.522110341E1,3.719308627E-1,3.017376700E-1,1.522863642E1
1.902937125E0,-1.467245098E1,9.900692654E-1,1.058449236E0,1.474385871E1
1.912923125E0,-1.361510365E1,1.420643608E0,1.642571462E0,1.378721570E1
1.922908125E0,-1.240027093E1,1.625252302E0,2.149435597E0,1.268969020E1
1.932893125E0,-1.145267233E1,1.772420288E0,2.439059005E0,1.184289601E1
1.942879125E0,-1.080599600E1,1.889195032E0,2.416167448E0,1.123283013E1
1.952864125E0,-1.033966418E1,1.806318351E0,2.033974722E0,1.069151507E1
1.962850125E0,-1.001788840E1,1.418617548E0,1.362683960E0,1.020918563E1
1.972835125E0,-9.911621100E0,8.731495106E-1,7.396856439E-1,9.977462490E0
1.982820125E0,-9.729466884E0,3.992589945E-1,3.355129418E-1,9.743433815E0
1.992806125E0,-9.409607815E0,-1.125869679E-1,1.586028010E-1,9.411617816E0
2.002791542E0,-8.931873339E0,-8.028718257E-1,2.298832834E-3,8.967885470E0
2.012777542E0,-8.388496267E0,-1.503399251E0,-1.234095794E-1,8.523045749E0
2.022762542E0,-8.080314673E0,-2.224246336E0,-9.549964964E-2,8.381400668E0
2.032747542E0,-7.685276198E0,-3.015045415E0,1.120607185E-1,8.256302242E0
2.042733542E0,-7.203446918E0,-3.640401621E0,3.116159561E-1,8.077083382E0
2.052718542E0,-6.677009228E0,-4.299810256E0,5.131305957E-1,7.958273901E0
2.062704542E0,-6.102447785E0,-5.031595727E0,7.157662927E-1,7.941608522E0
2.072689542E0,-5.597778695E0,-5.725963111E0,8.661965865E-1,8.054320356E0
2.082674542E0,-5.053332751E0,-6.236809784E0,1.028602124E0,8.092712185E0
2.092660542E0,-4.441512850E0,-6.620059102E0,1.146953423E0,8.054049979E0
2.102645542E0,-3.874348134E0,-7.069902359E0,1.242153696E0,8.157023884E0
2.112631542E0,-3.289991143E0,-7.537353922E0,1.399734403E0,8.342361911E0
2.122616542E0,-2.564577968E0,-7.813085808E0,1.681026553E0,8.393284236E0
2.132601542E0,-2.013671435E0,-7.982130566E0,1.987881998E0,8.468822578E0
2.142587542E0,-1.730068028E0,-8.279360325E0,2.212382481E0,8.742744364E0
2.152572542E0,-1.426960940E0,-8.569185171E0,2.366521810E0,9.003753522E0
2.162558542E0,-9.721971776E-1,-8.938360240E0,2.471182439E0,9.324494291E0
2.172543542E0,-7.089640805E-1,-9.206928703E0,2.276265359E0,9.510601989E0
2.182528542E0,-5.628272144E-1,-9.274525439E0,1.795972288E0,9.463567670E0
2.192514542E0,-1.843048221E-1,-9.408354172E0,1.298078951E0,9.499268680E0
2.202499542E0,2.455343793E-1,-9.706721215E0,8.562873101E-1,9.747510032E0
2.212485542E0,6.078309309E-1,-9.576917705E0,9.479479703E-1,9.642894613E0
2.222470542E0,1.131672749E0,-9.073215744E0,1.606386553E0,9.283555618E0
2.232455542E0,1.528901590E0,-8.931317269E0,2.200186797E0,9.324526271E0
2.242441542E0,1.472876785E0,-8.774914191E0,2.569203115E0,9.261171078E0
2.252426542E0,1.040998221E0,-8.381794773E0,2.972705727E0,8.954057195E0
2.262412542E0,1.064949294E0,-7.871050426E0,3.625659913E0,8.731148928E0
2.272397542E0,1.844296894E0,-7.120704138E0,4.147008186E0,8.444142073E0
2.282382542E0,2.964765792E0,-6.319125717E0,4.227549196E0,8.160475368E0
2.292368542E0,3.928060950E0,-5.855501742E0,3.818049388E0,8.018357974E0
2.302353542E0,4.850123589E0,-5.310658772E0,3.136315791E0,7.846226619E0
2.312339542E0,6.245161947E0,-4.389524671E0,2.634278825E0,8.075233712E0
2.322324542E0,8.234354306E0,-3.276227090E0,2.196201335E0,9.130254930E0
2.332309542E0,1.031187120E1,-2.055531360E0,1.815916848E0,1.067040068E1
2.342295542E0,1.224679438E1,-7.872334474E-1,1.802373235E0,1.240371954E1
2.352280542E0,1.358581378E1,3.774664217E-1,2.301519629E0,1.378454967E1
2.362266542E0,1.428172132E1,1.198410237E0,2.943248916E0,1.463101039E1
2.372251542E0,1.481118436E1,2.008127983E0,3.180952558E0,1.528143381E1
2.382236542E0,1.525864604E1,2.595508862E0,3.047274683E0,1.577494305E1
2.392222542E0,1.547888493E1,2.759743116E0,2.649637122E0,1.594467427E1
2.402207542E0,1.558064052E1,2.696547579E0,2.053665806E0,1.594507043E1
2.412193542E0,1.552730455E1,2.755057742E0,1.634479208E0,1.585430705E1
2.422178542E0,1.516516310E1,2.744592980E0,1.562472501E0,1.549052235E1
2.432163542E0,1.451372013E1,2.492377426E0,1.730487565E0,1.482749488E1
2.442149542E0,1.391861975E1,2.034802980E0,1.732189105E0,1.417282181E1
2.452134542E0,1.341171878E1,1.535711550E0,1.602428865E0,1.359413068E1
2.462120542E0,1.295193350E1,1.011213382E0,1.550382214E0,1.308353236E1
2.472105542E0,1.215034222E1,2.289641011E-1,1.572957729E0,1.225387435E1
2.482090542E0,1.104482903E1,-5.048743272E-1,1.717231928E0,1.118892452E1
2.492076542E0,1.009318650E1,-1.167109507E0,1.870873951E0,1.033125005E1
2.502061542E0,9.373127037E0,-1.940735314E0,1.850978215E0,9.749260708E0
2.512047542E0,8.503456035E0,-2.786258485E0,1.821603557E0,9.131825688E0
2.522032542E0,7.622285314E0,-3.455387532E0,1.832613865E0,8.567228839E0
2.532017542E0,6.845812497E0,-4.009117684E0,1.980462174E0,8.176821129E0
2.542003542E0,5.954485162E0,-4.415935374E0,2.232963072E0,7.742254379E0
2.551988542E0,5.116774457E0,-4.767873437E0,2.867789721E0,7.558982460E0
2.561974542E0,4.483914227E0,-5.313986422E0,3.666144572E0,7.860315166E0
2.571959542E0,4.021885664E0,-5.868676103E0,4.173613309E0,8.248392059E0
2.581944542E0,3.500019913E0,-6.475545167E0,4.369060585E0,8.559878212E0
2.591930542E0,2.768448158E0,-6.876244331E0,4.315836013E0,8.577498574E0
2.601915542E0,2.020175293E0,-7.122962918E0,4.225145698E0,8.524644574E0
2.611901542E0,1.723177523E0,-7.437068326E0,4.083505962E0,8.657617859E0
2.621886542E0,1.900911390E0,-7.905217461E0,3.872208638E0,9.005549786E0
2.631871542E0,1.834148320E0,-8.022855839E0,3.789860546E0,9.060538550E0
2.641857542E0,1.485511157E0,-8.043340389E0,3.914948276E0,9.068014558E0
2.651842542E0,7.252136390E-1,-8.152165259E0,4.306291310E0,9.248128355E0
2.661828542E0,-3.855691277E-1,-8.066492440E0,4.775392372E0,9.381968671E0
2.671813542E0,-9.110613951E-1,-7.774179604E0,4.929478784E0,9.250279048E0
2.681798542E0,-9.207002378E-1,-7.454811702E0,4.869882792E0,8.951964301E0
2.691784542E0,-1.324905977E0,-7.264935068E0,4.573806689E0,8.686447203E0
2.701769542E0,-2.168097278E0,-6.958680716E0,4.050865635E0,8.338668689E0
2.711755542E0,-3.256656167E0,-6.814124097E0,3.480462731E0,8.315751164E0
2.721740542E0,-4.505568513E0,-6.715204411E0,2.498782466E0,8.463925313E0
2.731725542E0,-5.640898987E0,-6.441169971E0,1.411545925E0,8.677607613E0
2.741711542E0,-6.813396703E0,-5.939447878E0,4.888944715E-1,9.051985060E0
2.751696542E0,-7.401722492E0,-5.324617830E0,-1.376605596E-1,9.118991244E0
2.761682542E0,-7.693153567E0,-4.838197900E0,-1.348088725E-1,9.089056286E0
2.771667542E0,-8.079029455E0,-4.380007158E0,1.705679584E-1,9.191532683E0
2.781652542E0,-8.046697276E0,-3.950422749E0,2.175561833E-1,8.966744539E0
2.791638542E0,-7.838503069E0,-3.417116920E0,2.150605917E-2,8.550981284E0
2.801623542E0,-7.901457701E0,-2.799481378E0,-5.949439600E-2,8.382939185E0
2.811609542E0,-8.071015261E0,-2.421268852E0,-1.091729249E-1,8.427084248E0
2.821594542E0,-8.218803636E0,-1.969770248E0,-6.334524067E-1,8.475257518E0
2.831579542E0,-8.282826555E0,-1.323466392E0,-1.385796542E0,8.501600501E0
2.841565542E0,-8.413505393E0,-9.364152145E-1,-1.708926104E0,8.636224573E0
2.851550542E0,-8.747167398E0,-6.444865412E-1,-1.582430364E0,8.912484853E0
2.861536542E0,-9.154023095E0,-3.280966258E-1,-1.425875112E0,9.270216074E0
2.871521542E0,-9.673625974E0,-9.252692521E-2,-1.407854578E0,9.775973365E0
2.881506542E0,-1.046983256E1,1.019555604E-1,-1.497961194E0,1.057694079E1
2.891492542E0,-1.084330826E1,2.582229835E-1,-1.724948352E0,1.098268910E1
2.901477542E0,-1.061775542E1,1.717613751E-1,-2.004237392E0,1.080662758E1
2.911463542E0,-1.015661944E1,-5.093041778E-2,-2.095116864E0,1.037058470E1
2.921448542E0,-9.861701081E0,-2.554595894E-1,-1.777494355E0,1.002386622E1
2.931434542E0,-9.430315729E0,-5.316955054E-1,-1.405319810E0,9.549265869E0
2.941419542E0,-8.830500162E0,-8.174541968E-1,-1.012810841E0,8.925903331E0
2.951404542E0,-8.239291111E0,-1.052182483E0,-5.646357948E-1,8.325372038E0
2.961390542E0,-7.676686639E0,-1.410837827E0,-7.733951345E-2,7.805636587E0
2.971375542E0,-7.117775853E0,-1.817612833E0,3.528886740E-1,7.354657022E0
2.981361542E0,-6.601355613E0,-2.172546424E0,8.670982271E-1,7.003550045E0
2.991346542E0,-6.068888276E0,-2.636961527E0,1.325111360E0,6.748399152E0
3.001331000E0,-5.639343628E0,-3.193079683E0,1.560508422E0,6.665818851E0
3.011317000E0,-5.372284332E0,-3.599847087E0,1.629343452E0,6.668965293E0
3.021302000E0,-5.231526064E0,-4.007868134E0,1.488963645E0,6.756395835E0
3.031288000E0,-5.083546484E0,-4.478022864E0,1.226288007E0,6.884687059E0
3.041273000E0,-4.811457706E0,-4.898869779E0,9.536066133E-1,6.932417756E0
3.051258000E0,-4.359194871E0,-5.356440132E0,7.263336731E-1,6.944176799E0
3.061244000E0,-3.586075140E0,-5.805713870E0,6.738664609E-1,6.857138212E0
3.071229000E0,-2.891373296E0,-6.224807205E0,7.818908465E-1,6.907938735E0
3.081215000E0,-2.466661372E0,-6.527468442E0,1.160688241E0,7.073857489E0
3.091200000E0,-2.083832176E0,-6.880108756E0,1.597099859E0,7.364032930E0
3.101185000E0,-1.737165378E0,-7.172632091E0,1.847868665E0,7.607825791E0
3.111171000E0,-1.328771863E0,-7.360603702E0,1.849335147E0,7.704814210E0
3.121156000E0,-1.014270672E0,-7.512510272E0,1.747251533E0,7.779424368E0
3.131142000E0,-7.077659860E-1,-7.476168657E0,1.633726087E0,7.685251551E0
3.141127000E0,-4.292280943E-1,-7.522926502E0,1.622202979E0,7.707801399E0
3.151112000E0,-4.213385193E-1,-7.569300769E0,1.654027473E0,7.759358682E0
3.161098000E0,-5.657676695E-1,-7.469818581E0,1.848995278E0,7.716026583E0
3.171083000E0,-7.235943988E-1,-7.449260355E0,2.230254788E0,7.809552171E0
3.181069000E0,-7.364269906E-1,-7.469312797E0,2.562713291E0,7.930980884E0
3.191054000E0,-2.868161604E-1,-7.276038930E0,2.678504825E0,7.758697966E0
3.201039000E0,4.421062213E-1,-7.070863642E0,2.779738547E0,7.610487300E0
3.211025000E0,1.006440300E0,-6.809596013E0,3.031016792E0,7.521341817E0
3.221010000E0,1.490797332E0,-6.242823645E0,3.450214792E0,7.286927052E0
3.230996000E0,1.978627025E0,-5.964662241E0,3.864549955E0,7.377459381E0
3.240981000E0,2.512234278E0,-5.658031914E0,3.813429795E0,7.270962316E0
3.250966000E0,3.139580291E0,-4.725738401E0,3.502146838E0,6.667428314E0
3.260952000E0,3.974952111E0,-3.863032018E0,3.283003428E0,6.442155863E0
3.270937000E0,5.198751835E0,-3.380529723E0,2.951327721E0,6.867702467E0
3.280923000E0,6.504101214E0,-3.010509145E0,2.476035043E0,7.582693944E0
3.290908000E0,8.257969456E0,-2.078140789E0,2.035349695E0,8.755305652E0
3.300893000E0,9.956917140E0,-1.108568938E0,1.894672411E0,1.019602411E1
3.310879000E0,1.103966360E1,-4.748810345E-1,1.889365185E0,1.121023574E1
3.320864000E0,1.172344285E1,7.495136440E-2,1.898566364E0,1.187641715E1
3.330850000E0,1.266580936E1,5.954593921E-1,1.876401031E0,1.281788514E1
3.340835000E0,1.399532587E1,1.253699754E0,1.924009354E0,1.418247937E1
3.350820000E0,1.538851621E1,1.770369084E0,2.267589991E0,1.565511425E1
3.360806000E0,1.639415895E1,2.115070633E0,2.439253133E0,1.670903730E1
3.370791000E0,1.704072652E1,2.410622241E0,2.430646031E0,1.738118235E1
3.380777000E0,1.740284809E1,2.463400964E0,2.463338984E0,1.774811271E1
3.390762000E0,1.732261494E1,2.270704803E0,2.442250123E0,1.764068236E1
3.400747000E0,1.668025620E1,1.828907899E0,2.490926147E0,1.696409632E1
3.410733000E0,1.559513342E1,1.298816870E0,2.711837170E0,1.588235413E1
3.420718000E0,1.419424464E1,5.502528137E-1,3.024864352E0,1.452340054E1
3.430704000E0,1.282866952E1,-2.239477748E-1,3.184927495E0,1.322001049E1
3.440689000E0,1.142283048E1,-9.435610968E-1,3.221227302E0,1.190578301E1
3.450675000E0,1.039696573E1,-1.635577900E0,3.300671082E0,1.103025117E1
3.460660000E0,9.645782118E0,-2.566600227E0,3.469752386E0,1.056729535E1
3.470645000E0,8.675654197E0,-3.330247761E0,3.642725597E0,9.981331357E0
3.480631000E0,7.856387948E0,-3.925249901E0,3.802658639E0,9.570299426E0
3.490616000E0,7.104163535E0,-4.662569761E0,4.030228764E0,9.404862583E0
3.500602000E0,6.310656610E0,-5.344170334E0,4.280143731E0,9.311507599E0
3.510587000E0,5.549291829E0,-6.011196722E0,4.408286632E0,9.293122019E0
3.520572000E0,4.857631706E0,-6.647836300E0,4.394782195E0,9.332975078E0
3.530558000E0,3.965365309E0,-7.151857519E0,4.249179801E0,9.215677782E0
3.540543000E0,3.041747310E0,-7.515782374E0,4.085388181E0,9.079075282E0
3.550529000E0,2.475714616E0,-7.902338292E0,3.932091728E0,9.167194702E0
3.560514000E0,2.098991375E0,-8.365742996E0,3.603350154E0,9.347489128E0
3.570499000E0,1.688684944E0,-8.760663357E0,3.300764346E0,9.512934592E0
3.580485000E0,1.106982881E0,-9.134854753E0,2.999070822E0,9.678089081E0
3.590470000E0,5.054507165E-1,-9.396429945E0,2.706198408E0,9.791418997E0
3.600456000E0,1.066926822E-2,-9.710825375E0,2.529932923E0,1.003497902E1
3.610441000E0,-4.406666368E-1,-1.009150601E1,2.193360904E0,1.033651357E1
3.620426000E0,-7.772747621E-1,-1.017072643E1,1.653284438E0,1.033349803E1
3.630412000E0,-1.130020910E0,-1.005224313E1,1.180826490E0,1.018424717E1
3.640397000E0,-1.608568734E0,-9.633559098E0,6.041349059E-1,9.785598257E0
3.650383000E0,-2.357307622E0,-9.064671793E0,8.398662820E-2,9.366548334E0
3.660368000E0,-3.495543870E0,-8.480471215E0,-3.164768927E-1,9.178092209E0
3.670353000E0,-4.515808741E0,-7.850519097E0,-7.538977401E-1,9.087988803E0
3.680339000E0,-5.356817277E0,-7.118632470E0,-9.058781308E-1,8.954944710E0
3.690324000E0,-5.931954671E0,-6.272649708E0,-9.162323803E-1,8.681802944E0
3.700310000E0,-6.040819302E0,-5.529233540E0,-9.696338314E-1,8.246460522E0
3.710295000E0,-6.113512471E0,-5.002641485E0,-1.053205746E0,7.969360006E0
3.720280000E0,-6.821035506E0,-4.237883565E0,-8.731395704E-1,8.077657778E0
3.730266000E0,-8.162484425E0,-3.411240469E0,-4.505149560E-1,8.858085416E0
3.740251000E0,-9.295849650E0,-2.756281564E0,-1.713940237E-1,9.697385456E0
3.750237000E0,-1.018703314E1,-2.163456928E0,-2.660759403E-1,1.041762864E1
3.760222000E0,-1.100210694E1,-1.581697562E0,-4.292454167E-1,1.112350556E1
3.770207000E0,-1.150726661E1,-1.052638566E0,-5.044887033E-1,1.156631928E1
3.780193000E0,-1.177897737E1,-4.839155674E-1,-5.798721769E-1,1.180316626E1
3.790178000E0,-1.192161201E1,-1.416792047E-1,-7.258214571E-1,1.194452689E1
3.800164000E0,-1.198650557E1,-5.172154605E-2,-8.550871691E-1,1.201707806E1
3.810149000E0,-1.199701302E1,7.906254172E-2,-9.917327982E-1,1.203819365E1
3.820134000E0,-1.174359469E1,2.208505046E-1,-9.733403814E-1,1.178593156E1
3.830120000E0,-1.124871209E1,2.304715133E-1,-6.010972774E-1,1.126711847E1
3.840105000E0,-1.066727900E1,1.501015341E-1,-2.197763711E-1,1.067059855E1
3.850091000E0,-1.010851205E1,4.763726592E-3,-6.593437314E-2,1.010872821E1
3.860076000E0,-9.611962407E0,-2.542837143E-1,5.087720811E-2,9.615459948E0
3.870062000E0,-9.132966102E0,-5.842222130E-1,1.930355921E-1,9.153668563E0
3.880047000E0,-8.669187761E0,-1.010827466E0,1.937124074E-1,8.730069478E0
3.890032000E0,-8.118816833E0,-1.391827360E0,7.059358075E-2,8.237557504E0
3.900018000E0,-7.422012330E0,-1.720651964E0,1.261872992E-2,7.618862740E0
3.910003000E0,-6.620084830E0,-2.106989197E0,1.877323137E-1,6.949832376E0
3.919989000E0,-5.995941921E0,-2.572838037E0,5.218767147E-1,6.545469456E0
3.929974000E0,-5.569996819E0,-2.947345768E0,8.164518379E-1,6.354392595E0
3.939959000E0,-5.329146498E0,-3.359004368E0,9.593947721E-1,6.372060191E0
3.949945000E0,-5.170462421E0,-3.910600287E0,9.750873832E-1,6.555705275E0
3.959930000E0,-4.952160718E0,-4.439383879E0,7.897676307E-1,6.697444133E0
3.969916000E0,-4.524603539E0,-4.946021726E0,5.279737526E-1,6.724130009E0
3.979901000E0,-3.947926865E0,-5.404153411E0,5.148210257E-1,6.712379706E0
3.989886000E0,-3.525789470E0,-5.923223024E0,6.755241466E-1,6.926189086E0
3.999871792E0,-3.159714009E0,-6.343490480E0,8.038067955E-1,7.132304638E0
4.009856792E0,-2.710283858E0,-6.491826739E0,8.659387243E-1,7.087968882E0
4.019842792E0,-2.541515380E0,-6.691492197E0,9.583335024E-1,7.221756805E0
4.029827792E0,-2.372138792E0,-7.070566018E0,9.085489927E-1,7.513015875E0
4.039812792E0,-2.124397819E0,-7.318529477E0,7.095105028E-1,7.653583798E0
4.049798792E0,-1.902076740E0,-7.360857471E0,6.534982699E-1,7.630673537E0
4.059783792E0,-1.411131358E0,-7.382266467E0,9.949043280E-1,7.581489597E0
4.069769792E0,-6.398094264E-1,-7.256187633E0,1.590355095E0,7.455926797E0
4.079754792E0,1.211524445E-1,-7.320889413E0,2.115500988E0,7.621380725E0
4.089739792E0,6.308012060E-1,-7.471621277E0,2.238521728E0,7.825216559E0
4.099725792E0,9.329749321E-1,-7.555691959E0,1.832513731E0,7.830519126E0
4.109710792E0,1.195468503E0,-7.447860532E0,1.133807859E0,7.627928402E0
4.119696792E0,9.475281402E-1,-6.937331362E0,1.123139322E0,7.091249392E0
4.129681792E0,1.926585929E-1,-6.655538253E0,1.910688812E0,6.927051212E0
4.139666792E0,-4.500294909E-2,-6.509191216E0,2.543592896E0,6.988666566E0
4.149652792E0,3.835843635E-1,-6.202935110E0,2.640386826E0,6.752420568E0
4.159637792E0,9.952805963E-1,-5.726396390E0,2.576417995E0,6.357682656E0
4.169623792E0,1.432005917E0,-5.399499612E0,2.591715480E0,6.158102479E0
4.179608792E0,1.814254777E0,-5.134095663E0,2.731421542E0,6.091889881E0
4.189593792E0,2.977613002E0,-4.796641154E0,2.486584589E0,6.169039509E0
4.199579792E0,4.437638192E0,-3.996738544E0,2.165073390E0,6.352487269E0
4.209564792E0,5.103829890E0,-3.045864335E0,2.387081936E0,6.405039365E0
4.219550792E0,5.338335983E0,-2.417523125E0,3.083210793E0,6.621815304E0
4.229535792E0,5.688001817E0,-1.777709094E0,3.706312605E0,7.017860602E0
4.239521792E0,6.695123318E0,-1.163909910E0,3.899135651E0,7.834706207E0
4.249506792E0,7.911190977E0,-7.259517038E-1,3.748454073E0,8.784352935E0
4.259491792E0,8.928263853E0,-3.378187913E-1,3.394957142E0,9.557915618E0
4.269477792E0,9.932199790E0,-1.121379018E-2,2.942218929E0,1.035883056E1
4.279462792E0,1.091930101E1,2.153131914E-1,2.494359632E0,1.120264809E1
4.289448792E0,1.198068526E1,6.272390091E-1,2.216261378E0,1.220008453E1
4.299433792E0,1.323818745E1,1.032926432E0,2.057522337E0,1.343688737E1
4.309418792E0,1.452273185E1,1.326646693E0,1.808830900E0,1.469495155E1
4.319404792E0,1.506517688E1,1.610676947E0,1.670510043E0,1.524284877E1
4.329389792E0,1.509185305E1,1.683795794E0,1.695865617E0,1.527989388E1
4.339375792E0,1.516276106E1,1.684392210E0,1.509382707E0,1.533051651E1
4.349360792E0,1.501114042E1,1.504348254E0,9.124603415E-1,1.511390037E1
4.359345792E0,1.437398103E1,1.007617929E0,3.368306118E-1,1.441319116E1
4.369331792E0,1.348895231E1,7.758272839E-1,1.418131059E-1,1.351198925E1
4.379316792E0,1.256387017E1,6.054546225E-1,3.034403792E-1,1.258210972E1
4.389302792E0,1.161814502E1,1.617427558E-1,7.211552328E-1,1.164162872E1
4.399287792E0,1.054023888E1,-3.576198024E-1,1.383768142E0,1.063669788E1
4.409272792E0,9.553797230E0,-6.049248648E-1,2.231516179E0,9.829579851E0
4.419258792E0,8.778038943E0,-8.894533020E-1,3.055422193E0,9.337060546E0
4.429243792E0,8.089881887E0,-1.341267655E0,3.613547114E0,8.961189129E0
4.439229792E0,7.409302238E0,-1.826664323E0,3.996237145E0,8.614196046E0
4.449214792E0,6.689245112E0,-2.248726873E0,4.248172033E0,8.237095261E0
4.459199792E0,5.759135535E0,-2.732082862E0,4.361234087E0,7.723488955E0
4.469185792E0,4.941257415E0,-3.298073457E0,4.382674073E0,7.382489106E0
4.479170792E0,4.103013735E0,-3.960103399E0,4.271172056E0,7.124608858E0
4.489156792E0,3.303691754E0,-4.488185325E0,4.030346293E0,6.877636074E0
4.499141792E0,2.421515166E0,-4.960267882E0,3.771982099E0,6.685494905E0
4.509126792E0,1.411996745E0,-5.118139197E0,3.447558694E0,6.330461642E0
4.519112792E0,9.083621742E-1,-5.189975165E0,3.216265063E0,6.172951077E0
4.529097792E0,1.019169177E0,-5.496345876E0,3.081815355E0,6.383267947E0
4.539083792E0,1.171264027E0,-5.782203970E0,3.165156890E0,6.695069851E0
4.549068792E0,1.062242325E0,-6.069912123E0,3.551392965E0,7.112284017E0
4.559053792E0,8.978283421E-1,-6.474199723E0,4.018252205E0,7.672529476E0
4.569039792E0,7.849692594E-1,-6.694374290E0,4.311170812E0,8.001063531E0
4.579024792E0,7.334294155E-1,-7.007095077E0,4.157816471E0,8.180754118E0
4.589010792E0,5.343608855E-1,-7.512681010E0,3.617688112E0,8.355452399E0
4.598995792E0,1.602036224E-1,-7.745763305E0,2.894840695E0,8.270587466E0
4.608981792E0,-2.356158936E-1,-7.854663604E0,2.089309994E0,8.131203566E0
4.618966792E0,-6.093550077E-1,-7.979734962E0,1.382604985E0,8.121519570E0
4.628951792E0,-9.916561997E-1,-7.910281150E0,7.529522453E-1,8.007675504E0
4.638937792E0,-1.395012631E0,-7.684547051E0,9.638067886E-2,7.810737023E0
4.648922792E0,-1.568667919E0,-7.441214586E0,-2.635351789E-1,7.609326143E0
4.658908792E0,-1.675344813E0,-7.172667759E0,-2.062828977E-1,7.368615586E0
4.668893792E0,-1.838425412E0,-6.873138290E0,-1.654908210E-3,7.114762167E0
4.678878792E0,-1.996385604E0,-6.452025327E0,1.711854243E-1,6.755996651E0
4.688864792E0,-2.319187869E0,-6.014258909E0,4.055429971E-1,6.458669191E0
4.698849792E0,-3.019974033E0,-5.771126420E0,5.457516271E-1,6.536358937E0
4.708835792E0,-4.330261386E0,-5.675137358E0,2.391154522E-1,7.142515237E0
4.718820792E0,-5.923775001E0,-5.204896089E0,-3.746223360E-1,7.894453462E0
4.728805792E0,-7.149620374E0,-4.419726124E0,-1.144091504E0,8.482923781E0
4.738791792E0,-8.212027298E0,-3.738040767E0,-1.955348675E0,9.232211521E0
4.748776792E0,-9.170029848E0,-3.059490686E0,-2.590530542E0,1.000803573E1
4.758762792E0,-9.826451726E0,-2.274827090E0,-2.775743437E0,1.046129741E1
4.768747792E0,-1.040825904E1,-1.587720779E0,-2.611778447E0,1.084776936E1
4.778732792E0,-1.077852345E1,-1.105345368E0,-2.454532785E0,1.110959438E1
4.788718792E0,-1.068032414E1,-5.052573198E-1,-2.283769237E0,1.093344459E1
4.798703792E0,-1.022797652E1,1.388082218E-1,-1.754068948E0,1.037822380E1
4.808689792E0,-9.945179440E0,6.180699903E-1,-8.480672944E-1,1.000039113E1
4.818674792E0,-9.851827472E0,8.755123705E-1,1.521930832E-1,9.891824361E0
4.828660792E0,-9.807212048E0,1.138433592E0,1.080893189E0,9.932057656E0
4.838645792E0,-9.926588802E0,1.260673143E0,1.760363914E0,1.015998736E1
4.848630792E0,-1.022798470E1,1.201994580E0,2.046827779E0,1.049980790E1
4.858616792E0,-1.052252182E1,1.020587638E0,1.987787712E0,1.075715411E1
4.868601792E0,-1.071530335E1,5.430396885E-1,1.766939108E0,1.087357769E1
4.878587792E0,-1.087164620E1,1.697388232E-2,1.451215775E0,1.096809037E1
4.888572792E0,-1.070764350E1,-4.027094364E-1,1.137568789E0,1.077542885E1
4.898557792E0,-1.028175570E1,-9.393674737E-1,9.308296618E-1,1.036645336E1
4.908543792E0,-9.648251397E0,-1.534563156E0,7.138869976E-1,9.795574192E0
4.918528792E0,-8.862116641E0,-2.044838557E0,5.179391997E-1,9.109705654E0
4.928514792E0,-8.009411920E0,-2.569846601E0,3.682399540E-1,8.419643195E0
4.938499792E0,-7.065653772E0,-3.111435596E0,2.903977261E-1,7.725854356E0
4.948484792E0,-6.132708296E0,-3.556609266E0,2.487383612E-1,7.093761434E0
4.958470792E0,-5.360975817E0,-4.052635587E0,2.614779823E-1,6.725495346E0
4.968455792E0,-4.826561356E0,-4.433063623E0,3.697695856E-1,6.563876687E0
4.978441792E0,-4.328091484E0,-4.758015032E0,6.542057830E-1,6.465219884E0
4.988426792E0,-3.933782743E0,-5.088175725E0,9.708395272E-1,6.504360711E0
4.998411625E0,-3.886098407E0,-5.434083554E0,1.258323147E0,6.798117537E0
5.008397625E0,-3.779301352E0,-5.797130742E0,1.424501016E0,7.065341230E0
5.018382625E0,-3.484156417E0,-6.154240667E0,1.420983916E0,7.213405535E0
5.028368625E0,-3.076851654E0,-6.417662410E0,1.449344666E0,7.263195362E0
5.038353625E0,-2.642208819E0,-6.745877150E0,1.568767029E0,7.412769790E0
5.048338625E0,-2.246091533E0,-7.014533905E0,1.650316976E0,7.547990408E0
5.058324625E0,-1.887829268E0,-7.177581174E0,1.781151350E0,7.632435456E0
5.068309625E0,-1.724215842E0,-7.368235488E0,1.978164511E0,7.821569491E0
5.078295625E0,-1.748634399E0,-7.534623857E0,2.149052312E0,8.027870500E0
5.088280625E0,-1.904515175E0,-7.624205539E0,2.321063363E0,8.194084652E0
5.098265625E0,-1.918311827E0,-7.711700351E0,2.408585656E0,8.303705644E0
5.108251625E0,-1.642446770E0,-7.866875514E0,2.475322852E0,8.409077534E0
5.118236625E0,-1.482077233E0,-7.930328913E0,2.517216983E0,8.451215944E0
5.128222625E0,-1.369709974E0,-8.001156237E0,2.503918660E0,8.494952336E0
5.138207625E0,-9.560965039E-1,-8.116318318E0,2.434851495E0,8.527440728E0
5.148193625E0,-6.933502606E-1,-8.132112817E0,2.269475133E0,8.471275632E0
5.158178625E0,-5.183293551E-1,-8.000584964E0,2.130699217E0,8.295655745E0
5.168163625E0,7.610151172E-4,-7.721544723E0,2.221575328E0,8.034777559E0
5.178149625E0,3.766492733E-1,-7.436519857E0,2.598864579E0,7.886557510E0
5.188134625E0,5.886082095E-1,-7.157892430E0,3.069740270E0,7.810581860E0
5.198120625E0,1.425671336E0,-6.791477830E0,3.222992869E0,7.651430776E0
5.208105625E0,2.900900164E0,-6.186765804E0,3.118852789E0,7.511227303E0
5.218090625E0,4.123822514E0,-5.480848415E0,3.168462905E0,7.555446291E0
5.228076625E0,4.958634170E0,-4.638860471E0,3.484055845E0,7.631888655E0
5.238061625E0,6.005206250E0,-3.796904687E0,3.704444420E0,8.012608549E0
5.248047625E0,7.433390427E0,-3.122621904E0,3.692481309E0,8.867946719E0
5.258032625E0,9.128784174E0,-2.458852415E0,3.551638841E0,1.009924721E1
5.268017625E0,1.098840106E1,-1.791419061E0,3.338574781E0,1.162326210E1
5.278003625E0,1.261153200E1,-9.703103542E-1,3.034158794E0,1.300762703E1
5.287988625E0,1.398109024E1,-2.383968294E-1,2.586050113E0,1.422024516E1
5.297974625E0,1.513771627E1,1.513031369E-1,2.105757481E0,1.528422589E1
5.307959625E0,1.592425799E1,4.189278585E-1,1.885064558E0,1.604091523E1
5.317944625E0,1.646925825E1,6.811409819E-1,1.818896297E0,1.658338940E1
5.327930625E0,1.698354192E1,7.145560652E-1,1.658622361E0,1.707929491E1
5.337915625E0,1.725297811E1,4.987774354E-1,1.261204948E0,1.730620323E1
5.347901625E0,1.725471239E1,3.348092294E-1,6.429384908E-1,1.726993245E1
5.357886625E0,1.700004861E1,1.454097283E-1,1.347330049E-1,1.700120436E1
5.367871625E0,1.647230114E1,-2.157078785E-1,9.584229648E-2,1.647399225E1
5.377857625E0,1.573893400E1,-7.020120335E-1,3.267523509E-1,1.575797041E1
5.387842625E0,1.452840365E1,-1.232953248E0,5.840280855E-1,1.459231905E1
5.397828625E0,1.324138705E1,-1.852372191E0,9.591629300E-1,1.340468602E1
5.407813625E0,1.190871188E1,-2.600785974E0,1.177191276E0,1.224611308E1
5.417799625E0,1.044357856E1,-3.242345983E0,1.196903994E0,1.100062361E1
5.427784625E0,9.236829609E0,-3.769595266E0,1.277269003E0,1.005784698E1
5.437769625E0,8.248341431E0,-4.369744125E0,1.517047091E0,9.456808762E0
5.447755625E0,7.401333067E0,-4.686238706E0,1.903926507E0,8.964680726E0
5.457740625E0,6.764650805E0,-4.895348001E0,2.501972122E0,8.716925895E0
5.467726625E0,6.161034547E0,-5.261819319E0,3.177612336E0,8.703005767E0
5.477711625E0,5.688449714E0,-5.502026446E0,3.691056342E0,8.732390972E0
5.487696625E0,5.410122249E0,-5.599750376E0,4.024544393E0,8.764906423E0
5.497682625E0,5.026650152E0,-5.763749573E0,4.414689333E0,8.830487121E0
5.507667625E0,4.446116655E0,-6.123406545E0,4.919113424E0,9.025615653E0
5.517653625E0,3.637280377E0,-6.799500795E0,5.275662017E0,9.343213008E0
5.527638625E0,2.808759740E0,-7.276452329E0,5.242192554E0,9.397684425E0
5.537623625E0,2.240300305E0,-7.503988540E0,4.878933697E0,9.226742842E0
5.547609625E0,1.859349235E0,-7.859902124E0,4.467266327E0,9.229935504E0
5.557594625E0,1.461356893E0,-8.177444526E0,4.174753516E0,9.297028013E0
5.567580625E0,1.114943938E0,-8.405544409E0,4.008116641E0,9.378767286E0
5.577565625E0,7.564792127E-1,-8.548649749E0,3.975515490E0,9.458139180E0
5.587550625E0,3.350350781E-1,-8.714925267E0,4.015757782E0,9.601483295E0
5.597536625E0,-3.167594594E-1,-8.920422152E0,4.194299004E0,9.862373551E0
5.607521625E0,-6.563582893E-1,-8.846834359E0,4.376476024E0,9.891957681E0
5.617507625E0,-4.574282652E-1,-8.562750894E0,4.428622078E0,9.651043312E0
5.627492625E0,-1.469960779E-1,-8.144041137E0,4.329091358E0,9.224318180E0
5.637477625E0,-4.240663916E-1,-8.115877438E0,4.328902493E0,9.207969140E0
5.647463625E0,-1.216954097E0,-8.018596727E0,4.293660740E0,9.176840049E0
5.657448625E0,-2.057826100E0,-7.602564994E0,4.145781732E0,8.900626322E0
5.667434625E0,-2.798167216E0,-7.275605067E0,4.026559344E0,8.773673633E0
5.677419625E0,-3.522047544E0,-7.032993565E0,3.599636880E0,8.650156244E0
5.687405625E0,-4.192253648E0,-6.612945964E0,2.773550146E0,8.306541121E0
5.697390625E0,-4.743924996E0,-6.055830858E0,1.737675401E0,7.886534572E0
5.707375625E0,-5.826104865E0,-5.508191750E0,9.609922314E-1,8.075096304E0
5.717361625E0,-7.807910437E0,-4.979716306E0,7.760512322E-1,9.293185428E0
5.727346625E0,-1.021021384E1,-4.413668994E0,6.283996814E-1,1.114108733E1
5.737332625E0,-1.243664178E1,-3.897781436E0,3.379567856E-1,1.303752176E1
5.747317625E0,-1.442340871E1,-3.278111063E0,3.109607756E-2,1.479127101E1
5.757302625E0,-1.582865952E1,-2.457346757E0,-3.021846896E-1,1.602112140E1
5.767288625E0,-1.652843090E1,-1.843035357E0,-6.956847614E-1,1.664541333E1
5.777273625E0,-1.672265787E1,-1.469533932E0,-1.445593239E0,1.684923013E1
5.787259625E0,-1.631126531E1,-1.341128492E0,-2.383717010E0,1.653898753E1
5.797244625E0,-1.550300820E1,-1.267171739E0,-2.857808524E0,1.581505792E1
5.807229625E0,-1.465135774E1,-1.166775046E0,-2.640301457E0,1.493301173E1
5.817215625E0,-1.387074626E1,-1.108017545E0,-1.850108295E0,1.403738599E1
5.827200625E0,-1.315565517E1,-1.081548954E0,-8.486597635E-1,1.322729128E1
5.837186625E0,-1.229288798E1,-1.111062191E0,-1.206280589E-1,1.234358559E1
5.847171625E0,-1.134833461E1,-1.225315615E0,2.480891740E-1,1.141698932E1
5.857157625E0,-1.051682078E1,-1.529983032E0,3.521805762E-1,1.063336253E1
5.867142625E0,-9.777211738E0,-1.964871451E0,1.980482639E-1,9.974658506E0
5.877127625E0,-9.045593498E0,-2.315605572E0,-1.689914028E-1,9.338808756E0
5.887113625E0,-8.364837847E0,-2.603028381E0,-4.932496239E-1,8.774369730E0
5.897098625E0,-7.690032908E0,-3.016220121E0,-6.260784830E-1,8.284091031E0
5.907084625E0,-7.001002863E0,-3.407461998E0,-7.278976572E-1,7.820145354E0
5.917069625E0,-6.409910172E0,-3.655219635E0,-8.004803876E-1,7.422152507E0
5.927054625E0,-5.958081785E0,-3.994299086E0,-6.526680384E-1,7.202717495E0
5.937040625E0,-5.771627526E0,-4.412190818E0,-3.885101310E-1,7.275304271E0
5.947025625E0,-5.844232403E0,-4.768113758E0,-6.674947500E-2,7.542838768E0
5.957011625E0,-5.758996371E0,-5.165137362E0,3.115378227E-1,7.742205047E0
5.966996625E0,-5.490294592E0,-5.614881216E0,7.588562521E-1,7.889619040E0
5.976981625E0,-5.100892249E0,-5.988037655E0,1.199841051E0,7.957092135E0
5.986967625E0,-4.622638541E0,-6.316569899E0,1.546193853E0,7.978631323E0
5.996952625E0,-4.134692195E0,-6.696851755E0,1.840124613E0,8.082670448E0
6.006939292E0,-3.711767473E0,-7.160405563E0,2.158637068E0,8.349152028E0
6.016924292E0,-3.386099195E0,-7.410237792E0,2.461593590E0,8.510977317E0
6.026909292E0,-2.988032741E0,-7.704332274E0,2.805823268E0,8.726839042E0
6.036895292E0,-2.392473507E0,-7.997712227E0,3.023636729E0,8.878609655E0
6.046880292E0,-1.738251791E0,-8.118460153E0,3.129475425E0,8.872684542E0
6.056866292E0,-1.327048543E0,-8.156726087E0,3.227287064E0,8.871787874E0
6.066851292E0,-1.192032386E0,-8.211576478E0,3.410849875E0,8.971333587E0
6.076836292E0,-1.006595251E0,-8.320560392E0,3.543498639E0,9.099524264E0
6.086822292E0,-6.118750115E-1,-8.490889784E0,3.591257527E0,9.239411831E0
6.096807292E0,-3.083175418E-1,-8.495936515E0,3.584430318E0,9.226274312E0
6.106793292E0,1.995078751E-1,-8.391187740E0,3.377637690E0,9.047666630E0
6.116778292E0,1.035276721E0,-8.119330219E0,3.015426654E0,8.722850394E0
6.126763292E0,1.731449432E0,-7.700164379E0,2.882745729E0,8.402420576E0
6.136749292E0,2.097444786E0,-7.355189180E0,3.003181999E0,8.216884119E0
6.146734292E0,2.537074712E0,-7.050300738E0,3.097035658E0,8.107719683E0
6.156720292E0,3.072557459E0,-6.570050790E0,3.189335126E0,7.923259132E0
6.166705292E0,3.433338558E0,-5.878564914E0,3.427889538E0,7.622057845E0
6.176691292E0,3.878588243E0,-5.261884223E0,3.745507076E0,7.533903078E0
6.186676292E0,4.810013151E0,-4.634507804E0,3.934025987E0,7.751867489E0
6.196661292E0,5.687104270E0,-4.008452856E0,3.845919557E0,7.949965189E0
6.206647292E0,6.248679047E0,-3.519014009E0,3.706465217E0,8.072628682E0
6.216632292E0,6.896366354E0,-2.892364984E0,3.685521368E0,8.337188486E0
6.226618292E0,7.665078746E0,-2.365813274E0,3.488474586E0,8.747568780E0
6.236603292E0,8.472764584E0,-1.993277224E0,3.090028939E0,9.236296479E0
6.246588292E0,9.319443165E0,-1.609124511E0,2.631399656E0,9.816596495E0
6.256574292E0,1.053616103E1,-1.163122290E0,2.235866507E0,1.083340398E1
6.266559292E0,1.236264409E1,-4.642268229E-1,1.975319256E0,1.252806297E1
6.276545292E0,1.449186206E1,2.330928200E-1,1.708726860E0,1.459411340E1
6.286530292E0,1.609009672E1,7.421151620E-1,1.343303948E0,1.616311891E1
6.296515292E0,1.703690127E1,9.884250283E-1,1.067175329E0,1.709888453E1
6.306501292E0,1.754180366E1,1.094234489E0,1.112171407E0,1.761105193E1
6.316486292E0,1.758522859E1,9.989628804E-1,1.393316353E0,1.766860272E1
6.326472292E0,1.703412501E1,9.668224901E-1,1.554626123E0,1.713222178E1
6.336457292E0,1.605278681E1,7.495914119E-1,1.517195756E0,1.614173889E1
6.346442292E0,1.511194174E1,3.052527237E-1,1.262475840E0,1.516765663E1
6.356428292E0,1.406756354E1,-2.014237154E-1,1.092470384E0,1.411135737E1
6.366413292E0,1.286859548E1,-8.162017232E-1,1.169495171E0,1.294738019E1
6.376399292E0,1.160978233E1,-1.355824299E0,1.445791605E0,1.177775950E1
6.386384292E0,1.051219213E1,-1.874809712E0,1.764343529E0,1.082284634E1
6.396370292E0,9.459365281E0,-2.288496126E0,2.125283380E0,9.961608078E0
6.406355292E0,8.478319439E0,-2.666812733E0,2.575311994E0,9.253433013E0
6.416340292E0,7.690996529E0,-3.074374189E0,3.072290826E0,8.834148243E0
6.426326292E0,7.075785828E0,-3.517938706E0,3.559721447E0,8.666848020E0
6.436311292E0,6.480579035E0,-4.171034687E0,4.068353487E0,8.714753874E0
6.446297292E0,5.906868362E0,-4.737718762E0,4.335526804E0,8.725472226E0
6.456282292E0,5.385659253E0,-5.294712245E0,4.541086255E0,8.812534694E0
6.466267292E0,4.630488136E0,-6.128027015E0,4.755403665E0,9.033714601E0
6.476253292E0,3.631864686E0,-6.749267950E0,4.743479438E0,9.013526288E0
6.486238292E0,2.736355715E0,-7.302022203E0,4.671304917E0,9.090008827E0
6.496224292E0,2.070206848E0,-7.956689916E0,4.503328737E0,9.374147456E0
6.506209292E0,1.703448578E0,-8.590515229E0,4.194965587E0,9.710634646E0
6.516194292E0,1.370508119E0,-9.145862136E0,3.866724535E0,1.002380394E1
6.526180292E0,7.935308987E-1,-9.605170866E0,3.562002738E0,1.027506020E1
6.536165292E0,3.573962925E-1,-9.913576409E0,3.213893432E0,1.042764788E1
6.546151292E0,2.060843482E-1,-1.008827484E1,2.808498369E0,1.047394019E1
6.556136292E0,1.491344047E-1,-1.036875291E1,2.364393570E0,1.063595952E1
6.566121292E0,-1.613568395E-2,-1.060527045E1,1.760519450E0,1.075041629E1
6.576107292E0,-3.511890346E-1,-1.057067247E1,1.237495365E0,1.064865461E1
6.586092292E0,-8.574941754E-1,-1.025833409E1,1.048857829E0,1.034740631E1
6.596078292E0,-1.404940033E0,-9.902767246E0,1.106776255E0,1.006298213E1
6.606063292E0,-1.638046302E0,-9.553489666E0,1.196069012E0,9.766419076E0
6.616049292E0,-1.743761914E0,-8.889613173E0,1.010095394E0,9.115164326E0
6.626034292E0,-1.932389875E0,-8.091357724E0,9.291507069E-1,8.370634473E0
6.636019292E0,-2.041977222E0,-7.496600583E0,1.045314928E0,7.839730516E0
6.646005292E0,-2.473385085E0,-7.127719043E0,1.227818223E0,7.643922430E0
6.655990292E0,-3.534195719E0,-6.504070224E0,1.507104047E0,7.554126784E0
6.665976292E0,-5.001432281E0,-5.694900947E0,1.811957698E0,7.792907824E0
6.675961292E0,-6.972425766E0,-5.003110431E0,2.127217201E0,8.841430205E0
6.685946292E0,-9.202485988E0,-4.315233457E0,2.168631567E0,1.039278360E1
6.695932292E0,-1.097283695E1,-3.359927058E0,1.869253541E0,1.162696733E1
6.705917292E0,-1.213663985E1,-2.401693543E0,1.063536899E0,1.241761932E1
6.715903292E0,-1.271085865E1,-1.341355364E0,-9.428839892E-2,1.278178595E1
6.725888292E0,-1.277037863E1,-2.776708227E-1,-8.369657707E-1,1.280078838E1
6.735873292E0,-1.310787407E1,5.219552135E-1,-8.697809297E-1,1.314706502E1
6.745859292E0,-1.367362726E1,1.141398715E0,-6.788596907E-1,1.373796652E1
6.755844292E0,-1.405173863E1,1.768681578E0,-4.323184209E-1,1.416920931E1
6.765830292E0,-1.408518003E1,2.125783902E0,-1.637594604E-1,1.424563340E1
6.775815292E0,-1.370682425E1,2.319621440E0,1.250671189E-1,1.390227738E1
6.785800292E0,-1.306295576E1,2.539809455E0,5.664519399E-1,1.331962135E1
6.795786292E0,-1.235226178E1,2.594408416E0,1.128920172E0,1.267216583E1
6.805771292E0,-1.183090298E1,2.454379880E0,1.604200279E0,1.218883524E1
6.815757292E0,-1.126831546E1,2.158068718E0,1.810567523E0,1.161509142E1
6.825742292E0,-1.061699996E1,1.602857466E0,1.796345925E0,1.088653751E1
6.835728292E0,-9.931912107E0,9.965187442E-1,1.714735166E0,1.012799311E1
6.845713292E0,-9.224517712E0,3.264763623E-1,1.584508318E0,9.365307280E0
6.855698292E0,-8.476657076E0,-4.140559584E-1,1.371216363E0,8.596824520E0
6.865684292E0,-7.699017155E0,-1.114572274E0,1.027389412E0,7.846825187E0
6.875669292E0,-7.063593214E0,-1.758015672E0,7.760909933E-1,7.320333696E0
6.885655292E0,-6.509298220E0,-2.401384810E0,6.283990967E-1,6.966526950E0
6.895640292E0,-6.030826410E0,-3.124811102E0,5.369429429E-1,6.813488044E0
6.905625292E0,-5.694473516E0,-3.812933659E0,5.456446230E-1,6.874825072E0
6.915611292E0,-5.330843945E0,-4.412645146E0,5.599435504E-1,6.942828756E0
6.925596292E0,-5.049201694E0,-5.034521674E0,6.113591409E-1,7.156438096E0
6.935582292E0,-4.921830041E0,-5.611524330E0,6.572866809E-1,7.493039573E0
6.945567292E0,-4.789332426E0,-6.173421873E0,7.360621244E-1,7.847969812E0
6.955552292E0,-4.546710399E0,-6.709635522E0,7.929987290E-1,8.143747987E0
6.965538292E0,-4.312040293E0,-7.155944138E0,7.707384521E-1,8.390188660E0
6.975523292E0,-4.151502648E0,-7.558112707E0,8.151475433E-1,8.661668860E0
6.985509292E0,-4.014892687E0,-8.000292018E0,9.569156257E-1,9.002206573E0
6.995494292E0,-3.772506595E0,-8.406550714E0,1.233657984E0,9.296440875E0
7.005479750E0,-3.403712763E0,-8.603063353E0,1.495083341E0,9.371938638E0
7.015464750E0,-3.035481434E0,-8.771792362E0,1.815054091E0,9.457954860E0
7.025449750E0,-2.836962323E0,-9.170726252E0,2.035251316E0,9.812890661E0
7.035435750E0,-2.789611863E0,-9.564067864E0,2.126563920E0,1.018703110E1
7.045420750E0,-2.309143229E0,-9.528246067E0,2.341797005E0,1.007986254E1
7.055406750E0,-1.645834647E0,-9.510061811E0,2.673463356E0,1.001486164E1
7.065391750E0,-1.241549678E0,-9.641268067E0,2.927377526E0,1.015209509E1
7.075376750E0,-1.153007192E0,-9.636741153E0,3.035327067E0,1.016904204E1
7.085362750E0,-1.044294297E0,-9.634573590E0,2.957436892E0,1.013222541E1
7.095347750E0,-7.049932364E-1,-9.679843318E0,2.600462623E0,1.004782504E1
7.105333750E0,-6.023684621E-2,-9.556223824E0,2.222952785E0,9.811552443E0
7.115318750E0,1.142091610E0,-8.867994263E0,2.441172774E0,9.268496102E0
7.125303750E0,2.338918128E0,-8.126615850E0,3.033003969E0,8.983959943E0
7.135289750E0,3.546077846E0,-7.476944582E0,3.703382858E0,9.066113444E0
7.145274750E0,5.395138759E0,-6.581441166E0,4.175512193E0,9.479335004E0
7.155260750E0,7.709719899E0,-5.635026044E0,4.302583883E0,1.047404065E1
7.165245750E0,9.974509073E0,-4.349144384E0,4.453272185E0,1.175744536E1
7.175230750E0,1.192129626E1,-2.993567423E0,4.664054369E0,1.314656432E1
7.185216750E0,1.326528462E1,-2.195799047E0,4.499074303E0,1.417853939E1
7.195201750E0,1.451716531E1,-1.504476308E0,4.012261147E0,1.513637265E1
7.205187750E0,1.594566816E1,-3.346431684E-1,3.214294551E0,1.626984968E1
7.215172750E0,1.737370323E1,4.414425623E-1,2.380455871E0,1.754157934E1
7.225158750E0,1.828082740E1,8.669684190E-1,1.857438219E0,1.839538968E1
7.235143750E0,1.829801705E1,1.298192972E0,1.593520632E0,1.841309428E1
7.245128750E0,1.791030455E1,1.568375266E0,1.524113013E0,1.804332925E1
7.255114750E0,1.754686033E1,1.454670310E0,1.629847044E0,1.768232945E1
7.265099750E0,1.733041863E1,1.289147329E0,1.608168492E0,1.745255043E1
7.275085750E0,1.696717673E1,1.207344198E0,1.454738722E0,1.707217124E1
7.285070750E0,1.628517036E1,7.445715773E-1,1.480709423E0,1.636929018E1
7.295055750E0,1.518942671E1,-3.969791651E-2,1.653416585E0,1.527920305E1
7.305041750E0,1.373697132E1,-7.861411875E-1,1.720266632E0,1.386656830E1
7.315026750E0,1.208623335E1,-1.510487246E0,1.669750782E0,1.229417244E1
7.325012750E0,1.043010891E1,-2.406815704E0,1.679446051E0,1.083514988E1
7.334997750E0,8.880330718E0,-3.222985852E0,1.616676775E0,9.584443399E0
7.344982750E0,7.646121488E0,-3.714805686E0,1.524493666E0,8.636378641E0
7.354968750E0,6.596127033E0,-4.102597706E0,1.567823581E0,7.924535984E0
7.364953750E0,5.559879967E0,-4.527398508E0,1.793315313E0,7.390912143E0
7.374939750E0,4.813408922E0,-4.897039601E0,2.095034564E0,7.179071815E0
7.384924750E0,4.348960197E0,-5.243571913E0,2.343672792E0,7.204255919E0
7.394909750E0,4.162078799E0,-5.504600390E0,2.801925807E0,7.448108056E0
7.404895750E0,4.066627682E0,-5.871935926E0,3.381452998E0,7.902614542E0
7.414880750E0,3.897242615E0,-6.485355626E0,3.874720017E0,8.500693666E0
7.424866750E0,3.464833708E0,-7.292638006E0,4.253117316E0,9.125604014E0
7.434851750E0,2.609617316E0,-8.191809965E0,4.253649412E0,9.592152332E0
7.444837750E0,1.609302267E0,-8.714374459E0,3.831792099E0,9.654677969E0
7.454822750E0,1.020653565E0,-9.018479374E0,3.224187455E0,9.631723037E0
7.464807750E0,4.266974925E-1,-9.558417115E0,2.646883083E0,9.927305704E0
7.474793750E0,-3.376380392E-1,-9.736630307E0,1.811657005E0,9.909493947E0
7.484778750E0,-9.415938011E-1,-9.569877657E0,8.839832318E-1,9.656634176E0
7.494764750E0,-1.185551771E0,-9.371772237E0,2.485054958E-1,9.449730305E0
7.504749750E0,-1.274008157E0,-9.228472769E0,-1.903502584E-2,9.316016786E0
7.514734750E0,-1.356744358E0,-9.027385268E0,9.572476745E-2,9.129271782E0
7.524720750E0,-1.398039296E0,-8.896571944E0,4.682730961E-1,9.017914722E0
7.534705750E0,-1.657178684E0,-8.587293997E0,7.667629302E-1,8.779281564E0
7.544691750E0,-2.034317662E0,-8.105296901E0,9.201931380E-1,8.407201771E0
7.554676750E0,-2.579027607E0,-7.832572823E0,1.108981605E0,8.320481995E0
7.564661750E0,-3.470125731E0,-7.357504093E0,9.304748820E-1,8.187821601E0
7.574647750E0,-4.199438707E0,-6.667503995E0,5.955435920E-1,7.902250764E0
7.584632750E0,-4.770248576E0,-5.767922146E0,2.061558670E-1,7.487769868E0
7.594618750E0,-5.180382807E0,-5.000174544E0,1.083682019E-1,7.200684354E0
7.604603750E0,-5.699905579E0,-4.315253338E0,4.414384693E-1,7.162765032E0
7.614588750E0,-6.742389870E0,-3.364635236E0,8.976566532E-1,7.588568963E0
7.624574750E0,-7.906937712E0,-2.302432380E0,1.288312932E0,8.335502927E0
7.634559750E0,-8.847181098E0,-1.339162658E0,1.424098435E0,9.060575388E0
7.644545750E0,-9.634561896E0,-5.307716453E-1,1.213666207E0,9.725198565E0
7.654530750E0,-1.023381438E1,1.499436593E-1,7.753258851E-1,1.026423743E1
7.664516750E0,-1.076196413E1,8.349894118E-1,3.728053138E-1,1.080074363E1
7.674501750E0,-1.130959330E1,1.268186231E0,9.450971603E-2,1.138086679E1
7.684486750E0,-1.175460617E1,1.464593035E0,-1.103267267E-1,1.184601076E1
7.694472750E0,-1.203660803E1,1.703560553E0,-2.679574281E-1,1.215951695E1
7.704457750E0,-1.199530329E1,1.866652846E0,-1.066008809E-1,1.214014241E1
7.714443750E0,-1.188059496E1,1.848250489E0,3.516825396E-1,1.202864277E1
7.724428750E0,-1.170819331E1,1.769783778E0,9.414704248E-1,1.187856438E1
7.734413750E0,-1.142977697E1,1.649935153E0,1.510320308E0,1.164659414E1
7.744399750E0,-1.125549252E1,1.487190185E0,1.902439852E0,1.151160822E1
7.754384750E0,-1.091134295E1,1.252685262E0,1.992363012E0,1.116226391E1
7.764370750E0,-1.040285621E1,9.353562838E-1,1.827758921E0,1.060353768E1
7.774355750E0,-9.697208380E0,4.671463376E-1,1.547250153E0,9.830974473E0
7.784340750E0,-8.937809433E0,-2.575640023E-2,1.208036216E0,9.019115940E0
7.794326750E0,-8.256210029E0,-4.889365715E-1,1.002688434E0,8.331233229E0
7.804311750E0,-7.573626539E0,-9.297376943E-1,1.013344984E0,7.697473559E0
7.814297750E0,-7.010358993E0,-1.457016213E0,1.199617541E0,7.259966370E0
7.824282750E0,-6.532701116E0,-1.894020739E0,1.386782674E0,6.941661517E0
7.834267750E0,-6.014919645E0,-2.323716245E0,1.571898652E0,6.637000896E0
7.844253750E0,-5.509764651E0,-2.857695088E0,1.677532257E0,6.429466712E0
7.854238750E0,-5.010399570E0,-3.391829467E0,1.682080806E0,6.279968696E0
7.864224750E0,-4.507348990E0,-3.875000684E0,1.620082486E0,6.160884066E0
7.874209750E0,-4.109058587E0,-4.378023198E0,1.576781369E0,6.207873152E0
7.884195750E0,-3.828223543E0,-4.908634045E0,1.565388508E0,6.418755710E0
7.894180750E0,-3.594236099E0,-5.363197759E0,1.559692735E0,6.641917251E0
7.904165750E0,-3.334489624E0,-5.737012010E0,1.565831727E0,6.817914406E0
7.914151750E0,-2.985473999E0,-6.100469087E0,1.612915846E0,6.980707386E0
7.924136750E0,-2.558043412E0,-6.380096388E0,1.745039970E0,7.091853109E0
7.934122750E0,-2.141243355E0,-6.537806904E0,1.947813807E0,7.149952507E0
7.944107750E0,-1.748793736E0,-6.745542689E0,2.241230743E0,7.320091594E0
7.954092750E0,-1.408587673E0,-7.022435247E0,2.617790262E0,7.625715828E0
7.964078750E0,-1.186816816E0,-7.269694117E0,2.885069997E0,7.910791085E0
7.974063750E0,-1.099512259E0,-7.380237483E0,2.869532776E0,7.994438746E0
7.984049750E0,-9.528178239E-1,-7.260167833E0,2.713368849E0,7.808986444E0
7.994034750E0,-7.260338572E-1,-7.331231384E0,2.607740067E0,7.815010366E0
8.004019625E0,-7.730893251E-1,-7.458908846E0,2.442762047E0,7.886702397E0
8.014005625E0,-9.753673187E-1,-7.587891406E0,2.174422942E0,7.953335937E0
8.023990625E0,-9.925449765E-1,-7.556636285E0,1.829710137E0,7.838095218E0
8.033976625E0,-8.068309754E-1,-7.379902437E0,1.480999737E0,7.570158283E0
8.043961625E0,-3.835519114E-1,-7.228315126E0,1.292044479E0,7.352892666E0
8.053947625E0,2.390473321E-1,-7.077879716E0,1.066499244E0,7.161769721E0
8.063932625E0,8.225705105E-1,-6.920884314E0,9.645221955E-1,7.036019116E0
8.073917625E0,1.219323388E0,-6.549491980E0,1.011958317E0,6.738445990E0
8.083903625E0,1.599267860E0,-6.054239831E0,1.164687882E0,6.369299450E0
8.093888625E0,2.216342654E0,-5.604361491E0,1.381736820E0,6.183060659E0
8.103874625E0,3.336928790E0,-5.074028971E0,1.693518252E0,6.304670318E0
8.113859625E0,4.354631996E0,-4.485821881E0,2.188420445E0,6.623790592E0
8.123844625E0,5.311946329E0,-3.746047359E0,2.824828766E0,7.087263377E0
8.133830625E0,6.846760916E0,-2.957219961E0,3.196583335E0,8.114273224E0
8.143815625E0,8.516610516E0,-2.451551582E0,3.124599432E0,9.397120913E0
8.153801625E0,1.007771945E1,-1.891880658E0,2.756049430E0,1.061769514E1
8.163786625E0,1.145457384E1,-1.236478534E0,2.363340486E0,1.176101693E1
8.173771625E0,1.284271804E1,-4.847411942E-1,1.925812635E0,1.299535051E1
8.183757625E0,1.411908803E1,1.316950840E-1,1.591137891E0,1.420907141E1
8.193742625E0,1.501881314E1,3.732961875E-1,1.525412849E0,1.510069477E1
8.203728625E0,1.540651745E1,5.386390740E-1,1.521680863E0,1.549084971E1
8.213713625E0,1.558311857E1,7.502141404E-1,1.474497926E0,1.567069078E1
8.223698625E0,1.571436634E1,6.992147255E-1,1.493991373E0,1.580070318E1
8.233684625E0,1.569237964E1,6.588964194E-1,1.462179012E0,1.577412092E1
8.243669625E0,1.531017288E1,4.375278515E-1,1.470184143E0,1.538682117E1
8.253655625E0,1.453900115E1,-8.640196681E-2,1.354878219E0,1.460225033E1
8.263640625E0,1.352572545E1,-7.247845995E-1,1.282448467E0,1.360570600E1
8.273626625E0,1.216326807E1,-1.275926190E0,1.353217902E0,1.230464451E1
8.283611625E0,1.077162607E1,-1.648420140E0,1.297690696E0,1.097402471E1
8.293596625E0,9.653963542E0,-2.212447239E0,1.392677545E0,1.000167414E1
8.303582625E0,8.771027547E0,-2.763284190E0,1.439616069E0,9.308015801E0
8.313567625E0,7.954312438E0,-3.333775386E0,1.432964861E0,8.742913300E0
8.323553625E0,7.119238241E0,-3.700219222E0,1.512515060E0,8.164733752E0
8.333538625E0,6.396667982E0,-3.992205783E0,1.873753120E0,7.769557197E0
8.343523625E0,5.746747624E0,-4.425876226E0,2.394193027E0,7.638432357E0
8.353509625E0,5.131235790E0,-4.815854520E0,2.844623930E0,7.590383442E0
8.363494625E0,4.577279350E0,-5.094767291E0,3.219587158E0,7.567950942E0
8.373480625E0,4.070926555E0,-5.492866783E0,3.516667813E0,7.688366602E0
8.383465625E0,3.379133700E0,-6.151460901E0,3.847097771E0,8.003697710E0
8.393450625E0,2.631403164E0,-6.556385847E0,4.090144306E0,8.163317857E0
8.403436625E0,2.075713317E0,-6.859023111E0,4.168636744E0,8.290495529E0
8.413421625E0,1.714129395E0,-7.368873419E0,4.102325810E0,8.606254243E0
8.423407625E0,1.423429514E0,-7.886395274E0,3.758161620E0,8.851280176E0
8.433392625E0,1.181189163E0,-8.220962428E0,3.238751115E0,8.914535315E0
8.443378625E0,8.817702068E-1,-8.478245764E0,2.764074149E0,8.960930523E0
8.453363625E0,6.150722690E-1,-8.546328989E0,2.415715751E0,8.902456722E0
8.463348625E0,4.337361514E-1,-8.555899712E0,2.192543902E0,8.843008294E0
8.473334625E0,2.233353520E-1,-8.758342597E0,2.138385967E0,9.018377807E0
8.483319625E0,-3.585604001E-1,-8.864219300E0,1.968360484E0,9.087210373E0
8.493305625E0,-1.025990611E0,-8.566646894E0,1.517475253E0,8.760298333E0
8.503290625E0,-1.477398876E0,-8.263253000E0,1.157435800E0,8.473707289E0
8.513275625E0,-2.103124187E0,-8.111348770E0,1.059269235E0,8.446251330E0
8.523261625E0,-2.879872992E0,-7.799836602E0,9.089712348E-1,8.364050942E0
8.533246625E0,-3.698963825E0,-7.385561957E0,9.101704987E-1,8.310070345E0
8.543232625E0,-4.782821552E0,-7.077079232E0,1.145209930E0,8.618116861E0
8.553217625E0,-5.873723420E0,-6.616541417E0,1.223022922E0,8.931686974E0
8.563202625E0,-6.943003746E0,-5.902617436E0,1.009858582E0,9.168751713E0
8.573188625E0,-7.811447418E0,-5.256486658E0,5.003439045E-1,9.428664103E0
8.583173625E0,-8.355514462E0,-4.604827337E0,-1.513487452E-1,9.541591229E0
8.593159625E0,-8.944540747E0,-3.682058939E0,-5.576431096E-1,9.688825164E0
8.603144625E0,-9.549795395E0,-2.804444495E0,-6.771895798E-1,9.976075718E0
8.613130625E0,-1.005213671E1,-1.978255727E0,-5.578167719E-1,1.026012221E1
8.623115625E0,-1.049704784E1,-1.125244027E0,-5.291895349E-1,1.057044129E1
8.633100625E0,-1.068345824E1,-3.563573885E-1,-7.035324557E-1,1.071252671E1
8.643086625E0,-1.073591712E1,4.273396629E-1,-1.064018563E0,1.079697509E1
8.653071625E0,-1.081105618E1,1.147316097E0,-1.439401622E0,1.096663791E1
8.663057625E0,-1.106664967E1,1.659233395E0,-1.624031695E0,1.130757575E1
8.673042625E0,-1.141129860E1,2.169096567E0,-1.680577633E0,1.173656921E1
8.683027625E0,-1.172922224E1,2.507335188E0,-1.477864460E0,1.208492728E1
8.693013625E0,-1.184225476E1,2.454538924E0,-1.205115385E0,1.215384969E1
8.702998625E0,-1.172342180E1,2.329907277E0,-9.605957901E-1,1.199123976E1
8.712984625E0,-1.157459964E1,2.215892419E0,-4.370801009E-1,1.179290359E1
8.722969625E0,-1.140089991E1,1.899610092E0,3.443951547E-1,1.156320221E1
8.732954625E0,-1.116004959E1,1.482746301E0,1.148940454E0,1.131659435E1
8.742940625E0,-1.087155265E1,9.575528991E-1,1.951903350E0,1.108681610E1
8.752925625E0,-1.040026590E1,3.455300993E-1,2.580534142E0,1.072119761E1
8.762911625E0,-9.652797607E0,-3.286801779E-1,2.825623110E0,1.006323399E1
8.772896625E0,-8.799229252E0,-1.018689632E0,2.630744768E0,9.240399452E0
8.782882625E0,-8.007279441E0,-1.707354811E0,2.203692203E0,8.478669932E0
8.792867625E0,-7.118212640E0,-2.363170917E0,1.844297186E0,7.723662349E0
8.802852625E0,-6.233497921E0,-3.165529942E0,1.508840670E0,7.152179830E0
8.812838625E0,-5.556762232E0,-3.915271043E0,1.203102554E0,6.903217336E0
8.822823625E0,-5.103482566E0,-4.531221417E0,1.049309161E0,6.904965717E0
8.832809625E0,-4.724206139E0,-5.174495831E0,1.014511212E0,7.079743197E0
8.842794625E0,-4.370262773E0,-5.761950969E0,9.474337077E-1,7.293620932E0
8.852779625E0,-4.054910738E0,-6.308745155E0,7.642807871E-1,7.538348071E0
8.862765625E0,-3.813166086E0,-6.741433266E0,5.876626782E-1,7.767400176E0
8.872750625E0,-3.463145617E0,-7.105327715E0,4.668346810E-1,7.918143351E0
8.882736625E0,-2.933667376E0,-7.397524191E0,3.951892958E-1,7.967806663E0
8.892721625E0,-2.294696513E0,-7.708315982E0,3.120097661E-1,8.048671783E0
8.902706625E0,-1.887944312E0,-8.095788744E0,3.064613066E-1,8.318656601E0
8.912692625E0,-1.624101423E0,-8.234815652E0,6.366221092E-1,8.417552017E0
8.922677625E0,-1.386484174E0,-8.315342921E0,1.212741178E0,8.516924763E0
8.932663625E0,-1.432402651E0,-8.492955605E0,1.783866797E0,8.795695141E0
8.942648625E0,-1.526582292E0,-8.361670411E0,2.128957770E0,8.762445249E0
8.952633625E0,-1.493005533E0,-8.220516871E0,2.368604150E0,8.684252919E0
8.962619625E0,-1.594008728E0,-8.232040563E0,2.537879874E0,8.760604426E0
8.972604625E0,-1.676780451E0,-8.274262723E0,2.610446159E0,8.836823266E0
8.982590625E0,-1.727206400E0,-8.366966819E0,2.577252685E0,8.923654358E0
8.992575625E0,-1.579302250E0,-8.355131469E0,2.279345818E0,8.803285456E0
9.002561875E0,-1.079935415E0,-8.143593825E0,1.983809559E0,8.451028414E0
9.012546875E0,-3.535703132E-1,-7.786218436E0,1.840907848E0,8.008692228E0
9.022531875E0,4.835217574E-1,-7.459412876E0,1.892005203E0,7.710792270E0
9.032517875E0,1.702091147E0,-6.985456871E0,2.057983682E0,7.478570639E0
9.042502875E0,3.581512850E0,-6.225978987E0,2.192338665E0,7.509753489E0
9.052488875E0,5.926491618E0,-5.226413843E0,2.542856731E0,8.300893019E0
9.062473875E0,7.705843779E0,-4.061911025E0,3.302226149E0,9.315784834E0
9.072458875E0,8.596548970E0,-3.051540227E0,4.145850729E0,1.002001149E1
9.082444875E0,9.344079823E0,-2.411742568E0,4.666965113E0,1.071955658E1
9.092429875E0,1.016719588E1,-2.140261023E0,4.740847899E0,1.142051786E1
9.102415875E0,1.146283011E1,-1.625613075E0,4.102817853E0,1.228300478E1
9.112400875E0,1.303842084E1,-7.244893152E-1,2.821418085E0,1.335985414E1
9.122385875E0,1.425864119E1,-3.520210934E-1,1.765781067E0,1.437187358E1
9.132371875E0,1.517851346E1,-1.389093786E-1,1.253300681E0,1.523080199E1
9.142356875E0,1.542106065E1,1.733541566E-1,1.285986617E0,1.547555895E1
9.152342875E0,1.504475957E1,3.369843936E-1,1.631146587E0,1.513667692E1
9.162327875E0,1.453637692E1,2.933454537E-1,1.964420923E0,1.467144352E1
9.172313875E0,1.418112348E1,2.037076378E-1,2.092375543E0,1.433610112E1
9.182298875E0,1.408085543E1,1.038483042E-1,1.832164506E0,1.419993313E1
9.192283875E0,1.387286763E1,-5.002585351E-2,1.549315974E0,1.395920266E1
9.202269875E0,1.328424480E1,-4.083876675E-1,1.579944274E0,1.338410118E1
9.212254875E0,1.253846285E1,-7.963024789E-1,1.780703161E0,1.268928887E1
9.222240875E0,1.159424745E1,-1.088087311E0,1.971227374E0,1.181085286E1
9.232225875E0,1.039579044E1,-1.555214937E0,2.106402428E0,1.072045165E1
9.242210875E0,9.295778314E0,-2.123729190E0,2.145991002E0,9.773791358E0
9.252196875E0,8.274471468E0,-2.566785584E0,2.214481778E0,8.941990598E0
9.262181875E0,7.577628958E0,-2.890354711E0,2.323703381E0,8.436480806E0
9.272167875E0,6.916308868E0,-3.272381961E0,2.455019858E0,8.035604181E0
9.282152875E0,6.424846884E0,-3.630119877E0,2.648070945E0,7.840198182E0
9.292137875E0,6.145182745E0,-3.926849114E0,3.046131845E0,7.903311594E0
9.302123875E0,5.681649402E0,-4.349385290E0,3.541808794E0,7.983902671E0
9.312108875E0,4.982558638E0,-4.739649512E0,3.860415097E0,7.886252139E0
9.322094875E0,4.350528128E0,-5.172336454E0,3.873216406E0,7.789862945E0
9.332079875E0,3.846704838E0,-5.625620797E0,3.736893543E0,7.772330462E0
9.342065875E0,3.321089267E0,-6.133126956E0,3.608671120E0,7.852858552E0
9.352050875E0,2.823034548E0,-6.632033030E0,3.465613727E0,7.997741223E0
9.362035875E0,2.287712891E0,-7.149092370E0,3.339700370E0,8.215640605E0
9.372021875E0,1.674077576E0,-7.633150025E0,3.106071360E0,8.409232684E0
9.382006875E0,1.343305556E0,-7.960686488E0,2.733430645E0,8.523417288E0
9.391992875E0,1.163472466E0,-8.040734870E0,2.390821377E0,8.468949892E0
9.401977875E0,8.921079379E-1,-8.207765847E0,2.197134551E0,8.543458141E0
9.411962875E0,7.510635947E-1,-8.581490636E0,2.215356814E0,8.894598578E0
9.421948875E0,7.209402745E-1,-8.884443650E0,2.227120827E0,9.187663523E0
9.431933875E0,7.486449670E-1,-8.923776700E0,2.196194319E0,9.220495071E0
9.441919875E0,8.158551295E-1,-8.905435154E0,2.097828364E0,9.185492840E0
9.451904875E0,6.837310061E-1,-9.088663504E0,2.054873548E0,9.343114987E0
9.461889875E0,2.607562897E-1,-9.517826913E0,2.185649450E0,9.769037133E0
9.471875875E0,-6.037065974E-1,-9.904467616E0,2.238683696E0,1.017224877E1
9.481860875E0,-1.971643403E0,-9.712866638E0,1.818417994E0,1.007639817E1
9.491846875E0,-3.441538109E0,-9.130272875E0,1.299603905E0,9.843527703E0
9.501831875E0,-4.574755984E0,-8.292144093E0,7.190431454E-1,9.497634917E0
9.511817875E0,-5.200473840E0,-7.301891225E0,2.822268270E-1,8.968957331E0
9.521802875E0,-5.823632078E0,-6.557483954E0,1.229125661E-1,8.770997314E0
9.531787875E0,-6.851774318E0,-6.019025559E0,1.910787483E-1,9.122060682E0
9.541773875E0,-8.245993189E0,-5.221232041E0,3.404495998E-1,9.765939465E0
9.551758875E0,-9.707843880E0,-4.252930205E0,4.517335157E-1,1.060819076E1
9.561744875E0,-1.093804952E1,-3.509157357E0,1.999524097E-1,1.148891177E1
9.571729875E0,-1.179174067E1,-2.656384224E0,-4.342920023E-1,1.209504587E1
9.581714875E0,-1.218309598E1,-1.679981071E0,-1.161079419E0,1.235306721E1
9.591700875E0,-1.238601308E1,-9.550953144E-1,-1.798997637E0,1.255236709E1
9.601685875E0,-1.266364940E1,-5.041597974E-1,-2.244926329E0,1.287097073E1
9.611671875E0,-1.271806359E1,3.252221346E-3,-2.593896199E0,1.297988634E1
9.621656875E0,-1.233261513E1,4.257977521E-1,-2.669719968E0,1.262545462E1
9.631641875E0,-1.209471649E1,5.517128634E-1,-2.448608239E0,1.235241824E1
9.641627875E0,-1.211886666E1,7.018021184E-1,-1.832649679E0,1.227672839E1
9.651612875E0,-1.199964310E1,8.990871745E-1,-9.633509982E-1,1.207177855E1
9.661598875E0,-1.184966436E1,9.487481618E-1,-2.611886913E-1,1.189045365E1
9.671583875E0,-1.166474382E1,8.391304100E-1,3.359251705E-1,1.169971085E1
9.681569875E0,-1.138565388E1,5.563210541E-1,9.078629681E-1,1.143533220E1
9.691554875E0,-1.108415156E1,1.682319957E-1,1.254414722E0,1.115617650E1
9.701539875E0,-1.078484312E1,-2.888787657E-1,1.347241025E0,1.087250433E1
9.711525875E0,-1.026584893E1,-7.270258373E-1,1.205109246E0,1.036187769E1
9.721510875E0,-9.402775928E0,-1.211295746E0,9.579848622E-1,9.528754774E0
9.731496875E0,-8.482651057E0,-1.844749761E0,8.149100733E-1,8.719091068E0
9.741481875E0,-7.591036039E0,-2.327566051E0,7.759127994E-1,7.977683407E0
9.751466875E0,-6.532961901E0,-2.665273161E0,7.813279058E-1,7.098855226E0
9.761452875E0,-5.517578870E0,-3.079546636E0,7.480559331E-1,6.362929494E0
9.771437875E0,-4.752803409E0,-3.543905021E0,7.078316210E-1,5.970714249E0
9.781423875E0,-4.191835280E0,-4.068080422E0,6.731051534E-1,5.879951690E0
9.791408875E0,-3.697683869E0,-4.509223607E0,5.915166146E-1,5.861386819E0
9.801393875E0,-3.229264885E0,-4.954702502E0,6.069000542E-1,5.945212886E0
9.811379875E0,-2.906402979E0,-5.463472829E0,8.501255143E-1,6.246553211E0
9.821364875E0,-2.600890639E0,-5.712730277E0,1.108412232E0,6.374048714E0
9.831350875E0,-2.259222041E0,-5.898664718E0,1.386360652E0,6.466863656E0
9.841335875E0,-2.086458453E0,-6.215535859E0,1.576090374E0,6.743163632E0
9.851321875E0,-1.952359432E0,-6.455365841E0,1.594083719E0,6.929975354E0
9.861306875E0,-1.842718584E0,-6.811277672E0,1.589368085E0,7.232925149E0
9.871291875E0,-1.964911212E0,-7.110686688E0,1.403506004E0,7.509498675E0
9.881277875E0,-2.021286118E0,-7.272437046E0,1.306426875E0,7.660332195E0
9.891262875E0,-1.959318350E0,-7.493899169E0,1.356438257E0,7.863674580E0
9.901248875E0,-1.675408694E0,-7.667213565E0,1.371380816E0,7.967047350E0
9.911233875E0,-1.487642759E0,-7.762706198E0,1.393841287E0,8.025925618E0
9.921218875E0,-1.428338544E0,-7.913694754E0,1.371556817E0,8.157688629E0
9.931204875E0,-1.349994479E0,-7.997240356E0,1.328963944E0,8.218545101E0
9.941189875E0,-1.325782767E0,-7.953929445E0,1.298735155E0,8.167582664E0
9.951175875E0,-1.253750478E0,-7.893141791E0,1.327720826E0,8.101630712E0
9.961160875E0,-1.296806597E0,-7.859920251E0,1.449736576E0,8.097023517E0
9.971145875E0,-1.474589727E0,-7.818474017E0,1.561791885E0,8.108152978E0
9.981131875E0,-1.386054696E0,-7.645321004E0,1.784378721E0,7.972207241E0
9.991116875E0,-7.236239272E-1,-7.405085810E0,2.121269267E0,7.736841135E0
1.000110287E1,1.035474649E-1,-7.170235317E0,2.425296268E0,7.570010474E0
1.001108842E1,7.385009980E-1,-6.760283520E0,2.585159290E0,7.275291440E0
1.002107442E1,1.480799763E0,-6.192673246E0,2.730238066E0,6.927926802E0
1.003105942E1,2.028030735E0,-5.861234937E0,3.020351471E0,6.898514815E0
1.004104442E1,2.526815187E0,-5.433150923E0,3.221835120E0,6.803245217E0
1.005103042E1,3.550508866E0,-4.948506793E0,3.061957919E0,6.816848171E0
1.006101542E1,4.919696977E0,-4.621254505E0,2.626582720E0,7.242813564E0
1.007100142E1,5.867079813E0,-3.844389340E0,2.277027397E0,7.374741264E0
1.008098642E1,6.504095367E0,-3.094713144E0,2.354686899E0,7.577932197E0
1.009097142E1,7.141107997E0,-2.700085729E0,2.613540798E0,8.069478414E0
1.010095742E1,8.125941666E0,-2.381339386E0,2.687866217E0,8.884049191E0
1.011094242E1,9.690098165E0,-1.845730339E0,2.424473711E0,1.015789327E1
1.012092842E1,1.153288911E1,-1.328608434E0,2.224355094E0,1.182034209E1
1.013091342E1,1.356554031E1,-7.954189646E-1,1.966725018E0,1.373042544E1
1.014089842E1,1.554687518E1,-3.194737369E-1,1.367971889E0,1.561021264E1
1.015088442E1,1.684080203E1,8.349297702E-2,8.966155565E-1,1.686486002E1
1.016086942E1,1.735701878E1,2.689818603E-1,8.868714640E-1,1.738174310E1
1.017085542E1,1.747918232E1,2.211937362E-1,1.313348370E0,1.752984955E1
1.018084042E1,1.734639439E1,5.458902061E-2,1.619969342E0,1.742195968E1
1.019082542E1,1.684864431E1,-1.590670699E-1,1.563462435E0,1.692177687E1
1.020081142E1,1.586870476E1,-5.177896571E-1,1.340324500E0,1.593362378E1
1.021079642E1,1.453501569E1,-1.013456374E0,1.159522160E0,1.461636981E1
1.022078242E1,1.313328373E1,-1.631178455E0,1.191219916E0,1.328769692E1
1.023076742E1,1.174859056E1,-2.150110658E0,1.297077323E0,1.201394046E1
1.024075342E1,1.048486341E1,-2.563705856E0,1.548690614E0,1.090428315E1
1.025073842E1,9.701454043E0,-2.983228376E0,1.737933117E0,1.029748870E1
1.026072342E1,8.942393065E0,-3.445309855E0,1.898219332E0,9.769329064E0
1.027070942E1,8.107050481E0,-3.920439981E0,2.228472995E0,9.276864182E0
1.028069442E1,7.429508461E0,-4.384404264E0,2.632905606E0,9.019578075E0
1.029068042E1,6.829827964E0,-5.027634823E0,2.994862289E0,8.994045923E0
1.030066542E1,6.160182608E0,-5.630890308E0,3.291395937E0,8.971513954E0
1.031065042E1,5.499390521E0,-6.070819611E0,3.723649600E0,8.997983840E0
1.032063642E1,4.762034115E0,-6.653399926E0,4.107007968E0,9.154901089E0
1.033062142E1,4.196595498E0,-7.209977673E0,4.206672589E0,9.342980578E0
1.034060742E1,3.657066185E0,-7.742696441E0,4.204305637E0,9.539374568E0
1.035059242E1,3.201290636E0,-8.122868369E0,4.142995534E0,9.664039749E0
1.036057742E1,2.801396926E0,-8.528683847E0,3.899843749E0,9.787494785E0
1.037056342E1,2.486526702E0,-8.968614319E0,3.710391038E0,1.001927440E1
1.038054842E1,2.075418617E0,-9.421345516E0,3.516601740E0,1.026818395E1
1.039053442E1,1.739101976E0,-9.822937549E0,3.197453985E0,1.047560451E1
1.040051942E1,1.448540235E0,-1.016316247E1,2.817675574E0,1.064553596E1
1.041050542E1,1.333601956E0,-1.046471975E1,2.502158064E0,1.084203157E1
1.042049042E1,1.340440421E0,-1.079868698E1,2.214269232E0,1.110456705E1
1.043047542E1,1.112268763E0,-1.128075834E1,2.084422306E0,1.152551374E1
1.044046142E1,6.827723551E-1,-1.161925365E1,2.024470658E0,1.181404736E1
1.045044642E1,9.163215503E-2,-1.146305347E1,1.886642576E0,1.161763365E1
1.046043242E1,-5.191187292E-1,-1.132084334E1,1.919104124E0,1.149408278E1
1.047041742E1,-1.309836240E0,-1.132557023E1,1.901248920E0,1.155850161E1
1.048040242E1,-2.293934329E0,-1.074869797E1,1.614240094E0,1.110866391E1
1.049038842E1,-3.206638792E0,-9.936475275E0,1.433517276E0,1.053902486E1
1.050037342E1,-4.020586121E0,-9.424070903E0,1.415515307E0,1.034320592E1
1.051035942E1,-4.432243259E0,-8.819664686E0,1.102534465E0,9.932111947E0
1.052034442E1,-4.619477536E0,-7.952744799E0,8.315511028E-1,9.234565490E0
1.053032942E1,-5.473699610E0,-7.119503120E0,1.013580773E0,9.037480737E0
1.054031542E1,-7.291335831E0,-6.432862247E0,1.449904683E0,9.830946978E0
1.055030042E1,-9.589428408E0,-5.543183827E0,1.689313665E0,1.120436543E1
1.056028642E1,-1.173196224E1,-4.503627237E0,1.440116883E0,1.264893407E1
1.057027142E1,-1.333775150E1,-3.549464554E0,9.234919909E-1,1.383282875E1
1.058025742E1,-1.433864981E1,-2.568046244E0,3.401728803E-1,1.457077409E1
1.059024242E1,-1.534651566E1,-1.475299872E0,-5.377269083E-1,1.542663939E1
1.060022742E1,-1.640699710E1,-7.832614338E-1,-1.354518323E0,1.648143720E1
1.061021342E1,-1.699082755E1,-3.534583390E-1,-2.044568123E0,1.711705034E1
1.062019842E1,-1.699972701E1,1.336527318E-1,-2.606497826E0,1.719890730E1
1.063018442E1,-1.644463095E1,4.356304300E-1,-2.660526976E0,1.666415508E1
1.064016942E1,-1.548905207E1,6.433305466E-1,-2.154627047E0,1.565142249E1
1.065015442E1,-1.437476339E1,9.561945909E-1,-1.292722902E0,1.446441368E1
1.066014042E1,-1.330715653E1,1.202653561E0,-2.242603084E-1,1.336327367E1
1.067012542E1,-1.242342239E1,1.125263908E0,7.982343990E-1,1.249979284E1
1.068011142E1,-1.180543017E1,9.266129422E-1,1.476258230E0,1.193340401E1
1.069009642E1,-1.122945487E1,6.507214272E-1,1.758039061E0,1.138484942E1
1.070008142E1,-1.043769626E1,1.722700828E-1,1.664087462E0,1.057092084E1
1.071006742E1,-9.487011502E0,-4.451093513E-1,1.328811040E0,9.589955597E0
1.072005242E1,-8.404120027E0,-9.954352552E-1,8.780807599E-1,8.508298925E0
1.073003842E1,-7.402545195E0,-1.482053990E0,4.608629197E-1,7.563501440E0
1.074002342E1,-6.784015614E0,-1.982000284E0,2.057781368E-1,7.070610838E0
1.075000842E1,-6.248611220E0,-2.516323528E0,1.320985419E-1,6.737542304E0
1.075999442E1,-5.645629385E0,-3.028011031E0,2.179039465E-1,6.410106402E0
1.076997942E1,-5.248036262E0,-3.560999356E0,2.045242015E-1,6.345426004E0
1.077996542E1,-4.800780398E0,-4.067419102E0,2.592813295E-1,6.297508824E0
1.078995042E1,-4.355863712E0,-4.573778622E0,4.821899079E-1,6.334469723E0
1.079993642E1,-4.212696683E0,-5.129783342E0,7.230557241E-1,6.677147599E0
1.080992142E1,-4.120550704E0,-5.619772997E0,9.286805177E-1,7.030166011E0
1.081990642E1,-3.843494716E0,-6.054902321E0,1.078323776E0,7.252384154E0
1.082989242E1,-3.769435052E0,-6.764071931E0,1.129649173E0,7.825433978E0
1.083987742E1,-3.866730674E0,-7.283080732E0,1.021989069E0,8.308991077E0
1.084986342E1,-3.826640702E0,-7.542259151E0,9.701704596E-1,8.512936208E0
1.085984842E1,-3.683930925E0,-7.861613020E0,1.280293329E0,8.775845107E0
1.086983342E1,-3.415685522E0,-8.166791484E0,1.630256349E0,9.001173617E0
1.087981942E1,-3.086576158E0,-8.361703740E0,1.937932305E0,9.121437575E0
1.088980442E1,-2.655273253E0,-8.579050008E0,2.245858376E0,9.257129951E0
1.089979042E1,-2.292875106E0,-8.911033278E0,2.333661189E0,9.492616335E0
1.090977542E1,-2.192707185E0,-9.177741741E0,2.287876175E0,9.709443118E0
1.091976142E1,-2.172978972E0,-9.350588359E0,2.190200776E0,9.846436905E0
1.092974642E1,-2.156301397E0,-9.543239497E0,2.045678217E0,9.995391697E0
1.093973142E1,-2.025714068E0,-9.581704820E0,2.089101394E0,1.001383690E1
1.094971742E1,-1.950105769E0,-9.712644444E0,2.198670030E0,1.014753785E1
1.095970242E1,-2.190599849E0,-9.963568933E0,2.220063676E0,1.044031208E1
1.096968842E1,-2.540257351E0,-1.012190919E1,2.193434725E0,1.066382244E1
1.097967342E1,-2.410086052E0,-1.000612497E1,2.215717879E0,1.052807947E1
1.098965842E1,-1.581529162E0,-9.887515368E0,2.359975414E0,1.028754969E1
1.099964442E1,-4.502414525E-2,-9.901539330E0,2.341259061E0,1.017467455E1
1.100962863E1,1.482566206E0,-9.761031908E0,2.130568386E0,1.010025089E1
1.101961462E1,2.171106840E0,-9.300132735E0,2.328484064E0,9.829954824E0
1.102959962E1,2.671004602E0,-8.597692686E0,3.139339678E0,9.534675596E0
1.103958462E1,3.332419417E0,-7.788517562E0,3.820824184E0,9.293262206E0
1.104957063E1,4.876710001E0,-7.009090147E0,4.416770357E0,9.613402390E0
1.105955563E1,7.209938496E0,-6.009752460E0,4.803676816E0,1.054398638E1
1.106954162E1,9.834829617E0,-4.851188659E0,5.036807935E0,1.206761531E1
1.107952662E1,1.279370668E1,-3.463312263E0,5.008218559E0,1.416882901E1
1.108951163E1,1.622725135E1,-2.026516891E0,4.575966066E0,1.698145820E1
1.109949762E1,1.879996894E1,-1.136694630E0,3.754234046E0,1.920482179E1
1.110948262E1,2.010545222E1,-4.196944284E-1,3.136170195E0,2.035290927E1
1.111946862E1,2.016569023E1,2.320952851E-1,3.188566217E0,2.041753867E1
1.112945363E1,1.930604428E1,4.210878199E-1,3.369040236E0,1.960232366E1
1.113943962E1,1.835190849E1,3.822634774E-1,3.403276853E0,1.866871619E1
1.114942462E1,1.774466112E1,1.923809963E-1,3.094193619E0,1.801344061E1
1.115940962E1,1.743741917E1,-2.160744989E-1,2.410091607E0,1.760451127E1
1.116939563E1,1.701321888E1,-6.388129878E-1,1.681555434E0,1.710804861E1
1.117938063E1,1.644145942E1,-1.182072532E0,9.479003155E-1,1.651112953E1
1.118936662E1,1.545369746E1,-1.708018470E0,4.679093993E-1,1.555483949E1
1.119935162E1,1.425733960E1,-2.225740884E0,3.467381340E-1,1.443419143E1
1.120933663E1,1.281221078E1,-2.829829012E0,5.606570569E-1,1.313297428E1
1.121932262E1,1.113262615E1,-3.651944025E0,9.947178018E-1,1.175846604E1
1.122930762E1,9.235402304E0,-4.649414111E0,1.395145655E0,1.043341453E1
1.123929362E1,7.412488970E0,-5.476026217E0,1.560450534E0,9.347024218E0
1.124927863E1,6.097263644E0,-5.878548542E0,1.433510114E0,8.590047040E0
1.125926363E1,5.234043290E0,-6.316745315E0,1.343222087E0,8.312684651E0
1.126924962E1,4.653804785E0,-6.653404019E0,1.272219932E0,8.218529526E0
1.127923462E1,4.114882121E0,-6.872316756E0,1.375913285E0,8.127369183E0
1.128922063E1,3.774936113E0,-7.027484903E0,1.647554752E0,8.145558506E0
1.129920562E1,3.638561502E0,-7.330411604E0,2.113357691E0,8.452239042E0
1.130919162E1,3.316009499E0,-7.726910128E0,2.593896784E0,8.799395414E0
1.131917662E1,2.828580339E0,-8.027571618E0,3.074219822E0,9.049508292E0
1.132916163E1,1.992450136E0,-8.315570962E0,3.701206232E0,9.317591188E0
1.133914762E1,1.076367736E0,-8.793441678E0,4.369067017E0,9.877850508E0
1.134913262E1,4.473339245E-2,-9.306294531E0,4.514619418E0,1.034364092E1
1.135911862E1,-1.111858435E0,-9.646044658E0,4.242294120E0,1.059620055E1
1.136910363E1,-2.169767243E0,-9.539044120E0,3.843732698E0,1.051073421E1
1.137908863E1,-2.683063315E0,-9.044356227E0,3.269301063E0,9.984364664E0
1.138907462E1,-2.531858411E0,-8.608341635E0,2.606221545E0,9.343781004E0
1.139905962E1,-1.966363075E0,-8.362759747E0,2.004711893E0,8.821632735E0
1.140904563E1,-1.503605219E0,-8.176539377E0,1.469739754E0,8.442556472E0
1.141903062E1,-1.194176414E0,-7.929571114E0,1.246673593E0,8.115315792E0
1.142901662E1,-1.076299982E0,-7.737764314E0,1.363385187E0,7.930336525E0
1.143900162E1,-9.584134631E-1,-7.534646661E0,1.388836948E0,7.721290354E0
1.144898663E1,-7.514386936E-1,-7.292315240E0,1.076861095E0,7.409598605E0
1.145897262E1,-8.776632687E-1,-7.268839254E0,1.102737363E0,7.404211410E0
1.146895762E1,-1.938302434E0,-7.177022181E0,1.302504124E0,7.547395623E0
1.147894362E1,-3.197856274E0,-6.339111500E0,1.183839999E0,7.198061996E0
1.148892863E1,-3.740162429E0,-5.563022261E0,8.974965857E-1,6.763248612E0
1.149891362E1,-3.704112590E0,-4.892091687E0,3.815764296E-1,6.148057557E0
1.150889962E1,-3.581341527E0,-4.443079319E0,-1.467826545E-2,5.706765846E0
1.151888462E1,-4.046636344E0,-4.184494393E0,2.767709363E-1,5.827680600E0
1.152887063E1,-5.309736081E0,-3.934761567E0,1.131723912E0,6.704956737E0
1.153885562E1,-7.463938036E0,-3.295110673E0,1.630454569E0,8.320246838E0
1.154884062E1,-9.626389242E0,-2.425795181E0,1.809643955E0,1.009091985E1
1.155882662E1,-1.128784867E1,-1.587099804E0,2.152970531E0,1.160041790E1
1.156881163E1,-1.253473233E1,-9.108324766E-1,2.167078985E0,1.275324906E1
1.157879762E1,-1.293289029E1,-2.169048035E-1,1.820702794E0,1.306222254E1
1.158878262E1,-1.300303349E1,4.864532590E-1,1.443884244E0,1.309199444E1
1.159876863E1,-1.332793286E1,1.110734746E0,1.091673408E0,1.341861680E1
1.160875363E1,-1.363634074E1,1.675026725E0,8.834736469E-1,1.376720847E1
1.161873862E1,-1.338982681E1,2.100035688E0,9.117943436E-1,1.358414446E1
1.162872462E1,-1.285072522E1,2.581477883E0,1.109332877E0,1.315430675E1
1.163870962E1,-1.216734943E1,3.038153611E0,1.567893747E0,1.263855452E1
1.164869563E1,-1.134171790E1,3.116287031E0,2.024346697E0,1.193498175E1
1.165868062E1,-1.073747833E1,3.026249850E0,2.274311073E0,1.138525889E1
1.166866562E1,-1.044365574E1,2.904557598E0,2.514759983E0,1.112791166E1
1.167865162E1,-1.014465019E1,2.535081396E0,2.719028076E0,1.080433611E1
1.168863663E1,-9.931219797E0,2.085878409E0,2.795149761E0,1.052581957E1
1.169862262E1,-9.785990163E0,1.620276906E0,2.809317564E0,1.030937272E1
1.170860762E1,-9.470749810E0,1.051252191E0,3.122620442E0,1.002751173E1
1.171859262E1,-9.024398510E0,4.899411231E-1,3.378356020E0,9.648476573E0
1.172857863E1,-8.463174566E0,-6.103616059E-2,3.316787471E0,9.090111565E0
1.173856362E1,-7.656313185E0,-7.241870141E-1,3.002994596E0,8.256001148E0
1.174854962E1,-6.749941549E0,-1.387888091E0,2.737010603E0,7.414794084E0
1.175853462E1,-5.975067362E0,-2.083267043E0,2.500480205E0,6.803957143E0
1.176852063E1,-5.181762750E0,-2.762505925E0,2.343031937E0,6.322333655E0
1.177850562E1,-4.590287651E0,-3.366281227E0,2.265118958E0,6.126447087E0
1.178849062E1,-4.448188031E0,-4.100836524E0,2.230796387E0,6.448231500E0
1.179847663E1,-4.368569419E0,-5.016063768E0,2.095813998E0,6.974075624E0
1.180846163E1,-4.158155025E0,-5.628602293E0,1.759283348E0,7.215711668E0
1.181844762E1,-3.743918388E0,-5.983954545E0,1.267365282E0,7.171530635E0
1.182843262E1,-3.320027705E0,-6.502411369E0,1.083370216E0,7.380896192E0
1.183841762E1,-3.003737485E0,-7.052520926E0,1.006595836E0,7.731346937E0
1.184840363E1,-2.737982995E0,-7.460606292E0,9.605938898E-1,8.004994551E0
1.185838862E1,-2.444077963E0,-7.705442660E0,9.396304522E-1,8.138198146E0
1.186837462E1,-2.277929623E0,-7.972660416E0,8.336116616E-1,8.333497817E0
1.187835962E1,-2.127216470E0,-8.190094977E0,8.153549002E-1,8.501029894E0
1.188834563E1,-1.708659471E0,-8.251046938E0,1.020038584E0,8.487624607E0
1.189833062E1,-1.335688535E0,-8.502443882E0,1.355235338E0,8.712765270E0
1.190831562E1,-1.141307060E0,-8.646270769E0,1.553671857E0,8.858582068E0
1.191830163E1,-9.077335985E-1,-8.341990437E0,1.612006750E0,8.544667957E0
1.192828663E1,-8.887794104E-1,-8.211123903E0,1.498517557E0,8.393928727E0
1.193827262E1,-1.275880289E0,-8.376434045E0,1.216313973E0,8.559902891E0
1.194825762E1,-1.697281082E0,-8.467341292E0,9.018131465E-1,8.682735662E0
1.195824262E1,-1.976437536E0,-8.750144216E0,4.868204641E-1,8.983781125E0
1.196822863E1,-1.717826297E0,-9.037395117E0,-2.950224352E-1,9.203938066E0
1.197821362E1,-3.880180147E-1,-8.813537974E0,-1.071940225E0,8.886960416E0
1.198819962E1,1.315906819E0,-8.443789877E0,-1.323530419E0,8.647596834E0
1.199818463E1,2.508231567E0,-7.994293944E0,-1.055861259E0,8.444809308E0
1.200817013E1,3.245340927E0,-7.423271236E0,-5.261005971E-1,8.118742231E0
1.201815612E1,3.955543156E0,-6.813869158E0,4.722872096E-1,7.892920231E0
1.202814112E1,5.118928571E0,-5.940588670E0,1.768492128E0,8.038755368E0
1.203812713E1,6.087595857E0,-5.016399983E0,2.823468996E0,8.378249774E0
1.204811213E1,6.986440372E0,-4.130330465E0,3.612812411E0,8.883827573E0
1.205809712E1,7.909824482E0,-3.316277009E0,4.241436918E0,9.568322929E0
1.206808312E1,9.104282586E0,-2.725586606E0,4.829714760E0,1.066034373E1
1.207806813E1,1.093896870E1,-2.022039093E0,5.005194379E0,1.219842814E1
1.208805412E1,1.329865702E1,-1.533832254E0,4.399538612E0,1.409123344E1
1.209803912E1,1.584366699E1,-1.051503037E0,3.467690950E0,1.625276354E1
1.210802512E1,1.775088138E1,-4.028310585E-1,2.478195004E0,1.792756295E1
1.211801013E1,1.889537912E1,8.807076216E-2,1.856606160E0,1.898657671E1
1.212799513E1,1.916330907E1,5.262622726E-1,1.724716364E0,1.924796127E1
1.213798112E1,1.866207639E1,5.233024120E-1,2.197500002E0,1.879829638E1
1.214796612E1,1.791786617E1,2.478810132E-1,2.937474498E0,1.815874801E1
1.215795213E1,1.688370656E1,-2.571605444E-3,3.043664027E0,1.715585744E1
1.216793713E1,1.533950602E1,-3.950133312E-1,2.530661486E0,1.555187217E1
1.217792212E1,1.390536178E1,-1.033174354E0,2.222631042E0,1.411972465E1
1.218790812E1,1.276516876E1,-1.622309983E0,2.309370101E0,1.307343158E1
1.219789313E1,1.162566220E1,-2.013028534E0,2.441174528E0,1.204855338E1
1.220787912E1,1.034719072E1,-2.414714708E0,2.712294130E0,1.096593554E1
1.221786412E1,9.128647934E0,-2.681392180E0,3.293701201E0,1.006829403E1
1.222785012E1,8.213930567E0,-2.851006458E0,4.200648203E0,9.656207253E0
1.223783513E1,7.541126545E0,-3.207830454E0,4.990020854E0,9.594741993E0
1.224782013E1,7.069862013E0,-3.640417993E0,5.408702545E0,9.617154219E0
1.225780612E1,6.709856547E0,-4.158830963E0,5.730321625E0,9.754723768E0
1.226779112E1,6.133433350E0,-4.742021728E0,5.821276819E0,9.695000698E0
1.227777713E1,5.476197540E0,-5.296799701E0,5.721618630E0,9.527945546E0
1.228776212E1,4.846364706E0,-5.978133057E0,5.538170425E0,9.481384781E0
1.229774712E1,4.279346463E0,-6.631975143E0,5.175840690E0,9.438497089E0
1.230773312E1,3.587065366E0,-7.160560514E0,4.666178078E0,9.268974198E0
1.231771813E1,2.856111077E0,-7.658295391E0,4.194898928E0,9.187166908E0
1.232770412E1,2.188541483E0,-8.142032034E0,3.735335260E0,9.221449396E0
1.233768912E1,1.679446051E0,-8.608653291E0,3.337922232E0,9.384624412E0
1.234767412E1,1.208335008E0,-9.154512507E0,2.977647793E0,9.702141986E0
1.235766013E1,5.668731587E-1,-9.586759154E0,2.708034434E0,9.978013166E0
1.236764513E1,-2.007948473E-1,-9.807758762E0,2.541905681E0,1.013379174E1
1.237763112E1,-7.654587087E-1,-9.887698971E0,2.371613127E0,1.019691457E1
1.238761612E1,-1.107283501E0,-9.992229645E0,2.214318933E0,1.029436440E1
1.239760213E1,-1.559651220E0,-1.028985058E1,2.089330021E0,1.061502882E1
1.240758712E1,-2.015873643E0,-1.017452478E1,1.725943109E0,1.051492181E1
1.241757212E1,-2.164261943E0,-9.607928413E0,1.180362221E0,9.919151835E0
1.242755812E1,-2.054743155E0,-9.055142586E0,6.582421891E-1,9.308644341E0
1.243754313E1,-2.018313832E0,-8.723919454E0,4.266006479E-1,8.964504976E0
1.244752912E1,-2.486664404E0,-8.217533621E0,3.192649913E-1,8.591466045E0
1.245751412E1,-3.015509684E0,-7.424150657E0,2.995247912E-1,8.018792099E0
1.246749912E1,-3.399752736E0,-6.708616937E0,4.540702093E-1,7.534589547E0
1.247748513E1,-3.647837525E0,-6.173719497E0,6.956642962E-1,7.204545777E0
1.248747012E1,-4.313978937E0,-5.682337620E0,1.003960496E0,7.204672912E0
1.249745612E1,-5.527553635E0,-5.032171093E0,1.438267116E0,7.612174945E0
1.250744112E1,-7.051288333E0,-4.289365960E0,1.798348158E0,8.447093203E0
1.251742613E1,-9.060299830E0,-3.699728640E0,1.916799737E0,9.972519554E0
1.252741212E1,-1.137686435E1,-3.113305535E0,1.668143383E0,1.191253189E1
1.253739712E1,-1.307502441E1,-2.625519111E0,8.082693905E-1,1.336049824E1
1.254738312E1,-1.411823902E1,-2.357754641E0,-5.344318561E-1,1.432373196E1
1.255736813E1,-1.471273830E1,-1.997980725E0,-1.764384898E0,1.495224563E1
1.256735412E1,-1.494877051E1,-1.536305042E0,-2.332787469E0,1.520749389E1
1.257733912E1,-1.477884926E1,-1.209084329E0,-2.122577289E0,1.497937264E1
1.258732412E1,-1.445669574E1,-1.205495308E0,-1.348511186E0,1.456941156E1
1.259731013E1,-1.404780229E1,-1.048356650E0,-3.567509061E-1,1.409138290E1
1.260729512E1,-1.332771885E1,-5.882877821E-1,5.079232116E-1,1.335036173E1
1.261728112E1,-1.259019434E1,-4.307994604E-1,1.073435796E0,1.264321344E1
1.262726612E1,-1.203559061E1,-6.471657354E-1,1.398406354E0,1.213382896E1
1.263725113E1,-1.164039952E1,-8.780354440E-1,1.445272665E0,1.176259582E1
1.264723712E1,-1.107381134E1,-9.653174168E-1,1.182709732E0,1.117854810E1
1.265722212E1,-1.031244890E1,-1.231438234E0,8.094927742E-1,1.041721273E1
1.266720812E1,-9.699022186E0,-1.745555255E0,4.524957003E-1,9.865229185E0
1.267719313E1,-9.094385004E0,-2.199696216E0,1.916132569E-1,9.358590582E0
1.268717812E1,-8.388484572E0,-2.614957870E0,8.181000218E-2,8.787000111E0
1.269716412E1,-7.871373192E0,-3.128692483E0,1.107625636E-1,8.471097977E0
1.270714912E1,-7.464708114E0,-3.623954573E0,2.607617714E-1,8.301982334E0
1.271713513E1,-6.987840781E0,-4.168536757E0,2.868714166E-1,8.141800334E0
1.272712012E1,-6.640917875E0,-4.758937722E0,2.915520396E-1,8.175223609E0
1.273710612E1,-6.396674999E0,-5.287010878E0,5.738661363E-1,8.318609103E0
1.274709112E1,-6.110141551E0,-5.840498371E0,9.531960656E-1,8.506105674E0
1.275707613E1,-5.731864121E0,-6.412992239E0,1.329637544E0,8.703371287E0
1.276706212E1,-5.364569516E0,-6.880112849E0,1.731602629E0,8.894549262E0
1.277704712E1,-5.087378749E0,-7.472881937E0,2.166299259E0,9.296141106E0
1.278703313E1,-4.894222704E0,-8.015224053E0,2.539151643E0,9.728541698E0
1.279701813E1,-4.603760220E0,-8.462579319E0,2.842747266E0,1.004445464E1
1.280700312E1,-4.296253687E0,-8.864723330E0,3.122056478E0,1.033384498E1
1.281698912E1,-3.894930333E0,-9.301169447E0,3.339330241E0,1.062230492E1
1.282697412E1,-3.442141834E0,-9.689486547E0,3.505611606E0,1.086387604E1
1.283696013E1,-2.958352859E0,-9.975859780E0,3.723872963E0,1.105155463E1
1.284694512E1,-2.424219503E0,-1.017411781E1,4.062689289E0,1.122029223E1
1.285693012E1,-1.968733829E0,-1.041402205E1,4.179668686E0,1.139286613E1
1.286691612E1,-1.729806949E0,-1.064151850E1,3.874299018E0,1.145619226E1
1.287690113E1,-1.707753152E0,-1.053791052E1,3.378876130E0,1.119735607E1
1.288688712E1,-1.637029179E0,-1.046291881E1,3.423279593E0,1.112975192E1
1.289687212E1,-1.298045914E0,-1.036821731E1,3.980883234E0,1.118178361E1
1.290685813E1,-8.353607100E-1,-1.046451159E1,4.666696141E0,1.148833684E1
1.291684313E1,-1.045949936E-1,-1.005107602E1,5.017993934E0,1.123455974E1
1.292682812E1,5.150139838E-1,-9.630096962E0,5.150324610E0,1.093297080E1
1.293681412E1,1.278911194E0,-9.357652380E0,5.324347104E0,1.084204519E1
1.294679912E1,2.773915597E0,-8.826590713E0,5.070609519E0,1.055056360E1
1.295678513E1,4.840532109E0,-8.298947328E0,4.591214727E0,1.064812333E1
1.296677012E1,6.878497848E0,-7.888506119E0,3.877837168E0,1.116153585E1
1.297675512E1,8.501797764E0,-6.924113731E0,3.073998505E0,1.138742214E1
1.298674113E1,1.027133011E1,-5.469552764E0,2.587997821E0,1.192115609E1
1.299672613E1,1.259575270E1,-3.956239559E0,2.595331983E0,1.345513157E1
1.300671250E1,1.466410583E1,-2.950612022E0,3.485018882E0,1.535862845E1
1.301669750E1,1.600700545E1,-2.264104466E0,4.803971223E0,1.686500910E1
1.302668250E1,1.664328191E1,-1.510596589E0,5.718800856E0,1.766310896E1
1.303666850E1,1.698126618E1,-1.294741361E0,5.844049385E0,1.800535114E1
1.304665350E1,1.748035761E1,-1.212052668E0,5.042966807E0,1.823358133E1
1.305663950E1,1.819796417E1,-1.177443583E0,3.777851534E0,1.862322302E1
1.306662450E1,1.861062323E1,-1.374461422E0,2.630015035E0,1.884572684E1
1.307661050E1,1.853389373E1,-1.601996171E0,1.794142694E0,1.868931664E1
1.308659550E1,1.802541050E1,-1.667135323E0,1.163905817E0,1.813971997E1
1.309658050E1,1.722070615E1,-1.578892068E0,7.524851990E-1,1.730929966E1
1.310656650E1,1.640194861E1,-1.729307597E0,4.990016761E-1,1.650040684E1
1.311655150E1,1.535843814E1,-2.113742731E0,3.893365619E-1,1.550809831E1
1.312653750E1,1.413320438E1,-2.465611796E0,7.713687819E-1,1.436738381E1
1.313652250E1,1.292918550E1,-2.784512506E0,1.490214365E0,1.330932329E1
1.314650750E1,1.161965711E1,-3.119667891E0,2.423663871E0,1.227285239E1
1.315649350E1,1.049915518E1,-3.434544547E0,3.315660127E0,1.153351454E1
1.316647850E1,9.724576857E0,-3.950988175E0,3.967492526E0,1.122135017E1
1.317646450E1,9.086479568E0,-4.505273813E0,4.308935421E0,1.101946131E1
1.318644950E1,8.485671144E0,-4.971930739E0,4.517490693E0,1.082286617E1
1.319643550E1,7.777136541E0,-5.507747362E0,4.798260540E0,1.066969718E1
1.320642050E1,7.043171228E0,-5.852329043E0,5.265676142E0,1.056330258E1
1.321640550E1,6.458739685E0,-6.279804361E0,5.753815738E0,1.068913732E1
1.322639150E1,5.974983162E0,-6.815694659E0,6.109810599E0,1.093086927E1
1.323637650E1,5.578108077E0,-7.164244845E0,6.291666023E0,1.104657210E1
1.324636250E1,5.036081711E0,-7.650796922E0,6.446986781E0,1.120091296E1
1.325634750E1,4.356976730E0,-8.463541771E0,6.601679549E0,1.158434109E1
1.326633250E1,3.481474592E0,-9.249697577E0,6.492710254E0,1.182509438E1
1.327631850E1,2.540923934E0,-9.663872818E0,5.994385977E0,1.165244161E1
1.328630350E1,1.733351970E0,-9.969789201E0,5.718302674E0,1.162326078E1
1.329628950E1,1.052617954E0,-1.020121849E1,5.505827136E0,1.163988813E1
1.330627450E1,3.386050956E-1,-1.049694961E1,5.171129588E0,1.170645914E1
1.331625950E1,-4.839746243E-1,-1.066766725E1,4.904298334E0,1.175097861E1
1.332624550E1,-1.189182819E0,-1.068509429E1,4.718937505E0,1.174111439E1
1.333623050E1,-1.545553583E0,-1.070577707E1,4.559117314E0,1.173831117E1
1.334621650E1,-1.688697807E0,-1.082860368E1,4.271904420E0,1.176263258E1
1.335620150E1,-1.818476028E0,-1.083930174E1,3.879853873E0,1.165549585E1
1.336618650E1,-1.770791546E0,-1.048073879E1,3.295917588E0,1.112855161E1
1.337617250E1,-1.308246675E0,-9.942035977E0,2.721074309E0,1.039037218E1
1.338615750E1,-8.970424032E-1,-9.671726214E0,2.191859778E0,9.957470678E0
1.339614350E1,-1.044386683E0,-9.775994348E0,1.914901730E0,1.001636949E1
1.340612850E1,-1.906815324E0,-9.553198475E0,1.701226929E0,9.889070676E0
1.341611450E1,-2.866522629E0,-8.845255610E0,1.571588311E0,9.430025907E0
1.342609950E1,-3.961935332E0,-8.311630524E0,1.671679779E0,9.358132657E0
1.343608450E1,-5.319892110E0,-7.760619911E0,1.665771167E0,9.555274305E0
1.344607050E1,-7.136875783E0,-6.945218672E0,1.473152774E0,1.006683850E1
1.345605550E1,-9.282026247E0,-5.971616920E0,1.229811539E0,1.110534359E1
1.346604150E1,-1.120676650E1,-5.102093267E0,6.697967988E-1,1.233173138E1
1.347602650E1,-1.279183557E1,-4.586027954E0,-4.429826459E-1,1.359628417E1
1.348601150E1,-1.417191061E1,-4.216383938E0,-2.011303605E0,1.492200677E1
1.349599750E1,-1.515632211E1,-4.008865085E0,-3.518721063E0,1.606756040E1
1.350598250E1,-1.563317424E1,-3.795548133E0,-4.645501739E0,1.674464120E1
1.351596850E1,-1.568432685E1,-3.521380377E0,-5.334309590E0,1.693673780E1
1.352595350E1,-1.539915347E1,-3.412911603E0,-5.391795321E0,1.666893368E1
1.353593950E1,-1.496549121E1,-3.369831657E0,-4.814724253E0,1.607803664E1
1.354592450E1,-1.493555113E1,-3.246784605E0,-3.934418335E0,1.578264697E1
1.355590950E1,-1.467685744E1,-3.111210478E0,-2.993713603E0,1.529876126E1
1.356589550E1,-1.407681383E1,-3.167779950E0,-2.299856681E0,1.461098417E1
1.357588050E1,-1.357484206E1,-3.351459705E0,-1.867886608E0,1.410665161E1
1.358586650E1,-1.308457408E1,-3.607834384E0,-1.460635055E0,1.365122715E1
1.359585150E1,-1.255385506E1,-3.873236579E0,-1.150445454E0,1.318805381E1
1.360583650E1,-1.201820567E1,-4.265898160E0,-9.623885465E-1,1.278911046E1
1.361582250E1,-1.153861236E1,-4.649877795E0,-8.051838148E-1,1.246632503E1
1.362580750E1,-1.096847960E1,-5.021106992E0,-6.810491806E-1,1.208233786E1
1.363579350E1,-1.027931156E1,-5.396021689E0,-6.418207955E-1,1.162726237E1
1.364577850E1,-9.527032769E0,-5.751971526E0,-6.848621500E-1,1.114982359E1
1.365576350E1,-8.799105291E0,-6.044252787E0,-7.487301171E-1,1.070130097E1
1.366574950E1,-8.152283372E0,-6.414187410E0,-8.223711205E-1,1.040566281E1
1.367573450E1,-7.364596181E0,-6.878172158E0,-9.159411889E-1,1.011857092E1
1.368572050E1,-6.475327651E0,-7.378993780E0,-9.386155218E-1,9.862069585E0
1.369570550E1,-5.712741387E0,-7.779908706E0,-8.399630535E-1,9.688546411E0
1.370569050E1,-5.049898097E0,-8.288294286E0,-6.029684230E-1,9.724241044E0
1.371567650E1,-4.328615980E0,-8.910697648E0,-1.469814599E-1,9.907525040E0
1.372566150E1,-3.788277997E0,-9.483510189E0,6.114052608E-1,1.023043655E1
1.373564750E1,-3.508718231E0,-1.000639277E1,1.486361634E0,1.070739328E1
1.374563250E1,-3.147100688E0,-1.038192318E1,2.456753849E0,1.112313855E1
1.375561850E1,-2.602413546E0,-1.056524275E1,3.533177719E0,1.144029088E1
1.376560350E1,-2.228394058E0,-1.092518214E1,4.546520072E0,1.204143636E1
1.377558850E1,-2.054532655E0,-1.119227476E1,5.312823411E0,1.255843189E1
1.378557450E1,-1.623773979E0,-1.109863277E1,5.689996303E0,1.257745401E1
1.379555950E1,-1.175461523E0,-1.105402086E1,5.834314941E0,1.255437445E1
1.380554550E1,-8.952822451E-1,-1.107816752E1,5.709172246E0,1.249487790E1
1.381553050E1,-8.254824239E-1,-1.119796293E1,5.381569710E0,1.245138899E1
1.382551550E1,-1.007337847E0,-1.147053674E1,4.844705851E0,1.249236236E1
1.383550150E1,-9.946543595E-1,-1.159928658E1,4.162249246E0,1.236353935E1
1.384548650E1,-2.658565235E-1,-1.152512167E1,3.506424661E0,1.204965240E1
1.385547250E1,4.356242904E-1,-1.129644525E1,3.175907873E0,1.174247992E1
1.386545750E1,6.915577966E-1,-1.116270072E1,3.433670388E0,1.169932613E1
1.387544350E1,9.418437696E-1,-1.117676093E1,4.131796947E0,1.195319207E1
1.388542850E1,2.188504061E0,-1.064667809E1,4.378337485E0,1.171798376E1
1.389541350E1,4.749472250E0,-9.725021245E0,3.984833613E0,1.153310122E1
1.390539950E1,7.956268331E0,-8.282477476E0,3.688177466E0,1.206251599E1
1.391538450E1,1.055831263E1,-6.683658097E0,3.861402107E0,1.307897845E1
1.392537050E1,1.238810755E1,-4.826284198E0,4.365292932E0,1.399335593E1
1.393535550E1,1.351105245E1,-3.354698478E0,4.651794220E0,1.467793343E1
1.394534050E1,1.352139384E1,-2.467326200E0,4.428627926E0,1.444051714E1
1.395532650E1,1.327288951E1,-2.198133840E0,4.342304896E0,1.413707891E1
1.396531150E1,1.358626285E1,-2.192791239E0,4.541132448E0,1.449195485E1
1.397529750E1,1.473089624E1,-2.119415699E0,4.119863949E0,1.544229601E1
1.398528250E1,1.613556233E1,-1.985207774E0,2.969459937E0,1.652619478E1
1.399526750E1,1.732684832E1,-1.868523955E0,1.780012020E0,1.751797640E1
1.400525350E1,1.818957575E1,-1.536010050E0,1.120683784E0,1.828868298E1
1.401523837E1,1.869057338E1,-1.134097881E0,9.069715601E-1,1.874690131E1
1.402522438E1,1.861284751E1,-8.104688206E-1,1.097565355E0,1.866278655E1
1.403520937E1,1.794026451E1,-5.979368573E-1,1.459027070E0,1.800942473E1
1.404519537E1,1.670195638E1,-9.789630640E-1,1.830554475E0,1.683046777E1
1.405518037E1,1.506274327E1,-1.582319705E0,1.953714963E0,1.527111563E1
1.406516538E1,1.344420825E1,-2.021196510E0,1.760835199E0,1.370884792E1
1.407515137E1,1.189511242E1,-2.573971227E0,1.546144152E0,1.226823497E1
1.408513637E1,1.047002201E1,-3.059481915E0,1.505087342E0,1.101122511E1
1.409512238E1,9.322294267E0,-3.281772589E0,1.644310716E0,1.001893006E1
1.410510738E1,8.611429549E0,-3.383676109E0,1.996853966E0,9.465379478E0
1.411509237E1,8.277528393E0,-3.576815490E0,2.532786656E0,9.366220881E0
1.412507837E1,8.014434679E0,-3.714936079E0,3.275788256E0,9.421395968E0
1.413506337E1,7.789339680E0,-3.935196015E0,4.112147963E0,9.647245265E0
1.414504938E1,7.750011892E0,-4.305196127E0,4.887492559E0,1.012348663E1
1.415503437E1,7.686219939E0,-4.770314065E0,5.435337197E0,1.055351902E1
1.416501937E1,7.338913456E0,-5.632725749E0,5.847585196E0,1.094447361E1
1.417500538E1,6.542781715E0,-6.761990907E0,6.063511176E0,1.119368936E1
1.418499038E1,5.537997347E0,-7.870256959E0,5.970672010E0,1.132516152E1
1.419497637E1,4.362164379E0,-9.261413643E0,5.935429671E0,1.183349425E1
1.420496137E1,2.927911085E0,-1.014388537E1,5.581356205E0,1.194247088E1
1.421494738E1,1.667877627E0,-1.027775386E1,4.801699580E0,1.146605246E1
1.422493238E1,1.110775969E0,-1.037789094E1,4.034453670E0,1.118978373E1
1.423491737E1,8.320428537E-1,-1.051638926E1,3.327896596E0,1.106171931E1
1.424490337E1,8.554177561E-1,-1.052696570E1,2.591942645E0,1.087505922E1
1.425488837E1,9.971576987E-1,-1.048944880E1,1.938099828E0,1.071350038E1
1.426487438E1,1.129528575E0,-1.050022872E1,1.549545916E0,1.067388077E1
1.427485937E1,1.128641040E0,-1.074334893E1,1.619868186E0,1.092324814E1
1.428484437E1,1.029839687E0,-1.090730486E1,1.766476593E0,1.109731088E1
1.429483038E1,7.774906705E-1,-1.080618545E1,2.108097829E0,1.103731001E1
1.430481538E1,2.101758277E-1,-1.082123385E1,2.476144386E0,1.110290804E1
1.431480137E1,-4.741697207E-1,-1.095876387E1,2.724971479E0,1.130242505E1
1.432478637E1,-1.116980742E0,-1.090762763E1,2.859389611E0,1.133137659E1
1.433477137E1,-1.918063612E0,-1.024657417E1,2.587553725E0,1.074088844E1
1.434475738E1,-2.773603064E0,-9.452260914E0,2.173055132E0,1.008763000E1
1.435474237E1,-3.625545600E0,-8.659817013E0,1.910040355E0,9.580462711E0
1.436472837E1,-4.759082149E0,-7.925940578E0,1.922643444E0,9.442772620E0
1.437471338E1,-6.294936370E0,-7.357208809E0,1.964977285E0,9.880074954E0
1.438469938E1,-7.790081692E0,-6.856628677E0,1.693332603E0,1.051504184E1
1.439468437E1,-8.968649402E0,-6.144009794E0,8.860232522E-1,1.090736291E1
1.440466937E1,-1.012258045E1,-5.339957415E0,-5.141982973E-2,1.144484269E1
1.441465538E1,-1.137307535E1,-4.590761860E0,-7.807296626E-1,1.228948641E1
1.442464038E1,-1.218119213E1,-4.077165241E0,-1.215295899E0,1.290277730E1
1.443462637E1,-1.287284640E1,-3.771734177E0,-1.510498940E0,1.349880588E1
1.444461137E1,-1.384175576E1,-3.533215726E0,-1.873384160E0,1.440789312E1
1.445459637E1,-1.461467932E1,-3.310152635E0,-2.485073084E0,1.518952107E1
1.446458238E1,-1.487983535E1,-3.001379887E0,-3.152521641E0,1.550342459E1
1.447456737E1,-1.476064570E1,-2.691891441E0,-3.610241683E0,1.543232925E1
1.448455337E1,-1.446463977E1,-2.566902528E0,-3.720291544E0,1.515438423E1
1.449453838E1,-1.410747429E1,-2.515647590E0,-3.512869170E0,1.475430661E1
1.450452338E1,-1.377717911E1,-2.629721505E0,-3.138866639E0,1.437284187E1
1.451450937E1,-1.347195680E1,-2.879617469E0,-2.725561463E0,1.404330809E1
1.452449437E1,-1.309486869E1,-3.033427892E0,-2.271342734E0,1.363217769E1
1.453448038E1,-1.238026292E1,-3.139475334E0,-1.959684970E0,1.292159358E1
1.454446538E1,-1.144654561E1,-3.392412434E0,-1.716001673E0,1.206136519E1
1.455445137E1,-1.056525912E1,-3.601901214E0,-1.477665655E0,1.125974637E1
1.456443637E1,-9.701091515E0,-3.755205853E0,-1.346390401E0,1.048930478E1
1.457442138E1,-8.784698921E0,-3.967763252E0,-1.311781316E0,9.728044541E0
1.458440738E1,-7.914795200E0,-4.195877752E0,-1.206471208E0,9.039078822E0
1.459439237E1,-7.154092324E0,-4.549781649E0,-9.932337785E-1,8.536279247E0
1.460437837E1,-6.477651334E0,-4.932321115E0,-8.560136604E-1,8.186605999E0
1.461436338E1,-5.823650204E0,-5.280210566E0,-7.318620694E-1,7.895007752E0
1.462434838E1,-5.282645347E0,-5.599966139E0,-4.545800865E-1,7.711848395E0
1.463433437E1,-4.921564577E0,-6.031140406E0,-5.110875785E-2,7.784540101E0
1.464431937E1,-4.603300337E0,-6.398020443E0,3.515299273E-1,7.889779013E0
1.465430538E1,-4.255177875E0,-6.672938982E0,7.422005314E-1,7.948931691E0
1.466429038E1,-3.883512768E0,-7.076303306E0,1.169057214E0,8.156128657E0
1.467427537E1,-3.488782150E0,-7.473060862E0,1.636731555E0,8.408158521E0
1.468426137E1,-3.299454569E0,-7.644636880E0,2.102176353E0,8.587550227E0
1.469424638E1,-3.264257255E0,-7.950794753E0,2.481596915E0,8.945883739E0
1.470423238E1,-3.124219363E0,-8.399291396E0,2.686637133E0,9.355579173E0
1.471421737E1,-2.843705624E0,-8.794039264E0,2.717153167E0,9.633520103E0
1.472420337E1,-2.275537380E0,-8.923420020E0,2.925194761E0,9.662414792E0
1.473418838E1,-1.407030413E0,-8.864392962E0,3.648276066E0,9.688504293E0
1.474417338E1,-4.280544119E-1,-8.825946350E0,4.433852997E0,9.886334607E0
1.475415937E1,2.609915670E-1,-8.761331694E0,4.837742987E0,1.001163358E1
1.476414437E1,4.915618982E-1,-8.566356288E0,4.708096182E0,9.787250013E0
1.477413038E1,3.643357681E-1,-8.558780635E0,4.192722010E0,9.537525065E0
1.478411538E1,1.493418346E-1,-8.710167387E0,3.349885050E0,9.333329992E0
1.479410037E1,4.406141581E-1,-8.931564606E0,2.494102355E0,9.283724129E0
1.480408637E1,6.190187010E-1,-9.137748540E0,1.940759287E0,9.362060625E0
1.481407138E1,1.592746460E-1,-9.054255563E0,2.035882084E0,9.281687782E0
1.482405737E1,-5.743953824E-2,-8.422475606E0,3.072846019E0,8.965700045E0
1.483404237E1,5.376324758E-1,-8.064352359E0,4.219929104E0,9.117599974E0
1.484402737E1,1.636702612E0,-8.142426136E0,4.933886415E0,9.660286433E0
1.485401338E1,2.988017830E0,-7.941511129E0,5.177723494E0,9.940053830E0
1.486399838E1,3.768574927E0,-7.507061251E0,5.004740050E0,9.777808987E0
1.487398437E1,4.495795476E0,-6.712888328E0,4.841791306E0,9.419022759E0
1.488396937E1,5.772992266E0,-5.702335097E0,4.515842363E0,9.286382370E0
1.489395538E1,7.241164382E0,-5.088110821E0,4.160143663E0,9.779065836E0
1.490394038E1,8.572474229E0,-4.859567719E0,3.929245303E0,1.060856642E1
1.491392537E1,9.476147375E0,-4.401103912E0,3.574416962E0,1.104280496E1
1.492391137E1,1.026285750E1,-3.240208241E0,2.724258118E0,1.110165644E1
1.493389638E1,1.088249396E1,-2.575058810E0,2.050509771E0,1.136944119E1
1.494388237E1,1.124756603E1,-2.262133954E0,1.675431352E0,1.159448412E1
1.495386737E1,1.172861530E1,-2.014709609E0,1.318431939E0,1.197320903E1
1.496385237E1,1.222798506E1,-1.800107439E0,1.007392811E0,1.240075988E1
1.497383838E1,1.261571393E1,-1.572557779E0,7.994813177E-1,1.273845933E1
1.498382338E1,1.347260233E1,-1.248333179E0,7.380536860E-1,1.355042702E1
1.499380937E1,1.460860874E1,-8.451384240E-1,7.807971248E-1,1.465385111E1
1.500379437E1,1.531932962E1,-8.044546670E-1,9.028007412E-1,1.536697942E1
1.501378013E1,1.535048943E1,-8.145820445E-1,9.110593486E-1,1.539906162E1
1.502376513E1,1.477611744E1,-7.951049691E-1,1.028187264E0,1.483317254E1
1.503375012E1,1.370002043E1,-6.317665082E-1,1.269664407E0,1.377322534E1
1.504373612E1,1.275383919E1,-7.416514778E-1,1.717703798E0,1.289034396E1
1.505372113E1,1.199488697E1,-1.166932336E0,1.923995905E0,1.220413065E1
1.506370712E1,1.167833041E1,-1.685893191E0,1.719588940E0,1.192403552E1
1.507369212E1,1.120360901E1,-2.201934530E0,1.684530205E0,1.154153423E1
1.508367712E1,1.009888988E1,-2.675857206E0,1.938630901E0,1.062572719E1
1.509366313E1,8.913261067E0,-3.172036723E0,2.312688396E0,9.739433631E0
1.510364813E1,7.899737450E0,-3.626709196E0,2.748863494E0,9.116749524E0
1.511363412E1,7.229326109E0,-3.891926034E0,3.422313341E0,8.895081385E0
1.512361912E1,7.185661442E0,-4.023342791E0,3.982657864E0,9.147818386E0
1.513360413E1,7.197608473E0,-4.410880457E0,4.350207408E0,9.496617220E0
1.514359012E1,6.656282603E0,-5.587268910E0,4.833379794E0,9.944105400E0
1.515357512E1,5.578800387E0,-6.469344780E0,4.751330495E0,9.774997551E0
1.516356112E1,4.699365997E0,-6.753908300E0,4.391454837E0,9.326531707E0
1.517354613E1,3.964581489E0,-7.308797371E0,4.245653930E0,9.336059270E0
1.518353113E1,3.200421447E0,-8.069114331E0,3.996927117E0,9.556606610E0
1.519351712E1,2.480117861E0,-8.730372441E0,3.835302767E0,9.852915045E0
1.520350212E1,2.091555471E0,-9.155497178E0,3.624258628E0,1.006642854E1
1.521348813E1,1.868384791E0,-9.925777209E0,3.420884866E0,1.066369393E1
1.522347313E1,1.478771071E0,-1.056181745E1,3.007945726E0,1.108090651E1
1.523345812E1,1.076064266E0,-1.066217789E1,2.483423000E0,1.100033369E1
1.524344412E1,9.634690388E-1,-1.046260423E1,2.334468105E0,1.076308976E1
1.525342913E1,1.096584558E0,-1.027298487E1,2.375486323E0,1.060092690E1
1.526341512E1,1.513569167E0,-1.021922908E1,2.474649545E0,1.062296687E1
1.527340012E1,1.936903633E0,-1.032265463E1,2.694540229E0,1.084293970E1
1.528338612E1,1.749672134E0,-1.040553190E1,2.708070686E0,1.089358038E1
1.529337113E1,9.010126626E-1,-1.006132736E1,2.279117192E0,1.035550613E1
1.530335613E1,-1.503819081E-1,-9.831079212E0,2.158798451E0,1.006643651E1
1.531334212E1,-1.066331283E0,-9.426910896E0,2.094195489E0,9.715418992E0
1.532332712E1,-1.783276228E0,-8.886690735E0,1.995493319E0,9.280912666E0
1.533331313E1,-2.256363629E0,-8.437035758E0,1.891118035E0,8.935942962E0
1.534329812E1,-2.812967396E0,-8.145578955E0,1.664024604E0,8.776800098E0
1.535328412E1,-3.674283312E0,-7.800796130E0,1.657575564E0,8.780679636E0
1.536326912E1,-4.863855482E0,-7.327697327E0,1.898661527E0,8.997619344E0
1.537325413E1,-6.015876834E0,-6.932440166E0,2.001533493E0,9.394447140E0
1.538324012E1,-6.813992534E0,-6.409186286E0,1.904786486E0,9.546537313E0
1.539322512E1,-7.466349428E0,-5.771280786E0,1.667161050E0,9.582978747E0
1.540321112E1,-8.134089761E0,-5.327436773E0,1.166213129E0,9.793112471E0
1.541319613E1,-8.750652924E0,-4.810998407E0,6.281293939E-1,1.000570731E1
1.542318113E1,-9.303002549E0,-4.207096805E0,1.108858667E-1,1.021067165E1
1.543316712E1,-9.633852044E0,-3.589228544E0,-2.101853295E-1,1.028289087E1
1.544315212E1,-9.815791082E0,-3.002883207E0,-3.544079268E-1,1.027096233E1
1.545313813E1,-9.923706125E0,-2.664999511E0,-4.473213530E-1,1.028505042E1
1.546312312E1,-9.963858955E0,-2.358526474E0,-4.923462291E-1,1.025102615E1
1.547310812E1,-9.927320874E0,-1.932938052E0,-5.452949595E-1,1.012843995E1
1.548309412E1,-1.009291051E1,-1.559271151E0,-7.741767611E-1,1.024194897E1
1.549307913E1,-1.049679758E1,-1.299147238E0,-1.026485286E0,1.062658059E1
1.550306512E1,-1.100435812E1,-1.308494596E0,-1.193206361E0,1.114593186E1
1.551305012E1,-1.144052298E1,-1.225662940E0,-1.596985838E0,1.161628940E1
1.552303612E1,-1.158647767E1,-1.031178115E0,-2.104676623E0,1.182114448E1
1.553302113E1,-1.140516487E1,-9.277397007E-1,-2.493758538E0,1.171141829E1
1.554300612E1,-1.116241069E1,-1.052550273E0,-2.736686375E0,1.154108864E1
1.555299212E1,-1.082769619E1,-1.249062912E0,-2.825270230E0,1.125972090E1
1.556297712E1,-1.023710519E1,-1.459901814E0,-2.814414582E0,1.071683561E1
1.557296313E1,-9.505039052E0,-1.682229910E0,-2.618885445E0,1.000171115E1
1.558294812E1,-8.856689841E0,-1.907251233E0,-2.297582261E0,9.346520553E0
1.559293312E1,-8.066182537E0,-2.130351162E0,-1.917562506E0,8.560300390E0
1.560291912E1,-7.159910889E0,-2.304656076E0,-1.592747045E0,7.688472326E0
1.561290413E1,-6.504097121E0,-2.499424490E0,-1.223481490E0,7.074412280E0
1.562289012E1,-6.127285588E0,-2.856698722E0,-9.200138477E-1,6.822813331E0
1.563287512E1,-5.839775655E0,-3.237512675E0,-5.185784465E-1,6.697267475E0
1.564286012E1,-5.637469010E0,-3.526649303E0,-3.472369015E-2,6.649775777E0
1.565284613E1,-5.491714881E0,-3.823979634E0,3.870255961E-1,6.703099387E0
1.566283112E1,-5.386772563E0,-4.185608872E0,6.069964602E-1,6.848728713E0
1.567281712E1,-5.232810697E0,-4.506040968E0,4.689249875E-1,6.921459646E0
1.568280212E1,-4.985350099E0,-4.860903808E0,1.622274169E-1,6.964798574E0
1.569278713E1,-4.796883228E0,-5.264145926E0,-3.312155306E-2,7.121967289E0
1.570277312E1,-4.807445639E0,-5.745870541E0,-2.178596538E-1,7.494933267E0
1.571275812E1,-4.722507815E0,-6.223735410E0,-2.741987461E-1,7.817425885E0
1.572274412E1,-4.455113181E0,-6.651493149E0,-1.821033454E-1,8.007718539E0
1.573272913E1,-4.093080778E0,-7.101310678E0,3.257827364E-2,8.196522735E0
1.574271512E1,-3.647464765E0,-7.571051425E0,3.328786249E-1,8.410447496E0
1.575270012E1,-3.219282811E0,-8.122055022E0,6.705418803E-1,8.762487432E0
1.576268512E1,-2.905307795E0,-8.621323623E0,9.990624292E-1,9.152385489E0
1.577267113E1,-2.628256778E0,-9.110607519E0,1.386654767E0,9.582990895E0
1.578265612E1,-2.456118257E0,-9.579592806E0,1.660333257E0,1.002785230E1
1.579264212E1,-2.404096895E0,-1.013049992E1,2.043198413E0,1.061043686E1
1.580262712E1,-1.786664251E0,-1.043981763E1,2.658594179E0,1.092016870E1
1.581261213E1,1.552065188E-1,-1.039646170E1,2.985453826E0,1.081773726E1
1.582259812E1,2.945660600E0,-1.005235890E1,2.650293179E0,1.080513257E1
1.583258312E1,5.762722217E0,-9.318550295E0,2.081677185E0,1.115247627E1
1.584256913E1,7.453627056E0,-8.298054458E0,1.787414888E0,1.129642050E1
1.585255413E1,7.466283939E0,-7.352998229E0,1.831309643E0,1.063793560E1
1.586254012E1,6.227508618E0,-6.658778780E0,1.965266430E0,9.326492940E0
1.587252512E1,4.668262026E0,-6.056919610E0,1.773556109E0,7.850123997E0
1.588251012E1,4.414232373E0,-5.456578962E0,2.011787170E0,7.301163540E0
1.589249613E1,6.000165950E0,-4.673383602E0,2.422227503E0,7.981835114E0
1.590248112E1,8.088980831E0,-3.876467750E0,2.250734515E0,9.247941336E0
1.591246712E1,9.434733886E0,-3.051534964E0,1.729876531E0,1.006571120E1
1.592245212E1,9.827227067E0,-1.993190686E0,1.342600821E0,1.011680670E1
1.593243713E1,9.763652630E0,-1.043587661E0,1.399624914E0,9.918514898E0
1.594242312E1,8.962161916E0,-7.317533112E-1,1.827777925E0,9.175869510E0
1.595240812E1,7.517341826E0,-1.000562094E0,2.292875690E0,7.922678307E0
1.596239413E1,6.163911377E0,-1.205697622E0,2.118081657E0,6.628256190E0
1.597237913E1,5.119916750E0,-1.129580323E0,1.502678289E0,5.454130662E0
1.598236412E1,6.073763099E0,-6.997187555E-2,2.220990898E0,6.467479789E0
1.599235012E1,1.297780392E1,3.479202656E0,8.715696514E0,1.601535549E1
1.600233512E1,1.121238451E1,1.551369224E0,6.533426755E0,1.306942914E1
1.601232113E1,5.078566995E0,-1.192332641E0,1.249620444E0,5.364238166E0
1.602230612E1,2.799589552E0,-3.956126708E-1,-2.799255091E-1,2.841226730E0
1.603229112E1,1.156490671E0,-1.912279839E0,-1.935060591E0,2.956136726E0
1.604227713E1,-6.458308160E-2,-2.286723835E0,-2.972990486E0,3.751259695E0
1.605226213E1,-2.535782477E-1,-1.185207224E0,-3.002095587E0,3.237529305E0
1.606224812E1,1.557704097E-1,-4.068621290E-1,-2.186226570E0,2.229212378E0
1.607223312E1,4.597317758E-1,-2.743373251E-1,-3.232324440E0,3.276360109E0
1.608221913E1,6.410469165E-1,-4.088408267E-1,-2.942621802E0,3.039262253E0
1.609220413E1,9.962035793E-1,-5.441687858E-1,-1.657486540E0,2.008930777E0
1.610218912E1,1.285022119E0,-3.421708739E-1,-8.990824968E-1,1.605214032E0
1.611217512E1,9.861004677E-1,2.228724718E-1,3.349080473E-1,1.065002193E0
1.612216012E1,1.595984064E0,6.862461859E-1,5.408382118E-1,1.819506782E0
1.613214613E1,1.998350561E0,9.703442681E-1,4.674372366E-1,2.270125665E0
1.614213112E1,1.767146392E0,5.732347101E-1,1.538130543E0,2.411897587E0
1.615211612E1,1.942859900E0,2.319157755E-1,7.715032679E-1,2.103260994E0
1.616210213E1,1.750097373E0,3.159946436E-1,8.584899563E-1,1.974765412E0
1.617208713E1,1.500540255E0,3.039137113E-1,1.022844079E0,1.841248112E0
1.618207312E1,9.079167625E-1,1.356577420E-1,1.505131196E0,1.762990581E0
1.619205812E1,3.730938739E-1,2.214621234E-1,1.831518681E0,1.882207531E0
1.620204413E1,1.141054899E-2,2.910334647E-1,1.417072713E0,1.446694768E0
1.621202913E1,-1.830070326E-1,3.266365761E-1,6.298728874E-1,7.327502174E-1
1.622201412E1,-2.230648452E-1,3.917552626E-1,3.870973706E-2,4.524693964E-1
1.623200012E1,-1.958255911E-1,6.085752815E-1,-6.420301259E-2,6.425212543E-1
1.624198513E1,-1.728556815E-1,7.601865667E-1,-3.383783698E-2,7.803253822E-1
1.625197113E1,-1.120937553E-1,6.949626303E-1,-1.441847366E-1,7.185591873E-1
1.626195612E1,-3.046370119E-2,5.624536139E-1,-2.842582959E-1,6.309396830E-1
1.627194112E1,-3.387759805E-1,3.266003233E-1,-3.627881563E-1,5.941819439E-1
1.628192713E1,-7.768496695E-1,1.697464246E-1,-3.222406393E-1,8.579908434E-1
1.629191213E1,-8.085617512E-1,1.553365463E-1,-2.399001485E-1,8.575859312E-1
1.630189812E1,-5.544745034E-1,2.047700769E-1,-3.134955436E-1,6.690681693E-1
1.631188312E1,-2.830830055E-1,1.588004369E-1,-3.792913377E-2,3.267907373E-1
1.632186813E1,5.372831047E-2,2.282764685E-1,4.263731182E-1,4.866116658E-1
1.633185413E1,3.912696514E-1,2.989669669E-1,6.078414559E-1,7.822687664E-1
1.634183912E1,4.806501898E-1,3.396483850E-1,7.036635795E-1,9.173483872E-1
1.635182512E1,3.189480722E-1,3.068291330E-1,7.939676857E-1,9.089866201E-1
1.636181013E1,1.694748214E-1,1.275160789E-1,7.358066010E-1,7.657632922E-1
1.637179612E1,-3.810455024E-2,-8.948169529E-2,5.652918524E-1,5.735972532E-1
1.638178112E1,-2.376071629E-1,-2.088683903E-1,4.019390658E-1,5.115057975E-1
1.639176612E1,-5.516567302E-1,-1.711953646E-1,2.154029462E-1,6.164668929E-1
1.640175213E1,-5.749403429E-1,-1.472071624E-1,-5.564210415E-3,5.935126848E-1
1.641173713E1,-3.798593947E-1,-1.088517666E-2,-2.270935768E-1,4.426998300E-1
1.642172312E1,-2.247807106E-1,8.838475764E-2,-2.714365214E-1,3.633400864E-1
1.643170812E1,1.765859127E-2,1.025391126E-1,-1.811543423E-1,2.089090500E-1
1.644169313E1,1.679276481E-1,9.504298210E-2,-3.235790670E-2,1.956524919E-1
1.645167913E1,2.193810993E-1,2.572225249E-1,1.819934177E-1,3.839441342E-1
1.646166412E1,1.467965417E-1,3.557399225E-1,4.074103054E-1,5.604313286E-1
1.647165012E1,-6.369240448E-2,1.589594811E-1,5.191046959E-1,5.466210061E-1
1.648163513E1,-1.906798951E-1,-1.327493370E-1,4.319072154E-1,4.904335343E-1
1.649162013E1,-1.649715883E-1,-2.493884254E-1,9.192056894E-2,3.128251950E-1
1.650160612E1,-1.386447921E-1,-7.737152696E-2,-2.824228549E-1,3.239929020E-1
1.651159112E1,5.130347013E-3,5.689282358E-2,-5.461974773E-1,5.491764726E-1
1.652157713E1,1.215896335E-1,1.954285651E-1,-4.842912510E-1,5.362036729E-1
1.653156213E1,5.609073177E-2,2.163130653E-1,-7.651514375E-1,7.971161990E-1
1.654154812E1,-5.414976315E-1,2.178152150E-1,-2.132377807E0,2.210813937E0
1.655153312E1,-8.609338000E-2,1.786745381E-1,-2.308474892E-1,3.043472095E-1
1.656151813E1,2.639555937E-1,3.189083111E-1,4.628231987E-1,6.209511894E-1
