"Time (s)","Linear Acceleration x (m/s^2)","Linear Acceleration y (m/s^2)","Linear Acceleration z (m/s^2)","Absolute acceleration (m/s^2)"
5.840208323E-3,-1.005785485E0,3.419977963E-1,-3.709912151E-1,1.125256156E0
1.582520833E-2,-1.993758743E0,4.983131665E-1,-3.123605990E-1,2.078691675E0
2.581120835E-2,-2.328328236E0,5.569613242E-1,4.434540045E-1,2.434742234E0
3.579620837E-2,-2.311423497E0,8.915220469E-1,1.240501419E0,2.770619771E0
4.578220833E-2,-2.301348306E0,1.164762434E0,1.727341763E0,3.104284961E0
5.576720834E-2,-2.163097324E0,1.227837519E0,1.986684489E0,3.183314352E0
6.575320836E-2,-1.773654050E0,1.126058545E0,2.231968753E0,3.065214683E0
7.573820831E-2,-1.337782276E0,1.077437777E0,2.394612565E0,2.946982002E0
8.572320832E-2,-9.350316171E-1,1.086368229E0,2.402664766E0,2.797727298E0
9.570920834E-2,-6.523988472E-1,9.891968608E-1,2.114074268E0,2.423519072E0
1.056942084E-1,-7.498772677E-1,9.007998240E-1,1.788851256E0,2.138631585E0
1.156802083E-1,-1.080332149E0,7.883467573E-1,1.666029614E0,2.136413545E0
1.256647083E-1,-1.257063657E0,6.456021899E-1,1.521344356E0,2.076415150E0
1.356507083E-1,-1.188511485E0,4.841810310E-1,1.134644596E0,1.713011728E0
1.456357084E-1,-1.159357049E0,3.809344053E-1,6.759954321E-1,1.395059000E0
1.556207084E-1,-9.984430629E-1,1.916582805E-1,2.659658664E-1,1.050885002E0
1.656067083E-1,-7.561145657E-1,2.623060942E-3,-2.305294007E-2,7.564704588E-1
1.755917083E-1,-1.046935630E0,-8.306203723E-2,-9.398288190E-2,1.054422258E0
1.855777084E-1,-1.624103324E0,-3.347250295E-1,7.276450574E-2,1.659833463E0
1.955627084E-1,-2.225217266E0,-6.302105641E-1,1.930657053E-1,2.320782541E0
2.055487083E-1,-2.590155443E0,-8.469697720E-1,2.034059215E-1,2.732697748E0
2.155337083E-1,-2.385485061E0,-1.138317817E0,-5.486442447E-3,2.643167897E0
2.255197084E-1,-2.036257914E0,-1.272707883E0,-2.251464540E-1,2.411808983E0
2.355047083E-1,-2.022752161E0,-1.402092732E0,-2.791811585E-1,2.476960325E0
2.454907083E-1,-2.545213159E0,-1.593684939E0,1.406702676E-1,3.006281729E0
2.554757083E-1,-2.896227069E0,-1.788118892E0,6.810866028E-1,3.471221596E0
2.654607084E-1,-2.918537706E0,-1.939112127E0,9.469349402E-1,3.629697503E0
2.754467083E-1,-3.258834547E0,-2.064424390E0,5.258161300E-1,3.893370425E0
2.854317083E-1,-4.604503109E0,-2.604352190E0,-7.774908167E-1,5.346830013E0
2.954177083E-1,-3.908695264E0,-3.027671893E0,2.180493960E-1,4.948963659E0
3.054027084E-1,-3.618882113E0,-2.508614559E0,-1.459137583E-1,4.405762769E0
3.153887083E-1,-3.835323525E0,-2.875288190E0,-1.282171601E-1,4.795146333E0
3.253737083E-1,-3.565622749E0,-3.308223054E0,-1.643243015E-1,4.866724549E0
3.353587083E-1,-2.665466996E0,-3.268935027E0,-6.371903855E-1,4.265754576E0
3.453447084E-1,-1.719263543E0,-3.053983778E0,-1.034948692E0,3.654285545E0
3.553297083E-1,-1.555852869E0,-2.919621779E0,-7.562759489E-1,3.393644471E0
3.653157083E-1,-1.876926111E0,-2.968068300E0,-7.963907719E-2,3.512637676E0
3.753007083E-1,-1.987277104E0,-3.077783700E0,3.963611144E-1,3.684986421E0
3.852867084E-1,-1.748922082E0,-2.957764921E0,2.825555867E-1,3.447744109E0
3.952717083E-1,-1.284880616E0,-2.859717055E0,-8.139236480E-2,3.136163986E0
4.052577083E-1,-5.485173601E-1,-2.790289555E0,-7.594506946E-1,2.943357344E0
4.152427083E-1,4.711508033E-1,-2.594219550E0,-1.546449669E0,3.056708153E0
4.252287084E-1,1.510251603E0,-2.246596148E0,-1.809347209E0,3.256039232E0
4.352137083E-1,2.732409722E0,-1.811589616E0,-1.640624632E0,3.666001774E0
4.451987083E-1,4.055901842E0,-1.218121201E0,-1.299683135E0,4.429823389E0
4.551847083E-1,5.372394260E0,-5.844040614E-1,-1.109194297E0,5.516743621E0
4.651697084E-1,6.874175586E0,-8.484426856E-2,-1.111070961E0,6.963904596E0
4.751557083E-1,8.662040709E0,4.377389359E-1,-1.239395710E0,8.761202335E0
4.851407083E-1,1.046286969E1,9.359930456E-1,-1.243622662E0,1.057801128E1
4.951267084E-1,1.139970474E1,1.124052950E0,-9.505526125E-1,1.149436007E1
5.051117084E-1,1.176380267E1,1.003543589E0,-6.892060465E-1,1.182662919E1
5.150977083E-1,1.226127910E1,1.002132656E0,-8.556692594E-1,1.233188570E1
5.250827083E-1,1.312915676E1,1.157904820E0,-1.136715680E0,1.322904469E1
5.350677083E-1,1.424541713E1,1.203112568E0,-1.375089997E0,1.436211201E1
5.450537084E-1,1.481128493E1,1.199078574E0,-1.631320250E0,1.494901858E1
5.550387083E-1,1.485802991E1,8.395771372E-1,-1.677263577E0,1.497595258E1
5.650247083E-1,1.462597263E1,1.700943339E-1,-1.514531473E0,1.470516281E1
5.750097084E-1,1.413301259E1,-3.963178450E-1,-1.398911846E0,1.420760596E1
5.849957083E-1,1.305983100E1,-1.107420545E0,-1.073271343E0,1.315056947E1
5.949807083E-1,1.162054355E1,-2.043467385E0,-6.285037619E-1,1.181557482E1
6.049667083E-1,1.033327435E1,-2.984280875E0,-2.402082968E-1,1.075826153E1
6.149517084E-1,9.160084319E0,-3.998916047E0,6.833348572E-2,9.995156014E0
6.249367084E-1,8.116942216E0,-4.913251006E0,3.283910331E-1,9.493820467E0
6.349227083E-1,7.042360804E0,-5.795145028E0,5.972556567E-1,9.139762902E0
6.449077083E-1,5.693529190E0,-6.495352610E0,8.176266897E-1,8.676081695E0
6.548937084E-1,4.321772983E0,-7.022584936E0,8.820703152E-1,8.292916793E0
6.648787083E-1,3.375568945E0,-7.506771814E0,7.758872178E-1,8.267290351E0
6.748647083E-1,2.644949993E0,-7.932252063E0,8.155155525E-1,8.401276621E0
6.848497083E-1,1.905505986E0,-8.348315370E0,1.212472790E0,8.648434127E0
6.948347084E-1,1.500218951E0,-8.481540670E0,1.790308090E0,8.797294590E0
7.048207083E-1,1.190434781E0,-8.366025417E0,2.329337173E0,8.765462219E0
7.148057083E-1,6.874144596E-1,-8.484756639E0,2.663527767E0,8.919529922E0
7.247917083E-1,2.599845303E-1,-8.718831791E0,2.836382279E0,9.172278026E0
7.347767084E-1,-2.666443627E-1,-8.968973923E0,2.888188902E0,9.426305086E0
7.447627083E-1,-6.829171468E-1,-9.061969795E0,2.836198677E0,9.519962989E0
7.547477083E-1,-1.195486921E0,-8.857064062E0,2.615618898E0,9.312262615E0
7.647337083E-1,-1.882984704E0,-8.521267238E0,2.363257456E0,9.041162123E0
7.747187084E-1,-2.143468221E0,-7.989409180E0,2.173138162E0,8.552639624E0
7.847047083E-1,-2.214834365E0,-7.400443706E0,2.060992952E0,7.994982818E0
7.946897083E-1,-2.172721841E0,-7.007327211E0,2.291746008E0,7.686055855E0
8.046747083E-1,-2.291052821E0,-6.771593789E0,2.693850843E0,7.639387268E0
8.146607084E-1,-2.921121005E0,-6.430784732E0,2.990662818E0,7.670202363E0
8.246457083E-1,-3.606410587E0,-5.793341746E0,2.933123293E0,7.427800358E0
8.346317083E-1,-4.221847284E0,-5.190168707E0,2.736849220E0,7.228567586E0
8.446167083E-1,-5.169908105E0,-4.710124581E0,2.503007956E0,7.428207874E0
8.546027084E-1,-6.291078962E0,-4.097243995E0,2.024632918E0,7.775874312E0
8.645877083E-1,-7.424292160E0,-3.348273557E0,1.440463623E0,8.270791095E0
8.745737083E-1,-8.669477198E0,-2.425196427E0,9.692116624E-1,9.054324041E0
8.845587083E-1,-9.737734846E0,-1.551671525E0,6.871326238E-1,9.884498758E0
8.945437084E-1,-1.062142864E1,-8.940509677E-1,4.774473774E-1,1.066967804E1
9.045297083E-1,-1.103621258E1,-5.075389034E-1,3.873716050E-1,1.105466601E1
9.145147083E-1,-1.124683630E1,-1.253812605E-1,2.805356660E-1,1.125103318E1
9.245007084E-1,-1.157149477E1,2.942734069E-1,2.584209117E-1,1.157812028E1
9.344857084E-1,-1.193905425E1,6.326921225E-1,4.057634372E-1,1.196269032E1
9.444717083E-1,-1.239044410E1,8.023520082E-1,7.420631218E-1,1.243855021E1
9.544567083E-1,-1.270236732E1,9.188612884E-1,1.188034353E0,1.279085092E1
9.644427084E-1,-1.274634306E1,9.610448563E-1,1.203945796E0,1.283909476E1
9.744277084E-1,-1.272946449E1,8.180038351E-1,8.655919844E-1,1.278505557E1
9.844127083E-1,-1.260301728E1,5.549340945E-1,8.235879260E-1,1.264208422E1
9.943987083E-1,-1.239461433E1,2.232607269E-1,1.262971099E0,1.246079475E1
1.004383708E0,-1.197415158E1,-2.140537012E-1,1.676966831E0,1.209290464E1
1.014369708E0,-1.132512350E1,-8.866700274E-1,1.896016978E0,1.151692175E1
1.024354708E0,-1.059864438E1,-1.403600729E0,1.860693071E0,1.085189091E1
1.034340708E0,-9.809898843E0,-1.796614897E0,1.829734403E0,1.013952013E1
1.044325708E0,-9.219916538E0,-2.379005762E0,1.906505129E0,9.710885191E0
1.054311708E0,-8.818157274E0,-3.035986049E0,2.008969397E0,9.540076888E0
1.064296708E0,-8.336093520E0,-3.762753439E0,2.146420480E0,9.394460575E0
1.074281708E0,-7.775192342E0,-4.546794307E0,2.121892872E0,9.253614633E0
1.084267708E0,-7.260204670E0,-5.198959996E0,1.907389520E0,9.131149527E0
1.094252708E0,-6.678675685E0,-5.709283344E0,1.626084799E0,8.935590466E0
1.104238708E0,-5.888016939E0,-6.351208804E0,1.397636422E0,8.772683986E0
1.114223708E0,-5.210604726E0,-6.874034083E0,1.324813444E0,8.726848048E0
1.124209708E0,-4.176697131E0,-7.361579018E0,1.306279086E0,8.564111723E0
1.134195208E0,-2.683438706E0,-7.870049382E0,1.215125672E0,8.403276205E0
1.144181208E0,-1.569192414E0,-8.192971807E0,1.262116821E0,8.436829424E0
1.154166208E0,-7.979585566E-1,-8.527056566E0,1.674310880E0,8.726439621E0
1.164151208E0,-3.217701577E-1,-8.794634510E0,2.063275412E0,9.039150272E0
1.174137208E0,-2.036356805E-1,-9.070900247E0,2.176979783E0,9.330698782E0
1.184122208E0,-3.515980473E-1,-9.382270913E0,2.074193918E0,9.615243578E0
1.194108208E0,-1.647753776E-1,-9.541310501E0,1.877165993E0,9.725610992E0
1.204093208E0,5.606349836E-1,-9.631445330E0,1.332591265E0,9.739345471E0
1.214079208E0,1.048660267E0,-9.586481996E0,7.274678868E-1,9.671066897E0
1.224064208E0,1.537297168E0,-9.237979172E0,4.719473402E-1,9.376901197E0
1.234050208E0,1.608997627E0,-8.963230203E0,5.584354073E-1,9.123607792E0
1.244035208E0,1.423239187E0,-8.701536312E0,7.786637682E-1,8.851477913E0
1.254020208E0,1.419006095E0,-8.406838982E0,9.616208071E-1,8.579815531E0
1.264006208E0,1.748233865E0,-8.138990897E0,1.350371186E0,8.433445133E0
1.273991208E0,2.432925861E0,-7.551953250E0,1.772984252E0,8.129858503E0
1.283977208E0,3.007703066E0,-6.919614299E0,1.900910805E0,7.780796982E0
1.293962208E0,4.226693748E0,-6.319438543E0,1.414181558E0,7.733055865E0
1.303948208E0,5.464375055E0,-5.628855477E0,6.359969687E-1,7.870698880E0
1.313933208E0,6.108970939E0,-4.911608523E0,7.704186094E-1,7.876355061E0
1.323919208E0,7.177167776E0,-3.754969041E0,1.708754927E0,8.278367785E0
1.333904208E0,8.643168821E0,-2.450559309E0,2.684242698E0,9.376287488E0
1.343890208E0,9.962757339E0,-1.304413240E0,2.982751535E0,1.048116570E1
1.353875208E0,1.087630994E1,-3.814162159E-1,2.490729096E0,1.116437762E1
1.363860208E0,1.142497874E1,3.593710434E-1,1.679630238E0,1.155337373E1
1.373846208E0,1.167407130E1,6.963940287E-1,1.038634484E0,1.174085461E1
1.383831208E0,1.206908931E1,7.564484417E-1,7.331440714E-1,1.211497549E1
1.393817208E0,1.300993437E1,9.896891963E-1,6.078437948E-1,1.306167490E1
1.403802208E0,1.433523036E1,1.516403459E0,4.218228149E-1,1.442138147E1
1.413788208E0,1.549024958E1,1.984681817E0,2.406135088E-1,1.561872878E1
1.423773208E0,1.604648351E1,2.176890321E0,3.777137589E-1,1.619787493E1
1.433759208E0,1.610977728E1,2.188059672E0,9.302268139E-1,1.628428233E1
1.443744208E0,1.574460229E1,1.982651664E0,1.388368439E0,1.592956295E1
1.453729208E0,1.520558607E1,1.483048602E0,1.648830906E0,1.536645451E1
1.463715208E0,1.401751488E1,6.870729822E-1,1.645076117E0,1.413043057E1
1.473700208E0,1.239372204E1,-3.028623819E-2,1.200048627E0,1.245172197E1
1.483686208E0,1.088373474E1,-8.957794046E-1,8.022482201E-1,1.094996369E1
1.493671208E0,9.435572961E0,-1.688336157E0,5.190012002E-1,9.599472815E0
1.503657208E0,8.222082755E0,-2.287510870E0,3.616345006E-1,8.542021442E0
1.513642208E0,7.285695022E0,-2.888145633E0,3.696393389E-1,7.845977976E0
1.523628208E0,6.624842709E0,-3.282492966E0,4.976074076E-1,7.410189885E0
1.533613208E0,6.255913807E0,-3.739291486E0,7.161231190E-1,7.323359250E0
1.543599208E0,6.024994982E0,-4.318302076E0,8.526912725E-1,7.461593647E0
1.553584208E0,5.772626815E0,-4.948452998E0,1.022868637E0,7.671809935E0
1.563569208E0,5.179658922E0,-5.636246942E0,1.263649084E0,7.758411896E0
1.573555208E0,4.608697025E0,-6.372883263E0,1.404088679E0,7.989067178E0
1.583540208E0,4.059194701E0,-7.042069613E0,1.390508228E0,8.246291238E0
1.593526208E0,3.399996858E0,-7.444596616E0,1.198637109E0,8.271561420E0
1.603511208E0,2.865182155E0,-7.898168643E0,1.199544889E0,8.487004456E0
1.613497208E0,2.626480101E0,-8.255966200E0,1.272709637E0,8.756664059E0
1.623482208E0,2.334600252E0,-8.445417742E0,1.302257664E0,8.858403591E0
1.633468208E0,2.014758871E0,-8.692194800E0,1.680942645E0,9.079596463E0
1.643453208E0,1.711727066E0,-8.790678284E0,1.968351129E0,9.169538724E0
1.653438208E0,1.524678000E0,-8.692072594E0,1.909084628E0,9.028918711E0
1.663424208E0,1.345378540E0,-8.647359520E0,1.773944657E0,8.929375663E0
1.673409208E0,1.263701709E0,-8.468730590E0,1.740699143E0,8.737641176E0
1.683395208E0,1.186418913E0,-8.490958781E0,1.568432861E0,8.715730175E0
1.693380208E0,6.159812187E-1,-8.532767542E0,1.556068338E0,8.695338030E0
1.703366208E0,-1.341371736E-1,-8.496064569E0,1.741870632E0,8.673823796E0
1.713351208E0,-9.594848192E-1,-8.026336101E0,1.722269304E0,8.264919472E0
1.723337208E0,-1.564341272E0,-7.492273643E0,1.664020219E0,7.832642673E0
1.733322208E0,-2.159122679E0,-7.162939162E0,1.841440237E0,7.704570742E0
1.743307208E0,-2.848977474E0,-6.659655277E0,1.855419760E0,7.477316600E0
1.753293208E0,-3.627914892E0,-6.197285530E0,1.994712131E0,7.452985367E0
1.763278208E0,-4.912988466E0,-5.851618021E0,2.234733025E0,7.960711075E0
1.773264208E0,-6.467861341E0,-5.510275113E0,2.457436804E0,8.845075341E0
1.783249208E0,-8.185420128E0,-4.718006628E0,2.439849549E0,9.757743337E0
1.793235208E0,-9.909072883E0,-3.925045833E0,2.343129585E0,1.091265167E1
1.803220208E0,-1.159599226E1,-3.303948154E0,1.932202180E0,1.221132733E1
1.813206208E0,-1.334768943E1,-2.588397478E0,1.408822584E0,1.366914027E1
1.823191208E0,-1.492682591E1,-2.065021976E0,1.006777684E0,1.510258418E1
1.833177208E0,-1.634008039E1,-1.426932873E0,9.501573408E-1,1.642976457E1
1.843162208E0,-1.732375514E1,-6.977073133E-1,1.077593313E0,1.737125485E1
1.853147208E0,-1.742653399E1,-3.554656881E-1,6.637803063E-1,1.744279356E1
1.863133208E0,-1.694727749E1,-3.603077674E-1,-1.137298062E-1,1.695148874E1
1.873118208E0,-1.624463278E1,-4.517763466E-1,-9.292535448E-1,1.627746013E1
1.883104208E0,-1.528761432E1,-5.626915956E-1,-1.359677614E0,1.535827128E1
1.893089208E0,-1.441883736E1,-7.013442814E-1,-1.026223477E0,1.447231458E1
1.903075208E0,-1.337285819E1,-8.751223612E-1,-1.637077126E-1,1.340246154E1
1.913060208E0,-1.231766263E1,-8.850883555E-1,6.854424861E-1,1.236842858E1
1.923046208E0,-1.126911419E1,-1.236207808E0,1.507568024E0,1.143651633E1
1.933031208E0,-1.048802208E1,-1.740625468E0,2.094673499E0,1.083586827E1
1.943016208E0,-9.751878676E0,-2.237914787E0,2.332857197E0,1.027373462E1
1.953002208E0,-9.052209622E0,-2.862156513E0,2.454094243E0,9.805968464E0
1.962987208E0,-8.324003817E0,-3.480983718E0,2.392507860E0,9.334365594E0
1.972973208E0,-7.488994524E0,-4.228598186E0,2.136251003E0,8.861695659E0
1.982958208E0,-6.823214178E0,-5.013124373E0,1.705314133E0,8.636883928E0
1.992944208E0,-6.019900303E0,-5.757120584E0,1.219231295E0,8.418441781E0
2.002929208E0,-5.320338253E0,-6.302833620E0,8.657796800E-1,8.293448331E0
2.012915208E0,-4.776979306E0,-6.829257275E0,8.216133213E-1,8.374564746E0
2.022900208E0,-4.035848231E0,-7.468373149E0,6.715296212E-1,8.515610399E0
2.032886208E0,-3.466663887E0,-7.950272596E0,4.601074594E-1,8.685406826E0
2.042871208E0,-3.293405040E0,-8.413601287E0,4.882480618E-1,9.048402596E0
2.052856208E0,-3.085254980E0,-8.830967939E0,6.825896296E-1,9.379270848E0
2.062842208E0,-2.705314601E0,-9.306992104E0,8.573579353E-1,9.730050963E0
2.072827208E0,-2.226761954E0,-9.792556586E0,8.402983913E-1,1.007763537E1
2.082813208E0,-1.506880829E0,-1.001260602E1,5.187363213E-1,1.013864175E1
2.092798208E0,-4.681254904E-1,-9.955109181E0,1.416166395E-2,9.966119648E0
2.102784208E0,7.339210933E-1,-9.883720526E0,-1.181160951E-1,9.911635738E0
2.112769208E0,1.937226107E0,-9.638851998E0,-3.611781254E-1,9.838229641E0
2.122755208E0,2.860170799E0,-9.252171534E0,-6.666471961E-1,9.707093982E0
2.132739792E0,3.196058840E0,-8.832537916E0,-2.571435875E-1,9.396522813E0
2.142724792E0,3.701914622E0,-8.380720639E0,6.170017040E-1,9.182665267E0
2.152710792E0,4.646964127E0,-7.683909119E0,1.331527656E0,9.077978897E0
2.162695792E0,5.346423267E0,-6.711977332E0,1.579744592E0,8.725277900E0
2.172681792E0,6.123129972E0,-5.848731251E0,1.048979963E0,8.532334783E0
2.182666792E0,6.927500439E0,-5.224034026E0,6.969030288E-1,8.704393584E0
2.192652792E0,7.789346112E0,-4.281100920E0,1.273471529E0,8.979057171E0
2.202637792E0,9.004300461E0,-2.961483750E0,2.092501550E0,9.707027121E0
2.212623792E0,9.983543022E0,-1.651795152E0,2.552413128E0,1.043620483E1
2.222608792E0,1.075837979E1,-6.190207475E-1,2.411620654E0,1.104272777E1
2.232593792E0,1.184382766E1,2.539738119E-1,2.251479158E0,1.205860335E1
2.242579792E0,1.253353482E1,8.839534110E-1,2.397129207E0,1.279128989E1
2.252564792E0,1.277964646E1,1.362738631E0,2.632281416E0,1.311889194E1
2.262550792E0,1.300694879E1,1.977068743E0,2.627821745E0,1.341622021E1
2.272535792E0,1.341394657E1,2.391242815E0,2.185807325E0,1.379962892E1
2.282521792E0,1.382176413E1,2.518696913E0,1.504253529E0,1.412967716E1
2.292506792E0,1.402933210E1,2.614834494E0,9.412108085E-1,1.430193681E1
2.302492792E0,1.450711745E1,2.741178206E0,6.103662837E-1,1.477643603E1
2.312477792E0,1.504274112E1,2.829980455E0,3.784513852E-1,1.531130547E1
2.322463792E0,1.513347236E1,2.683454493E0,4.963891402E-1,1.537755884E1
2.332448792E0,1.440797089E1,2.433797096E0,9.858396819E-1,1.464530209E1
2.342433792E0,1.328926873E1,1.983928696E0,1.523920639E0,1.352268356E1
2.352419792E0,1.217824981E1,1.416373386E0,1.870683624E0,1.240223122E1
2.362404792E0,1.118200705E1,7.930771548E-1,1.880592608E0,1.136674455E1
2.372390792E0,1.029620534E1,9.829754233E-2,1.748680885E0,1.044410798E1
2.382375792E0,9.416131554E0,-5.508626783E-1,1.737343133E0,9.590899034E0
2.392361792E0,8.793251059E0,-1.077061216E0,1.906645754E0,9.061822283E0
2.402346792E0,8.416355910E0,-1.741906593E0,1.912430405E0,8.804923364E0
2.412332792E0,7.885243957E0,-2.502045212E0,1.950710371E0,8.499563133E0
2.422317792E0,7.158044457E0,-3.161995300E0,2.220188368E0,8.134190256E0
2.432303792E0,6.723205156E0,-3.758738741E0,2.489707003E0,8.094951850E0
2.442288792E0,6.507413077E0,-4.400631457E0,2.483855402E0,8.239024204E0
2.452273792E0,6.390600911E0,-5.129381638E0,2.334407879E0,8.520551399E0
2.462259792E0,5.902833198E0,-5.847850075E0,2.365209841E0,8.639155506E0
2.472244792E0,5.207988682E0,-6.407724482E0,2.633415776E0,8.667003969E0
2.482230792E0,4.721724873E0,-6.977656100E0,2.754443492E0,8.863934193E0
2.492215792E0,4.262593313E0,-7.667326416E0,2.615117499E0,9.154039308E0
2.502201792E0,3.585724307E0,-8.285232684E0,2.463800329E0,9.358034596E0
2.512186792E0,3.216083799E0,-8.766347435E0,2.215804418E0,9.596969916E0
2.522172792E0,2.815776106E0,-9.153730150E0,2.065087318E0,9.797140214E0
2.532157792E0,2.252811300E0,-9.413822488E0,2.036326765E0,9.891503388E0
2.542142792E0,1.971333647E0,-9.712698238E0,1.951747960E0,1.010108823E1
2.552128792E0,1.287262626E0,-1.004723440E1,2.052096121E0,1.033513729E1
2.562113792E0,2.625861758E-1,-1.011473349E1,2.234546791E0,1.036194887E1
2.572099792E0,-6.714758268E-1,-9.979861615E0,2.216669952E0,1.024510338E1
2.582084792E0,-1.678829608E0,-9.683560393E0,1.876639159E0,1.000557771E1
2.592070792E0,-2.545766013E0,-9.305088835E0,1.461848937E0,9.757182234E0
2.602055792E0,-3.635691689E0,-8.612351655E0,1.117468400E0,9.414860101E0
2.612041792E0,-4.759594365E0,-7.933375897E0,1.163765776E0,9.324512986E0
2.622026792E0,-5.440634190E0,-7.324784828E0,1.406973987E0,9.232147582E0
2.632012792E0,-6.107809682E0,-6.582303631E0,1.553066378E0,9.112852208E0
2.641997792E0,-6.495038030E0,-5.749940203E0,1.712560295E0,8.841956464E0
2.651982792E0,-6.610360910E0,-4.978271459E0,2.190052111E0,8.560162752E0
2.661968792E0,-7.258183873E0,-4.234038436E0,2.658683349E0,8.813450616E0
2.671953792E0,-8.224677165E0,-3.561672370E0,2.815561514E0,9.394584140E0
2.681939792E0,-9.680973585E0,-3.071829481E0,2.662317686E0,1.049977721E1
2.691924792E0,-1.135684816E1,-2.430972306E0,2.005531819E0,1.178599950E1
2.701910792E0,-1.231745447E1,-1.797282064E0,1.156150655E0,1.250146359E1
2.711895792E0,-1.301759773E1,-1.050142974E0,3.073083124E-1,1.306350219E1
2.721881792E0,-1.334641357E1,-2.365128565E-1,-2.079056463E-1,1.335012802E1
2.731866792E0,-1.338701897E1,2.613331175E-1,-7.993903935E-2,1.338980815E1
2.741852792E0,-1.369114786E1,5.278164625E-1,2.558405355E-1,1.370370659E1
2.751837792E0,-1.386160355E1,6.448116463E-1,5.291031423E-1,1.388667654E1
2.761822792E0,-1.360200823E1,7.863762456E-1,6.852445579E-1,1.364194178E1
2.771808792E0,-1.327964187E1,8.803871942E-1,8.194197384E-1,1.333399485E1
2.781793792E0,-1.282258140E1,8.133272320E-1,9.318605259E-1,1.288209839E1
2.791779792E0,-1.227228005E1,6.053610671E-1,1.167713816E0,1.234256356E1
2.801764792E0,-1.161536993E1,3.078950804E-1,1.180962438E0,1.167931035E1
2.811750792E0,-1.083592556E1,-6.950585246E-3,1.036560477E0,1.088539336E1
2.821735792E0,-1.012153731E1,-3.876125103E-1,8.777322659E-1,1.016691570E1
2.831721792E0,-9.681019778E0,-8.263583368E-1,8.752398902E-1,9.755565433E0
2.841706792E0,-9.200975068E0,-1.404781866E0,1.017983873E0,9.363100205E0
2.851691792E0,-8.581973616E0,-2.046618449E0,1.268085659E0,8.913302388E0
2.861677792E0,-7.903604214E0,-2.686033700E0,1.574527414E0,8.494755629E0
2.871662792E0,-7.277988392E0,-3.276241123E0,1.808972402E0,8.183840913E0
2.881648792E0,-6.785837606E0,-3.831144227E0,1.913414199E0,8.024114406E0
2.891633792E0,-6.041446123E0,-4.243878715E0,1.877419032E0,7.618023367E0
2.901619792E0,-5.344037018E0,-4.636384760E0,1.990369989E0,7.349582844E0
2.911604792E0,-4.824330936E0,-5.204734706E0,2.129854441E0,7.409434005E0
2.921590792E0,-4.291905990E0,-5.817101322E0,2.159149576E0,7.544604146E0
2.931575792E0,-3.707486726E0,-6.335938216E0,2.418801181E0,7.729176544E0
2.941561792E0,-3.056492819E0,-6.759768380E0,2.959876935E0,7.987332995E0
2.951546792E0,-2.430193018E0,-7.261871712E0,3.404258308E0,8.380309869E0
2.961531792E0,-1.362003929E0,-7.881795269E0,2.758543267E0,8.460928573E0
2.971517792E0,-9.447784871E-1,-8.081249642E0,1.808462379E0,8.334850829E0
2.981502792E0,-1.192013821E0,-8.191272606E0,1.815749179E0,8.474360680E0
2.991488792E0,-1.551431496E0,-8.503894576E0,2.269213763E0,8.937141251E0
3.001473792E0,-1.799038421E0,-8.804725635E0,2.500678718E0,9.328082697E0
3.011459792E0,-1.925134358E0,-9.090642786E0,2.550727376E0,9.635981460E0
3.021444792E0,-2.094562401E0,-9.432423066E0,2.757802425E0,1.004804811E1
3.031430792E0,-2.205570914E0,-9.880913862E0,3.032137411E0,1.056838962E1
3.041415792E0,-1.829822989E0,-1.040243053E1,2.435156574E0,1.083922510E1
3.051401792E0,-1.002437881E0,-1.065669671E1,1.033253292E0,1.075349612E1
3.061386792E0,-8.241124213E-2,-1.059478522E1,-3.530586818E-1,1.060098655E1
3.071371792E0,2.844506693E-1,-1.035285550E1,-1.008962350E0,1.040579330E1
3.081357792E0,-1.447489929E-1,-1.022917052E1,-4.855577579E-1,1.024171119E1
3.091342792E0,-5.409753290E-1,-1.012718572E1,5.208629537E-1,1.015499105E1
3.101328792E0,2.957048053E-1,-9.710541785E0,1.026234002E0,9.769095113E0
3.111313792E0,1.784134600E0,-9.151319343E0,1.117636800E0,9.390361761E0
3.121299792E0,3.476607662E0,-8.549478884E0,1.286055906E0,9.318493968E0
3.131284292E0,6.144782211E0,-7.554956380E0,1.222688461E0,9.814819478E0
3.141270292E0,9.409938768E0,-5.970098398E0,1.600435841E0,1.125834879E1
3.151255292E0,1.161355613E1,-4.113201631E0,2.628374599E0,1.259767703E1
3.161240292E0,1.249226517E1,-2.640379810E0,3.534931299E0,1.324854837E1
3.171226292E0,1.301512670E1,-1.616908325E0,3.837361279E0,1.366503777E1
3.181211292E0,1.339435606E1,-6.828518772E-1,3.561534376E0,1.387658416E1
3.191197292E0,1.400540998E1,-2.422501445E-1,3.286030239E0,1.438777913E1
3.201182292E0,1.507544459E1,1.603604740E-1,2.458833996E0,1.527549049E1
3.211168292E0,1.607906186E1,9.549193132E-1,1.321790580E0,1.616153555E1
3.221153292E0,1.705063287E1,1.470171279E0,3.355471480E-1,1.711718659E1
3.231139292E0,1.831010441E1,1.900744452E0,-3.686964753E-1,1.841218863E1
3.241124292E0,1.923941994E1,2.329131936E0,-4.824411920E-1,1.938589396E1
3.251110292E0,1.909118717E1,2.298881366E0,3.007208392E-1,1.923145122E1
3.261095292E0,1.825448102E1,1.843413087E0,1.285763253E0,1.839232003E1
3.271080292E0,1.682674766E1,1.289896358E0,1.837999443E0,1.697590974E1
3.281066292E0,1.555678622E1,6.766193300E-1,1.972885937E0,1.569597687E1
3.291051292E0,1.429248721E1,6.268273652E-2,1.849313220E0,1.441176878E1
3.301037292E0,1.291108953E1,-5.889409161E-1,1.680896160E0,1.303336089E1
3.311022292E0,1.161308016E1,-1.267379900E0,1.613882683E0,1.179298520E1
3.321008292E0,1.050290909E1,-2.017925577E0,1.675216759E0,1.082540873E1
3.330993292E0,9.509965916E0,-2.771022980E0,1.603076736E0,1.003433481E1
3.340979292E0,8.505954550E0,-3.486811638E0,1.494874011E0,9.313633368E0
3.350964292E0,7.473619271E0,-4.144198306E0,1.686767934E0,8.710599903E0
3.360950292E0,6.476529254E0,-4.665413847E0,2.166121796E0,8.270646962E0
3.370935292E0,5.723524237E0,-5.157937101E0,2.642324886E0,8.145239446E0
3.380920292E0,5.080300110E0,-5.833094627E0,3.053695218E0,8.316218889E0
3.390906292E0,4.309188606E0,-6.512130026E0,3.285900723E0,8.471958893E0
3.400891292E0,3.557265909E0,-7.114989654E0,3.393895873E0,8.648453487E0
3.410877292E0,2.921072181E0,-7.599700443E0,3.466466251E0,8.848982867E0
3.420862292E0,2.552807815E0,-7.990941736E0,3.471481993E0,9.078720438E0
3.430848292E0,2.038274180E0,-8.426766878E0,3.316763497E0,9.282557931E0
3.440833292E0,1.416181890E0,-8.799198847E0,3.218102258E0,9.475634735E0
3.450819292E0,8.400842370E-1,-9.145637603E0,3.024089304E0,9.669206007E0
3.460804292E0,3.010026019E-1,-9.591197775E0,2.697431678E0,9.967839033E0
3.470790292E0,-3.354008214E-1,-9.822713016E0,2.291755218E0,1.009209229E1
3.480775292E0,-8.458214519E-1,-9.837480744E0,1.896229670E0,1.005420948E1
3.490760292E0,-9.370819433E-1,-9.639125648E0,1.309504411E0,9.772700119E0
3.500746292E0,-7.937624484E-1,-9.437307830E0,6.899859188E-1,9.495731592E0
3.510731292E0,-5.003882702E-1,-9.253936808E0,3.912139566E-1,9.275709311E0
3.520717292E0,-3.092297074E-1,-8.958037875E0,2.910293716E-1,8.968096993E0
3.530702292E0,-5.460812639E-1,-8.777460653E0,2.819153166E-1,8.798948603E0
3.540688292E0,-8.295259197E-1,-8.489882308E0,5.894749130E-1,8.550654684E0
3.550673292E0,-1.206423554E0,-8.268786805E0,9.839228185E-1,8.414059492E0
3.560659292E0,-1.973469197E0,-8.279327581E0,1.106916515E0,8.582954621E0
3.570644292E0,-2.936887438E0,-8.103846207E0,8.885374819E-1,8.665283032E0
3.580630292E0,-4.042898511E0,-7.533569604E0,8.218798082E-1,8.589248265E0
3.590615292E0,-5.099595337E0,-6.748799003E0,1.179201987E0,8.540648565E0
3.600600292E0,-6.281552678E0,-5.753359655E0,1.651240105E0,8.676730102E0
3.610586292E0,-7.551585460E0,-4.550858706E0,1.932595113E0,9.026166506E0
3.620571292E0,-8.866060588E0,-3.317844647E0,1.856609960E0,9.646871203E0
3.630557292E0,-1.011817633E1,-2.251368645E0,1.386554633E0,1.045794850E1
3.640542292E0,-1.170085389E1,-1.237091907E0,7.282701248E-1,1.178858581E1
3.650528292E0,-1.287282301E1,-1.123741293E-1,3.216962636E-1,1.287733236E1
3.660513292E0,-1.350003045E1,9.068791741E-1,4.367884710E-1,1.353750480E1
3.670499292E0,-1.403474779E1,1.709077985E0,6.909423772E-1,1.415529917E1
3.680484292E0,-1.435078980E1,2.198661259E0,1.026487771E0,1.455448235E1
3.690469292E0,-1.439364054E1,2.484254474E0,1.432291262E0,1.467650730E1
3.700455292E0,-1.425737819E1,2.626328951E0,1.653047918E0,1.459119612E1
3.710440292E0,-1.414590336E1,2.606103432E0,1.813527383E0,1.449783565E1
3.720426292E0,-1.397191362E1,2.387293020E0,2.219981084E0,1.434718976E1
3.730411292E0,-1.371615991E1,1.993034565E0,2.827507375E0,1.414567169E1
3.740397292E0,-1.327247085E1,1.531095757E0,3.387998371E0,1.378336931E1
3.750382292E0,-1.240155380E1,1.142599733E0,3.464307167E0,1.292692907E1
3.760368292E0,-1.114236527E1,6.280880249E-1,3.120498780E0,1.158811076E1
3.770353292E0,-9.832469680E0,-2.245857060E-2,2.561306451E0,1.016062277E1
3.780339292E0,-8.676156473E0,-6.208152580E-1,2.181345607E0,8.967684839E0
3.790324292E0,-7.962690328E0,-1.203189751E0,2.332638365E0,8.384110244E0
3.800309292E0,-7.477914051E0,-1.984495291E0,2.547292137E0,8.145312599E0
3.810295292E0,-7.088521063E0,-2.760987403E0,2.496232495E0,8.006332430E0
3.820280292E0,-6.639014021E0,-3.387521823E0,2.299805226E0,7.800058676E0
3.830266292E0,-6.150143523E0,-4.102735115E0,2.212333218E0,7.716937155E0
3.840251292E0,-5.952163818E0,-4.880951571E0,2.008916918E0,7.955356029E0
3.850237292E0,-5.931754696E0,-5.595973075E0,1.815286226E0,8.354393605E0
3.860222292E0,-5.708416786E0,-6.339569337E0,1.683108016E0,8.695344396E0
3.870208292E0,-5.489949607E0,-7.002645346E0,1.539862342E0,9.030380089E0
3.880193292E0,-5.186010168E0,-7.516582857E0,1.586021432E0,9.268720693E0
3.890179292E0,-4.608957810E0,-8.015401808E0,1.787541187E0,9.417242789E0
3.900164292E0,-3.739662492E0,-8.473234701E0,1.712491590E0,9.418779607E0
3.910150292E0,-2.489415811E0,-8.787979209E0,1.155317281E0,9.206548087E0
3.920135292E0,-1.763556932E0,-8.772513909E0,9.796682382E-1,9.001493387E0
3.930120292E0,-1.569967609E0,-8.877542766E0,1.414342648E0,9.125564584E0
3.940106292E0,-1.825567239E0,-9.184124562E0,1.903334330E0,9.555287608E0
3.950091292E0,-2.153015116E0,-9.365175408E0,1.920393289E0,9.799484420E0
3.960077292E0,-2.441755449E0,-9.669149930E0,1.690691269E0,1.011499219E1
3.970062292E0,-2.979775010E0,-1.013039935E1,1.766085853E0,1.070621826E1
3.980048292E0,-3.084443679E0,-1.040625344E1,2.346639961E0,1.110453163E1
3.990033292E0,-2.721012037E0,-1.077331241E1,2.933870274E0,1.149242192E1
4.000019292E0,-1.706560759E0,-1.100839270E1,2.524664874E0,1.142238995E1
4.010004292E0,-1.956077823E-1,-1.078737964E1,1.232934245E0,1.085937147E1
4.019990292E0,1.161313162E0,-1.029335423E1,1.104778042E0,1.041740487E1
4.029975292E0,2.271618138E0,-9.515176370E0,2.160019349E0,1.001820912E1
4.039960292E0,3.394122745E0,-8.449480387E0,3.349366987E0,9.702167141E0
4.049946292E0,4.504781477E0,-7.096499004E0,4.303216844E0,9.443041326E0
4.059931292E0,5.787037278E0,-6.171965332E0,4.928742034E0,9.791601226E0
4.069917292E0,6.741964778E0,-5.763345530E0,4.976719608E0,1.017044634E1
4.079902292E0,8.000700738E0,-5.216571810E0,4.245737545E0,1.045227827E1
4.089888292E0,9.623012475E0,-4.166009005E0,3.282315795E0,1.098779310E1
4.099873292E0,1.114420831E1,-2.898508068E0,2.604212442E0,1.180578885E1
4.109859292E0,1.295110086E1,-1.698298059E0,2.411910968E0,1.328279128E1
4.119844292E0,1.482716363E1,-6.204281723E-1,1.812909333E0,1.495046329E1
4.129831333E0,1.661533573E1,3.184604144E-1,1.070900590E0,1.665285641E1
4.139816333E0,1.794936863E1,9.306206238E-1,7.909715724E-1,1.799087338E1
4.149801333E0,1.858459376E1,1.274476665E0,1.029018738E0,1.865664213E1
4.159787333E0,1.886101270E1,1.513011489E0,1.351176347E0,1.896978337E1
4.169772333E0,1.885777568E1,1.558562468E0,1.422662359E0,1.897547862E1
4.179758333E0,1.847591975E1,1.300515486E0,1.326764807E0,1.856909411E1
4.189743333E0,1.755548264E1,1.085526230E0,9.366947114E-1,1.761393581E1
4.199729333E0,1.652728719E1,7.333291358E-1,5.558851442E-1,1.655288500E1
4.209714333E0,1.508371840E1,1.329867339E-1,4.113466510E-1,1.508991227E1
4.219700333E0,1.337953571E1,-3.808496207E-1,3.559223557E-1,1.338968644E1
4.229685333E0,1.159103148E1,-8.661182338E-1,5.004351211E-1,1.163411393E1
4.239670333E0,1.001841582E1,-1.480571721E0,7.012144732E-1,1.015147525E1
4.249656333E0,8.816185593E0,-2.145115966E0,6.029578614E-1,9.093415700E0
4.259641333E0,7.623128482E0,-2.855661426E0,4.157142287E-1,8.151055659E0
4.269627333E0,6.681668875E0,-3.406024168E0,3.333942032E-1,7.507120039E0
4.279612333E0,6.143875893E0,-3.806232750E0,3.623893762E-1,7.236431772E0
4.289598333E0,5.721727388E0,-4.267521347E0,5.912011573E-1,7.162361451E0
4.299583333E0,5.730961311E0,-4.490614843E0,1.125766184E0,7.367285030E0
4.309569333E0,5.852889791E0,-4.575795912E0,1.643556718E0,7.608909633E0
4.319554333E0,5.483228232E0,-5.019421239E0,2.294901751E0,7.779907163E0
4.329540333E0,4.750607779E0,-5.669801774E0,3.019523213E0,7.989521066E0
4.339525333E0,4.046818777E0,-5.894651189E0,3.640363614E0,8.023459484E0
4.349511333E0,3.813834715E0,-6.114353886E0,4.246951427E0,8.364643154E0
4.359496333E0,3.212916362E0,-6.533209823E0,4.507174158E0,8.562726262E0
4.369481333E0,2.432465100E0,-6.907907588E0,4.329531654E0,8.507697577E0
4.379467333E0,1.828400653E0,-7.243300370E0,4.064280902E0,8.504518120E0
4.389452333E0,1.468180887E0,-7.578545802E0,3.947550012E0,8.670240059E0
4.399438333E0,1.244557486E0,-7.880177929E0,3.740037006E0,8.811016079E0
4.409423333E0,9.771143205E-1,-8.106113757E0,3.514827987E0,8.889198413E0
4.419409333E0,9.312272725E-1,-8.021381171E0,3.116325622E0,8.655704795E0
4.429394333E0,9.398921882E-1,-7.833690226E0,3.025286813E0,8.449997644E0
4.439380333E0,1.184673519E0,-7.799865253E0,3.295106580E0,8.549799804E0
4.449365333E0,1.402190965E0,-7.837763981E0,3.607683526E0,8.741399439E0
4.459351333E0,1.556379849E0,-7.996306556E0,4.094132107E0,9.117299736E0
4.469336333E0,9.824268814E-1,-8.167615941E0,4.425617779E0,9.341370642E0
4.479321333E0,1.336679345E-1,-8.265837470E0,4.467927647E0,9.397037493E0
4.489307333E0,-5.870475876E-1,-8.180986184E0,4.268299026E0,9.246163334E0
4.499292333E0,-7.187412098E-1,-7.964870755E0,3.853657762E0,8.877298757E0
4.509278333E0,-2.620382917E-1,-7.666888459E0,3.251877530E0,8.332139592E0
4.519263333E0,6.186529577E-2,-7.553101058E0,2.973668763E0,8.117627044E0
4.529249333E0,-6.591829330E-1,-7.443738245E0,3.171574793E0,8.118044584E0
4.539234333E0,-2.503527189E0,-7.362933818E0,3.270112072E0,8.436472945E0
4.549220333E0,-5.164404706E0,-7.118547100E0,3.052445961E0,9.309254273E0
4.559205333E0,-8.615116804E0,-6.669732953E0,2.927438337E0,1.128164307E1
4.569191333E0,-1.152623381E1,-6.004055518E0,2.314726589E0,1.320078436E1
4.579176333E0,-1.357662430E1,-5.144548146E0,9.495330043E-1,1.454966377E1
4.589161333E0,-1.453095655E1,-4.028511729E0,-4.061832672E-1,1.508451490E1
4.599147333E0,-1.501436575E1,-2.827864932E0,-1.301330734E0,1.533367081E1
4.609132333E0,-1.518698959E1,-1.639976175E0,-1.418131790E0,1.534096712E1
4.619118333E0,-1.512651651E1,-7.701040292E-1,-1.188825481E0,1.519269127E1
4.629103333E0,-1.490116131E1,-2.607255918E-1,-1.195428303E0,1.495130881E1
4.639089333E0,-1.403712644E1,6.875039220E-2,-1.406881601E0,1.410762068E1
4.649074333E0,-1.297661343E1,4.361467391E-1,-1.599264790E0,1.308206283E1
4.659060333E0,-1.231489105E1,6.894229782E-1,-1.283186678E0,1.240074247E1
4.669045333E0,-1.199209200E1,6.541204137E-1,-3.841287392E-1,1.201606005E1
4.679031333E0,-1.178437084E1,4.640683633E-1,6.096089230E-1,1.180924970E1
4.689016333E0,-1.162006174E1,2.208826643E-1,1.776796782E0,1.175719485E1
4.699001333E0,-1.100866751E1,6.039939880E-2,3.023309285E0,1.141642709E1
4.708987333E0,-1.021479338E1,-8.543834567E-2,3.815955500E0,1.090462379E1
4.718972333E0,-9.403693357E0,-3.846199054E-1,3.904734945E0,1.018942276E1
4.728958333E0,-8.599618759E0,-6.558622992E-1,3.372087805E0,9.260376575E0
4.738943333E0,-7.944609568E0,-9.441358781E-1,2.632265044E0,8.422412541E0
4.748929333E0,-7.084365447E0,-1.482066854E0,1.989284161E0,7.506131322E0
4.758914333E0,-6.366297544E0,-1.912850527E0,1.461658317E0,6.806260838E0
4.768900333E0,-6.196856929E0,-2.408064085E0,1.356935416E0,6.785357924E0
4.778885333E0,-6.223316749E0,-3.138705840E0,1.524728140E0,7.134839985E0
4.788871333E0,-6.002288489E0,-3.968787684E0,1.243085888E0,7.302328760E0
4.798856333E0,-5.742061080E0,-4.562078928E0,8.115280437E-1,7.378509834E0
4.808841333E0,-5.514851144E0,-5.087584571E0,1.090733834E0,7.582005025E0
4.818827333E0,-5.107229462E0,-5.667207949E0,1.887023960E0,7.858873847E0
4.828812333E0,-5.061127090E0,-6.024818396E0,2.731801611E0,8.329236710E0
4.838798333E0,-5.022403904E0,-6.498845152E0,3.228491591E0,8.825116840E0
4.848783333E0,-4.923162037E0,-7.131044354E0,3.325029121E0,9.281440442E0
4.858769333E0,-4.806058095E0,-7.662221212E0,3.249663189E0,9.610834467E0
4.868754333E0,-4.625647226E0,-8.099391214E0,3.236149104E0,9.872659789E0
4.878740333E0,-4.426952114E0,-8.561391417E0,3.316810859E0,1.019296631E1
4.888725333E0,-3.812254797E0,-9.011329399E0,3.472285400E0,1.038239424E1
4.898711333E0,-2.568474260E0,-9.239384843E0,2.766946301E0,9.980946054E0
4.908696333E0,-1.467372509E0,-9.316548209E0,2.075254018E0,9.657014644E0
4.918681333E0,-1.308496058E0,-9.512670254E0,2.403093951E0,9.898379556E0
4.928667333E0,-1.454067316E0,-9.701421298E0,3.210043041E0,1.032164053E1
4.938652333E0,-1.414782651E0,-9.714669335E0,3.686995744E0,1.048667478E1
4.948638333E0,-1.366853609E0,-9.720819436E0,3.896701455E0,1.056157666E1
4.958623333E0,-9.754468408E-1,-9.689922164E0,4.463201342E0,1.071290130E1
4.968609333E0,-3.286559120E-1,-9.485850245E0,4.731471596E0,1.060547939E1
4.978594333E0,1.212005306E0,-9.175167797E0,3.872050763E0,1.003222000E1
4.988580333E0,3.738095146E0,-8.336508088E0,2.603013470E0,9.499810605E0
4.998565333E0,5.660761979E0,-7.329725726E0,2.163422429E0,9.510494309E0
5.008551333E0,6.286999360E0,-6.434024674E0,3.173533026E0,9.539095676E0
5.018536333E0,6.662812774E0,-5.496625373E0,4.437573873E0,9.710717091E0
5.028521333E0,7.836147226E0,-4.582280474E0,4.466704994E0,1.011701296E1
5.038507333E0,9.852122172E0,-3.528569528E0,3.476668765E0,1.102734510E1
5.048492333E0,1.135642599E1,-2.556513780E0,2.637422580E0,1.193566805E1
5.058478333E0,1.267358265E1,-1.742153345E0,2.168846306E0,1.297531078E1
5.068463333E0,1.395784872E1,-7.406059957E-1,1.773646449E0,1.408956564E1
5.078449333E0,1.507273733E1,4.071474731E-2,1.535619456E0,1.515081501E1
5.088434333E0,1.641191110E1,7.672593588E-1,1.240217536E0,1.647657890E1
5.098420333E0,1.747930044E1,1.576247957E0,8.060793158E-1,1.756872976E1
5.108405333E0,1.786575929E1,1.919861923E0,4.793360281E-1,1.797501009E1
5.118391333E0,1.755259879E1,1.803294171E0,5.428379595E-1,1.765333587E1
5.128376333E0,1.691491666E1,1.476929491E0,7.651721951E-1,1.699650596E1
5.138361333E0,1.652610254E1,1.268113140E0,6.729238898E-1,1.658833936E1
5.148346333E0,1.638618569E1,9.127532870E-1,3.321224338E-1,1.641494762E1
5.158331333E0,1.578381255E1,4.149043894E-1,1.772846550E-2,1.578927479E1
5.168317333E0,1.477321254E1,7.436371922E-2,-1.809885737E-1,1.477450830E1
5.178302333E0,1.375219864E1,-4.407783186E-1,-2.196015394E-1,1.376101296E1
5.188288333E0,1.239139485E1,-1.055537615E0,-9.764236182E-2,1.243665389E1
5.198273333E0,1.116686744E1,-1.711154916E0,-3.584050834E-3,1.129721171E1
5.208259333E0,1.003260818E1,-2.269782697E0,1.199515361E-1,1.028686195E1
5.218244333E0,8.900309485E0,-2.843447762E0,4.309479797E-1,9.353417571E0
5.228230333E0,7.955353827E0,-3.392167436E0,7.754138857E-1,8.683070950E0
5.238215333E0,7.281082154E0,-3.808786814E0,1.081541353E0,8.287988056E0
5.248200333E0,6.876151360E0,-4.266774657E0,1.440544460E0,8.219610200E0
5.258186333E0,6.540970248E0,-5.130752810E0,1.887480628E0,8.524758020E0
5.268171333E0,5.927178665E0,-5.977724921E0,2.286853643E0,8.723207079E0
5.278157333E0,5.339049343E0,-6.065712653E0,2.533314368E0,8.468529953E0
5.288142333E0,4.957915547E0,-6.121745351E0,3.073090140E0,8.455801306E0
5.298128333E0,4.407868848E0,-6.683749314E0,3.836112022E0,8.877925891E0
5.308113333E0,3.499121781E0,-7.175356894E0,4.465643139E0,9.147216431E0
5.318099333E0,2.605165538E0,-7.440646237E0,5.075513579E0,9.376083511E0
5.328084333E0,2.061928945E0,-7.689500227E0,5.692969027E0,9.787229488E0
5.338070333E0,1.807711743E0,-7.810985488E0,5.899400883E0,9.954006571E0
5.348055333E0,2.049717181E0,-7.628230178E0,5.210224072E0,9.462434732E0
5.358041333E0,2.475115276E0,-7.479383456E0,4.092290819E0,8.877737136E0
5.368026333E0,2.974239451E0,-7.486493670E0,2.924029995E0,8.569926441E0
5.378011333E0,3.130217145E0,-7.446403406E0,2.140752774E0,8.356434975E0
5.387997333E0,2.934882720E0,-7.798877074E0,2.042371032E0,8.579469658E0
5.397982333E0,2.590777879E0,-8.670141442E0,2.445446504E0,9.373563423E0
5.407968333E0,1.172122471E0,-9.245309241E0,3.102663018E0,9.822226421E0
5.417953333E0,5.345773056E-2,-8.865756533E0,4.153957894E0,9.790805014E0
5.427939333E0,-3.790407845E-1,-8.634019682E0,5.106651172E0,1.003831928E1
5.437924333E0,-1.274848841E0,-8.754743636E0,5.239851329E0,1.028235467E1
5.447910333E0,-2.649208813E0,-8.583367007E0,5.189772851E0,1.037430666E1
5.457895333E0,-4.090739260E0,-8.013549995E0,5.476299282E0,1.053285265E1
5.467881333E0,-5.267927320E0,-7.653700649E0,5.301168156E0,1.069731628E1
5.477866333E0,-6.174350996E0,-7.347621714E0,4.039360653E0,1.041280892E1
5.487851333E0,-7.317094570E0,-6.717204158E0,2.487727720E0,1.023960419E1
5.497837333E0,-7.979450203E0,-5.937495493E0,1.649604785E0,1.008199753E1
5.507822333E0,-8.243884683E0,-5.036429036E0,1.253065331E0,9.741530928E0
5.517808333E0,-8.783227762E0,-4.196433823E0,8.900981768E-1,9.774836137E0
5.527793333E0,-9.883819928E0,-3.509951994E0,6.547437268E-1,1.050896516E1
5.537779333E0,-1.059926185E1,-3.000692840E0,1.595652527E-1,1.101698554E1
5.547764333E0,-1.127803705E1,-2.497728213E0,-5.717776570E-1,1.156545267E1
5.557750333E0,-1.217601266E1,-2.022572359E0,-7.727440470E-1,1.236702134E1
5.567735333E0,-1.314868763E1,-1.688893397E0,-6.388937525E-1,1.327209601E1
5.577721333E0,-1.366771924E1,-1.286595020E0,-8.067099380E-1,1.375182376E1
5.587706333E0,-1.349525678E1,-8.962617999E-1,-1.079601247E0,1.356800574E1
5.597692333E0,-1.283752337E1,-5.294887662E-1,-8.208695555E-1,1.287463365E1
5.607677333E0,-1.224972500E1,-3.465820134E-1,-3.131328700E-1,1.225862692E1
5.617662333E0,-1.153964498E1,-3.825441438E-1,1.986920424E-1,1.154769349E1
5.627648333E0,-1.107990063E1,-4.928957212E-1,5.625278004E-1,1.110511512E1
5.637633333E0,-1.067329461E1,-7.869428408E-1,8.127722581E-1,1.073308416E1
5.647619333E0,-1.025365164E1,-1.176396055E0,9.319941348E-1,1.036290947E1
5.657604333E0,-9.948223500E0,-1.575153358E0,9.799845725E-1,1.011971485E1
5.667590333E0,-9.809260912E0,-2.075998369E0,9.718288761E-1,1.007352075E1
5.677575333E0,-9.884880613E0,-2.518240246E0,7.814861461E-1,1.023049946E1
5.687561333E0,-9.703263756E0,-2.924836326E0,5.297407081E-1,1.014833091E1
5.697546333E0,-9.453737336E0,-3.382996663E0,2.262358633E-1,1.004335595E1
5.707532333E0,-8.915243858E0,-3.775606204E0,5.146485329E-2,9.681912202E0
5.717517333E0,-8.150254973E0,-4.166362762E0,1.631548584E-1,9.154881446E0
5.727502333E0,-7.180447479E0,-4.673353196E0,3.321440685E-1,8.573760889E0
5.737488333E0,-6.205809016E0,-5.107024224E0,2.567851349E-1,8.041125579E0
5.747473333E0,-5.567723422E0,-5.568835562E0,2.212738431E-1,7.877844613E0
5.757459333E0,-4.921497334E0,-6.063191333E0,5.443231888E-1,7.828135978E0
5.767444333E0,-4.378644757E0,-6.401460945E0,1.111135865E0,7.834912574E0
5.777430333E0,-4.213860279E0,-6.787571306E0,1.892088819E0,8.210221847E0
5.787415333E0,-4.304619591E0,-7.151611351E0,2.531950797E0,8.722732919E0
5.797401333E0,-4.257945654E0,-7.503900831E0,2.827785995E0,9.079372363E0
5.807386333E0,-3.932333218E0,-7.810517126E0,2.631277449E0,9.131869651E0
5.817372333E0,-3.567156766E0,-7.988779435E0,2.374602224E0,9.065535835E0
5.827357333E0,-3.032377147E0,-8.298648536E0,2.323300508E0,9.135677530E0
5.837342333E0,-2.539404243E0,-8.568281776E0,2.497489062E0,9.279088215E0
5.847328333E0,-1.668841248E0,-8.676118466E0,2.855859062E0,9.285256794E0
5.857313333E0,-7.794008097E-1,-8.593271021E0,3.103735397E0,9.169784397E0
5.867299333E0,-1.497020231E-1,-8.578500370E0,3.186869940E0,9.152552611E0
5.877284333E0,1.935694429E-1,-8.555977480E0,3.414728333E0,9.214260109E0
5.887270333E0,3.807589889E-1,-8.637433287E0,3.707013102E0,9.407028082E0
5.897255333E0,3.800406584E-1,-8.751210163E0,3.841614252E0,9.564837180E0
5.907241333E0,6.594089279E-1,-8.485533149E0,3.823514780E0,9.330506859E0
5.917226333E0,1.193623121E0,-8.112181998E0,3.930801247E0,9.093043020E0
5.927212333E0,1.753521210E0,-7.719522756E0,3.837749242E0,8.797396629E0
5.937197333E0,2.932476591E0,-7.133848679E0,3.382921818E0,8.422314169E0
5.947182333E0,3.709073660E0,-6.441575183E0,3.165153089E0,8.078942526E0
5.957168333E0,3.922379503E0,-5.872931122E0,3.049515921E0,7.692589179E0
5.967153333E0,4.224799835E0,-5.286382887E0,2.932078395E0,7.375083822E0
5.977139333E0,4.733550866E0,-4.511574773E0,2.889479383E0,7.149118955E0
5.987124333E0,5.757232266E0,-3.700296990E0,3.089731901E0,7.508952283E0
5.997110333E0,7.282131144E0,-2.728063486E0,2.913331052E0,8.304171374E0
6.007095333E0,9.120509779E0,-1.736925935E0,2.426626363E0,9.596307927E0
6.017081333E0,1.079467112E1,-8.702048528E-1,1.927973766E0,1.099996654E1
6.027066333E0,1.221867746E1,-2.572488374E-1,1.804671775E0,1.235391015E1
6.037052333E0,1.316316534E1,4.985874009E-1,1.974521695E0,1.331976903E1
6.047037333E0,1.416741059E1,1.336075328E0,1.969189327E0,1.436587369E1
6.057023333E0,1.545161352E1,1.670263583E0,1.547737810E0,1.561850291E1
6.067008333E0,1.686353834E1,1.983350406E0,8.981738394E-1,1.700350906E1
6.076993333E0,1.792963661E1,2.317831022E0,3.724100420E-1,1.808266847E1
6.086979333E0,1.822814867E1,2.261973156E0,1.157678533E-1,1.836832405E1
6.096964333E0,1.788841257E1,1.886569632E0,7.011103928E-2,1.798775597E1
6.106950333E0,1.710033420E1,1.513046572E0,5.769798517E-2,1.716723824E1
6.116935333E0,1.610206831E1,1.015133940E0,1.238756025E-1,1.613451102E1
6.126921333E0,1.523082031E1,4.421886671E-1,1.180494368E-2,1.523724246E1
6.136907042E0,1.430137030E1,-2.144945812E-1,-3.144632578E-2,1.430301330E1
6.146893042E0,1.307528870E1,-9.498784286E-1,1.454415956E-1,1.311055289E1
6.156878042E0,1.160494552E1,-1.738857855E0,4.852998957E-1,1.174452652E1
6.166864042E0,1.008201247E1,-2.486203936E0,7.779293579E-1,1.041313399E1
6.176849042E0,8.724483125E0,-3.110937998E0,9.566971591E-1,9.311810269E0
6.186834042E0,7.605240095E0,-3.719826690E0,1.184370487E0,8.548656091E0
6.196820042E0,6.781020670E0,-4.268287332E0,1.435674899E0,8.140127793E0
6.206805042E0,6.279110881E0,-4.723414718E0,1.653369808E0,8.029415407E0
6.216791042E0,5.701399543E0,-5.240079955E0,1.958889164E0,7.987592969E0
6.226776042E0,5.136964892E0,-5.791648393E0,2.478065781E0,8.128493675E0
6.236762042E0,4.767369992E0,-6.235171394E0,3.090883802E0,8.435564097E0
6.246747042E0,4.526614981E0,-6.726956729E0,3.692658187E0,8.909428405E0
6.256733042E0,4.179352936E0,-7.380248592E0,4.049405585E0,9.398550199E0
6.266718042E0,3.411318529E0,-8.111495535E0,4.278142229E0,9.784475195E0
6.276704042E0,2.619044489E0,-8.846526795E0,4.348250345E0,1.019939760E1
6.286689042E0,2.148096146E0,-9.575153600E0,3.989394441E0,1.059307092E1
6.296674042E0,1.641470431E0,-9.879160867E0,3.257018986E0,1.053092671E1
6.306660042E0,1.260274509E0,-9.854546428E0,2.522369549E0,1.025001099E1
6.316645042E0,1.191199450E0,-9.775841736E0,2.412052470E0,1.013923246E1
6.326631042E0,1.394795991E0,-9.608113770E0,2.805098214E0,1.010593301E1
6.336616042E0,1.731527200E0,-9.405198430E0,3.511851754E0,1.018769094E1
6.346602042E0,2.100737938E0,-9.099727605E0,4.092569146E0,1.019643392E1
6.356587042E0,2.523502155E0,-8.843367544E0,4.341739470E0,1.016975488E1
6.366573042E0,2.393572345E0,-8.776088896E0,4.151015575E0,9.998992709E0
6.376558042E0,2.106668477E0,-9.355544459E0,4.170246775E0,1.045730474E1
6.386544042E0,2.494033358E-1,-9.872593274E0,3.817022032E0,1.058772672E1
6.396529042E0,-2.134139573E0,-9.355661404E0,2.835124835E0,1.000604242E1
6.406515042E0,-4.843527052E0,-8.481032547E0,1.749022654E0,9.922033442E0
6.416500042E0,-7.713793069E0,-7.724396995E0,5.417573941E-1,1.092988625E1
6.426485042E0,-1.005013111E1,-6.749512948E0,-1.144533992E-1,1.210678157E1
6.436471042E0,-1.214278528E1,-5.653704974E0,-2.912363631E-1,1.339762788E1
6.446456042E0,-1.374819798E1,-4.919432098E0,9.378480747E-2,1.460214215E1
6.456442042E0,-1.417718246E1,-3.886772883E0,2.682936430E-1,1.470277142E1
6.466427042E0,-1.410338592E1,-2.602324961E0,-1.265273148E-1,1.434202213E1
6.476413042E0,-1.371490159E1,-1.748524472E0,-6.758966142E-1,1.384242391E1
6.486398042E0,-1.328658252E1,-1.124423663E0,-1.077207981E0,1.337751773E1
6.496384042E0,-1.344212079E1,-5.130867416E-1,-1.294211018E0,1.351402426E1
6.506369042E0,-1.371132076E1,-1.861548811E-1,-1.231278752E0,1.376775283E1
6.516355042E0,-1.391339351E1,-1.375352830E-1,-1.015309503E0,1.395106764E1
6.526340042E0,-1.379775196E1,-8.086991608E-2,-8.504669917E-1,1.382417423E1
6.536325042E0,-1.322658424E1,-1.017088079E-1,-7.417975120E-1,1.324775977E1
6.546311042E0,-1.223538997E1,-6.582678437E-2,-2.566505210E-1,1.223825847E1
6.556296042E0,-1.136989797E1,-1.305683255E-2,7.837786201E-1,1.139688814E1
6.566282042E0,-1.075095616E1,-2.006653315E-1,2.039435729E0,1.094452480E1
6.576267042E0,-9.969820776E0,-4.617049187E-1,2.724209002E0,1.034561803E1
6.586253042E0,-9.070334821E0,-6.927588147E-1,2.457514572E0,9.422858718E0
6.596238042E0,-8.336812727E0,-9.506982082E-1,1.703309707E0,8.561982101E0
6.606224042E0,-7.936856160E0,-1.330360259E0,1.180690835E0,8.133730692E0
6.616209042E0,-7.701087070E0,-1.753098164E0,8.554293774E-1,7.944296989E0
6.626195042E0,-7.526231933E0,-2.193995765E0,5.055982125E-1,7.855788571E0
6.636180042E0,-7.330955980E0,-2.735154989E0,1.328037161E-1,7.825702858E0
6.646166042E0,-7.402786685E0,-3.288989807E0,-1.143656909E-1,8.101344590E0
6.656151042E0,-7.556414090E0,-4.000179631E0,-1.066970676E-1,8.550568124E0
6.666136042E0,-7.373697957E0,-4.787889041E0,3.106683417E-1,8.797261952E0
6.676122042E0,-7.104695631E0,-5.416792753E0,7.159546461E-1,8.962752635E0
6.686107042E0,-6.683606057E0,-6.087309344E0,6.855286594E-1,9.066194048E0
6.696093042E0,-5.840862068E0,-6.797564782E0,4.785886808E-1,8.975054528E0
6.706078042E0,-4.785862981E0,-7.138137612E0,6.959478861E-1,8.622171217E0
6.716064042E0,-4.177622745E0,-7.309782627E0,1.367592990E0,8.529698966E0
6.726049042E0,-3.887975655E0,-7.595671712E0,2.023143632E0,8.769475104E0
6.736035042E0,-3.477324530E0,-7.837572777E0,2.307714754E0,8.879463966E0
6.746020042E0,-2.850961727E0,-7.957867545E0,2.467836077E0,8.806012351E0
6.756006042E0,-2.424726603E0,-8.153613029E0,2.800638542E0,8.955684271E0
6.765991042E0,-2.188404219E0,-8.507792915E0,2.961818796E0,9.270599974E0
6.775976042E0,-1.827403557E0,-8.700689051E0,2.711341619E0,9.294770954E0
6.785962042E0,-9.776141844E-1,-8.807069199E0,2.261781221E0,9.145263892E0
6.795947042E0,-3.828838670E-1,-8.791979290E0,2.085524653E0,9.044054011E0
6.805933042E0,1.910177180E-1,-8.783820085E0,2.078941272E0,9.028509283E0
6.815918042E0,1.118327356E0,-8.587890413E0,2.069848267E0,8.904312982E0
6.825904042E0,1.899567407E0,-8.108589469E0,2.080779491E0,8.584126210E0
6.835889042E0,2.651541267E0,-7.789967671E0,2.291461103E0,8.541958873E0
6.845875042E0,3.526093525E0,-7.380217018E0,2.701375040E0,8.613847333E0
6.855860042E0,4.481841389E0,-6.736455531E0,3.059775445E0,8.650373468E0
6.865846042E0,5.739784175E0,-6.211856207E0,3.141195000E0,9.022160824E0
6.875831042E0,6.876142005E0,-5.398919569E0,3.005309801E0,9.244541545E0
6.885817042E0,7.563369938E0,-4.643243544E0,2.851861321E0,9.321876872E0
6.895802042E0,8.204924101E0,-3.816626760E0,2.783603264E0,9.467622006E0
6.905787042E0,9.324555970E0,-2.634029149E0,2.252006577E0,9.947712663E0
6.915773042E0,1.129850347E1,-1.501210638E0,1.566821660E0,1.150498779E1
6.925758042E0,1.296947398E1,-4.398807710E-1,1.118690760E0,1.302506121E1
6.935744042E0,1.363961401E1,3.506399810E-1,1.137441904E0,1.369144963E1
6.945729042E0,1.349179289E1,8.891954398E-1,1.440784050E0,1.359761018E1
6.955715042E0,1.282029631E1,1.223348612E0,1.578828625E0,1.297494813E1
6.965700042E0,1.213547041E1,1.405285896E0,1.299619693E0,1.228549884E1
6.975686042E0,1.200175628E1,1.591913232E0,8.254800850E-1,1.213498080E1
6.985671042E0,1.198412108E1,1.723445179E0,4.015253752E-1,1.211406802E1
6.995657042E0,1.238013195E1,1.827378268E0,1.229710382E-1,1.251487516E1
7.005642042E0,1.291743727E1,1.877850848E0,1.809745404E-1,1.305447284E1
7.015627042E0,1.339628681E1,1.798182535E0,2.762098959E-1,1.351925488E1
7.025613042E0,1.377262764E1,1.753746620E0,4.670557058E-1,1.389168962E1
7.035598042E0,1.366211527E1,1.585431594E0,8.933645046E-1,1.378278227E1
7.045584042E0,1.303349865E1,1.054142470E0,1.271759464E0,1.313775763E1
7.055569042E0,1.209093100E1,2.576511258E-1,1.451460773E0,1.218046530E1
7.065555042E0,1.086580717E1,-3.964014602E-1,1.408435206E0,1.096387657E1
7.075540042E0,9.661748525E0,-9.807698536E-1,1.314309652E0,9.799933874E0
7.085526042E0,8.818322750E0,-1.666127263E0,1.295985648E0,9.067434862E0
7.095511042E0,8.157628312E0,-2.226261286E0,1.414439712E0,8.573434475E0
7.105497042E0,7.448375087E0,-2.730132231E0,1.649287282E0,8.102596002E0
7.115482042E0,6.622851148E0,-3.234735832E0,2.229712313E0,7.700473377E0
7.125468042E0,5.902827351E0,-3.742217433E0,2.801889262E0,7.529817095E0
7.135452667E0,5.051607238E0,-4.279237998E0,3.206698433E0,7.356189800E0
7.145437667E0,4.172990873E0,-4.691740935E0,3.472587701E0,7.175315406E0
7.155423667E0,3.461140607E0,-5.008365324E0,3.789219106E0,7.170871562E0
7.165408667E0,2.922345412E0,-5.302287898E0,4.121027252E0,7.323743939E0
7.175394667E0,2.535395976E0,-5.604027030E0,4.331529647E0,7.522998125E0
7.185379667E0,2.121746984E0,-5.961898263E0,4.393479143E0,7.703810754E0
7.195365667E0,1.602886994E0,-6.380454823E0,4.345210962E0,7.884180919E0
7.205350667E0,1.025403697E0,-6.619531099E0,4.160253591E0,7.885261863E0
7.215336667E0,8.637962314E-1,-6.741416894E0,3.745941525E0,7.760471865E0
7.225321667E0,6.882742196E-1,-6.995955546E0,3.414877437E0,7.815273720E0
7.235307667E0,1.167650228E-1,-7.465903870E0,3.321176391E0,8.172121345E0
7.245292667E0,-7.038877472E-1,-7.627104004E0,3.056214491E0,8.246733927E0
7.255277667E0,-1.382892668E0,-7.516750088E0,2.639688669E0,8.085906275E0
7.265263667E0,-1.561312706E0,-7.458405985E0,2.091974716E0,7.902017174E0
7.275248667E0,-1.395984145E0,-7.374539371E0,1.447437889E0,7.643800044E0
7.285234667E0,-1.432566958E0,-7.058272247E0,8.781997508E-1,7.255528238E0
7.295219667E0,-1.421490285E0,-6.715071094E0,6.183442247E-1,6.891673527E0
7.305205667E0,-1.390979514E0,-6.397098337E0,5.636645722E-1,6.570799715E0
7.315190667E0,-1.523977065E0,-6.169444013E0,6.756170442E-1,6.390696669E0
7.325176667E0,-1.924356678E0,-5.960236484E0,8.792674524E-1,6.324608986E0
7.335161667E0,-2.672189540E0,-5.609234560E0,1.115140185E0,6.312499261E0
7.345147667E0,-3.616756650E0,-5.324244193E0,1.051678453E0,6.521850386E0
7.355132667E0,-4.832724906E0,-4.915306887E0,3.916902854E-1,6.904266296E0
7.365118667E0,-5.991975755E0,-4.365715978E0,-3.489191455E-1,7.421926571E0
7.375103667E0,-7.412165619E0,-3.820056152E0,-6.335358757E-1,8.362678750E0
7.385088667E0,-8.913109040E0,-3.202506564E0,-8.942532814E-1,9.513109375E0
7.395074667E0,-1.017628947E1,-2.581831639E0,-1.266895165E0,1.057486384E1
7.405059667E0,-1.122669849E1,-1.945273338E0,-1.480915537E0,1.148981976E1
7.415045667E0,-1.193629202E1,-1.391459570E0,-1.390811114E0,1.209733783E1
7.425030667E0,-1.259652102E1,-9.662845463E-1,-1.036066826E0,1.267594108E1
7.435016667E0,-1.317293019E1,-6.672976989E-1,-7.182727017E-1,1.320936379E1
7.445001667E0,-1.340200071E1,-4.798570150E-1,-6.944476368E-1,1.342855701E1
7.454987667E0,-1.315436528E1,-4.642665839E-1,-1.096172914E0,1.320812115E1
7.464972667E0,-1.248199044E1,-5.533723032E-1,-1.644881405E0,1.260206099E1
7.474958667E0,-1.197170744E1,-6.938376260E-1,-1.746404271E0,1.211829681E1
7.484943667E0,-1.170438093E1,-8.262028009E-1,-1.401682842E0,1.181693102E1
7.494928667E0,-1.134574429E1,-1.013307855E0,-8.629876345E-1,1.142354822E1
7.504914667E0,-1.106841202E1,-1.381747345E0,-2.319263005E-1,1.115673609E1
7.514899667E0,-1.057034853E1,-1.812826887E0,3.963084894E-1,1.073199282E1
7.524885667E0,-9.832159778E0,-2.200232406E0,9.953516400E-1,1.012438213E1
7.534870667E0,-9.212718031E0,-2.623291322E0,1.599529231E0,9.711556242E0
7.544856667E0,-8.551566925E0,-3.201151180E0,1.958324323E0,9.338720464E0
7.554841667E0,-7.807886463E0,-3.807790448E0,1.916492758E0,8.895802584E0
7.564827667E0,-7.159836629E0,-4.330511647E0,1.670833687E0,8.532776622E0
7.574812667E0,-6.610444525E0,-4.744581639E0,1.434341295E0,8.262346319E0
7.584798667E0,-6.240571883E0,-5.208745896E0,1.174921460E0,8.213173057E0
7.594783667E0,-5.940051895E0,-5.766018877E0,9.533299669E-1,8.333068357E0
7.604768667E0,-5.823505778E0,-6.284987918E0,7.112686875E-1,8.597685492E0
7.614754667E0,-5.676176409E0,-6.740162081E0,3.943970346E-1,8.820675287E0
7.624739667E0,-5.433824522E0,-7.241746765E0,2.459888542E-1,9.057033491E0
7.634725667E0,-5.027781004E0,-7.686414651E0,3.942929177E-1,9.193205041E0
7.644710667E0,-4.334234861E0,-8.045676352E0,7.135233738E-1,9.166657810E0
7.654696667E0,-3.721062207E0,-8.196500602E0,1.235844111E0,9.086046265E0
7.664681667E0,-3.231449112E0,-8.400600588E0,2.065457593E0,9.234634192E0
7.674667667E0,-2.819015756E0,-8.697474836E0,2.849345849E0,9.576622062E0
7.684652667E0,-2.567333761E0,-8.867983153E0,3.388311197E0,9.834275805E0
7.694638667E0,-2.106197484E0,-8.962287047E0,3.501007508E0,9.849655350E0
7.704623667E0,-1.185884770E0,-9.000271145E0,3.220611883E0,9.632421516E0
7.714609667E0,-3.650192345E-1,-9.193419296E0,2.898942516E0,9.646557163E0
7.724594667E0,2.804836258E-1,-9.166726756E0,2.958846071E0,9.636509771E0
7.734579667E0,7.813632815E-1,-8.818083014E0,3.401356920E0,9.483582948E0
7.744565667E0,9.592243257E-1,-8.661695724E0,3.873416088E0,9.536688959E0
7.754550667E0,1.009095228E0,-8.521860731E0,4.087492594E0,9.505155401E0
7.764536667E0,1.234365351E0,-8.242936265E0,4.109702657E0,9.292971108E0
7.774521667E0,1.638515833E0,-8.005306590E0,4.045898717E0,9.118057039E0
7.784507667E0,2.303359163E0,-7.783627535E0,3.593556653E0,8.877160045E0
7.794492667E0,3.139566258E0,-7.412014176E0,2.983244748E0,8.584554716E0
7.804478667E0,4.370820013E0,-6.909433127E0,2.774758766E0,8.633864716E0
7.814463667E0,5.687745709E0,-6.083005208E0,2.861909176E0,8.805903006E0
7.824449667E0,7.004001900E0,-5.301000341E0,2.790936550E0,9.216614023E0
7.834434667E0,8.521408741E0,-4.210198753E0,2.323816817E0,9.784697495E0
7.844419667E0,9.956386213E0,-2.986164848E0,2.177929371E0,1.062027228E1
7.854405667E0,1.105040728E1,-1.909857337E0,2.577568434E0,1.150664656E1
7.864390667E0,1.237282176E1,-1.006353176E0,2.999051526E0,1.277081732E1
7.874376667E0,1.288761530E1,-1.320564419E-1,3.570808645E0,1.337380804E1
7.884361667E0,1.272348279E1,4.351269847E-1,3.591794302E0,1.322789991E1
7.894347667E0,1.354885119E1,6.684273809E-1,2.688722542E0,1.382922242E1
7.904332667E0,1.473353567E1,8.241194379E-1,1.602344080E0,1.484330667E1
7.914318667E0,1.601297662E1,1.075841487E0,1.073165216E0,1.608491650E1
7.924303667E0,1.714977007E1,1.522146594E0,1.156836534E0,1.725600807E1
7.934289667E0,1.752555074E1,1.872057427E0,1.483079007E0,1.768753943E1
7.944274667E0,1.746371994E1,1.843947523E0,1.629345645E0,1.763622477E1
7.954259667E0,1.688106128E1,1.675969296E0,1.705969605E0,1.704961686E1
7.964245667E0,1.588181188E1,1.398793148E0,1.713456380E0,1.603510224E1
7.974230667E0,1.452068533E1,9.727311015E-1,1.508494807E0,1.463120176E1
7.984216667E0,1.319491221E1,1.662480354E-1,1.203192382E0,1.325069880E1
7.994201667E0,1.166478826E1,-7.344728512E-1,9.251438293E-1,1.172444569E1
8.004187667E0,1.007289432E1,-1.312870653E0,7.597760922E-1,1.018646598E1
8.014172667E0,8.904431772E0,-1.878280619E0,8.997987807E-1,9.144751561E0
8.024158667E0,7.911927726E0,-2.296228484E0,1.249131617E0,8.332562354E0
8.034143667E0,7.230837615E0,-2.665297135E0,1.676295863E0,7.886620901E0
8.044129667E0,6.942962816E0,-3.093561827E0,2.075156077E0,7.879157962E0
8.054114667E0,6.630970591E0,-3.489880841E0,2.573539703E0,7.922887471E0
8.064100667E0,6.222156077E0,-3.909784600E0,3.121657698E0,7.984133557E0
8.074085667E0,6.090114838E0,-4.354604514E0,3.589562712E0,8.302833232E0
8.084070667E0,5.626744047E0,-4.936597769E0,3.867010171E0,8.425201111E0
8.094056667E0,4.986613682E0,-5.538121308E0,4.089494095E0,8.500650892E0
8.104041667E0,4.394277872E0,-6.194851919E0,4.295772169E0,8.725796631E0
8.114027667E0,3.426221620E0,-6.980614792E0,4.571752562E0,9.020471104E0
8.124012667E0,2.243728381E0,-7.382653552E0,4.743174214E0,9.057350172E0
8.133999292E0,1.409873621E0,-7.580492924E0,4.581526183E0,8.968946358E0
8.143984292E0,1.265579834E0,-7.701840191E0,3.863270000E0,8.708897159E0
8.153970292E0,1.370398484E0,-7.787052249E0,2.993894867E0,8.454559788E0
8.163955292E0,1.401477020E0,-7.832261167E0,2.577419330E0,8.363703918E0
8.173941292E0,1.361820326E0,-7.698746429E0,2.794440494E0,8.302659143E0
8.183926292E0,1.351587845E0,-7.827345412E0,3.394416860E0,8.638066434E0
8.193912292E0,1.068145089E0,-7.986451074E0,3.809515961E0,8.912729467E0
8.203897292E0,8.538022435E-1,-7.973315889E0,4.032346333E0,8.975664960E0
8.213882292E0,5.098573244E-1,-8.369807396E0,4.106852725E0,9.337016099E0
8.223868292E0,-9.170933828E-1,-8.859720452E0,3.785309073E0,9.678030355E0
8.233853292E0,-2.517163188E0,-8.612932869E0,2.680129182E0,9.364924749E0
8.243839292E0,-3.719268866E0,-8.171107898E0,1.683759395E0,9.134276703E0
8.253824292E0,-4.812457872E0,-7.624087425E0,8.780126399E-1,9.058552094E0
8.263810292E0,-5.695578055E0,-6.998933533E0,2.563249773E-1,9.027202362E0
8.273795292E0,-6.475698949E0,-6.371706803E0,3.171354353E-2,9.084840682E0
8.283781292E0,-7.102993507E0,-5.648137840E0,-2.875138063E-2,9.074954791E0
8.293766292E0,-7.610100301E0,-5.153309614E0,-3.599195123E-2,9.190839025E0
8.303752292E0,-8.090518064E0,-4.761139199E0,6.749740697E-2,9.387730552E0
8.313737292E0,-8.677720603E0,-4.160152434E0,3.054523330E-2,9.623442011E0
8.323722292E0,-9.064141451E0,-3.732573035E0,-5.495629884E-2,9.802743590E0
8.333708292E0,-9.468574061E0,-3.373630008E0,-3.422914727E-1,1.005745682E1
8.343693292E0,-1.009259359E1,-2.966714085E0,-7.458622040E-1,1.054600153E1
8.353679292E0,-1.090315802E1,-2.611707403E0,-9.554374496E-1,1.125223227E1
8.363664292E0,-1.194827882E1,-2.323524456E0,-1.053304564E0,1.221759318E1
8.373650292E0,-1.288624120E1,-2.151260220E0,-1.258672811E0,1.312506724E1
8.383635292E0,-1.342620701E1,-2.092562946E0,-1.616047176E0,1.368405871E1
8.393621292E0,-1.348239291E1,-2.019317214E0,-2.001515366E0,1.377891956E1
8.403606292E0,-1.329969782E1,-1.995437186E0,-2.313501744E0,1.364609915E1
8.413592292E0,-1.299856271E1,-1.999441944E0,-2.470369091E0,1.338144701E1
8.423577292E0,-1.256075595E1,-2.094028258E0,-2.191930529E0,1.292138165E1
8.433562292E0,-1.200844550E1,-2.269667507E0,-1.816039932E0,1.235524807E1
8.443548292E0,-1.124981020E1,-2.422354680E0,-1.638307965E0,1.162368636E1
8.453533292E0,-1.034517577E1,-2.603928852E0,-1.370152901E0,1.075548354E1
8.463519292E0,-9.437467459E0,-2.923941702E0,-1.029711633E0,9.933555917E0
8.473504292E0,-8.732012585E0,-3.339186984E0,-6.006575668E-1,9.367977530E0
8.483490292E0,-8.366367479E0,-4.015076582E0,-2.385763754E-1,9.282987851E0
8.493475292E0,-7.916162279E0,-4.508668706E0,2.996522605E-2,9.110138125E0
8.503461292E0,-7.293324469E0,-4.897981587E0,2.446598186E-1,8.788780568E0
8.513446292E0,-6.718442599E0,-5.625940640E0,5.377959786E-1,8.779402232E0
8.523432292E0,-6.398564819E0,-6.326179798E0,7.015858445E-1,9.025209431E0
8.533417292E0,-5.832105862E0,-6.679652755E0,8.135933534E-1,8.904670340E0
8.543402292E0,-5.080093703E0,-6.991283036E0,1.277594985E0,8.735996765E0
8.553388292E0,-4.527135091E0,-7.290793794E0,1.824057634E0,8.773700048E0
8.563373292E0,-3.865277641E0,-7.822236115E0,2.222912001E0,9.003837340E0
8.573359292E0,-3.073554994E0,-8.390489582E0,2.305283482E0,9.228292782E0
8.583344292E0,-2.628528673E0,-8.685012665E0,2.301999686E0,9.361506852E0
8.593330292E0,-2.411573876E0,-8.706731563E0,2.257869726E0,9.312402417E0
8.603315292E0,-2.129382717E0,-8.803141624E0,2.402303262E0,9.370199260E0
8.613301292E0,-1.901125544E0,-8.994165482E0,2.768690525E0,9.600778004E0
8.623286292E0,-1.373722041E0,-9.126720691E0,2.930314583E0,9.683536873E0
8.633272292E0,-5.853570845E-1,-9.227213278E0,2.904893228E0,9.691362777E0
8.643257292E0,-1.475867929E-1,-9.158119655E0,2.783769910E0,9.572999132E0
8.653242292E0,6.963136294E-1,-9.033386266E0,2.351277827E0,9.360311294E0
8.663228292E0,1.800313553E0,-8.505919467E0,2.229985963E0,8.975780315E0
8.673213292E0,2.751962518E0,-7.774663754E0,2.615092356E0,8.652017234E0
8.683199292E0,3.695320424E0,-7.037170815E0,3.274692196E0,8.596556002E0
8.693184292E0,4.475385770E0,-6.207376070E0,3.928086385E0,8.601770638E0
8.703170292E0,4.992469668E0,-5.495693911E0,4.494279293E0,8.679052444E0
8.713155292E0,4.944576294E0,-4.797911169E0,4.845996916E0,8.423329059E0
8.723141292E0,4.768194742E0,-4.247786409E0,4.723322917E0,7.942867861E0
8.733126292E0,5.047463316E0,-3.752801478E0,4.166116009E0,7.544330816E0
8.743112292E0,5.960567436E0,-3.038005092E0,3.251170017E0,7.438275713E0
8.753097292E0,7.393803023E0,-2.212404554E0,2.433155072E0,8.092175274E0
8.763083292E0,9.686638952E0,-1.380236424E0,1.786224687E0,9.946186476E0
8.773068292E0,1.224106060E1,-4.073591423E-1,1.438925220E0,1.233207249E1
8.783053292E0,1.470165899E1,5.369404578E-1,1.423015239E0,1.478012363E1
8.793039292E0,1.705182570E1,1.237887129E0,1.477765642E0,1.716044625E1
8.803024292E0,1.865369850E1,1.811104297E0,1.581665402E0,1.880803636E1
8.813010292E0,1.917680210E1,2.109077822E0,1.766144471E0,1.937310544E1
8.822995292E0,1.872304881E1,2.005579181E0,1.813762734E0,1.891731059E1
8.832981292E0,1.752292768E1,1.649137008E0,1.623221564E0,1.767505292E1
8.842966292E0,1.607628560E1,1.167432273E0,1.141725866E0,1.615900352E1
8.852952292E0,1.467676155E1,6.652295387E-1,4.314923555E-1,1.469816470E1
8.862937292E0,1.343779269E1,2.349165666E-1,-9.106862962E-2,1.344015445E1
8.872923292E0,1.220407111E1,-1.098399460E-2,-2.644067064E-1,1.220693996E1
8.882908292E0,1.100625028E1,-2.651186049E-1,-1.045718971E-1,1.100993952E1
8.892893292E0,1.002990559E1,-6.883810043E-1,4.061625096E-1,1.006170178E1
8.902879292E0,8.969478537E0,-1.137654158E0,1.043385932E0,9.101343660E0
8.912864292E0,7.982525253E0,-1.510908830E0,1.616842251E0,8.283582183E0
8.922850292E0,7.393165092E0,-1.884609645E0,2.084042968E0,7.909101003E0
8.932835292E0,6.850358123E0,-2.146380719E0,2.416781406E0,7.574641177E0
8.942821292E0,6.437121359E0,-2.475459092E0,2.803492860E0,7.444729769E0
8.952806292E0,6.015038928E0,-2.903776410E0,3.197088534E0,7.404997356E0
8.962792292E0,5.659245211E0,-3.192293817E0,3.453462043E0,7.358274000E0
8.972777292E0,5.378712176E0,-3.573621156E0,3.845300921E0,7.515826768E0
8.982763292E0,5.125717188E0,-3.963387195E0,4.358324513E0,7.808739163E0
8.992748292E0,4.879726287E0,-4.295530679E0,4.683556588E0,8.012428768E0
9.002734292E0,4.704545168E0,-4.762929617E0,4.789961295E0,8.231766091E0
9.012719292E0,4.846722556E0,-5.275412925E0,4.574332938E0,8.499718989E0
9.022704292E0,5.298829270E0,-5.837603415E0,4.024829153E0,8.851805181E0
9.032690292E0,5.257243872E0,-6.427766984E0,3.588731530E0,9.046203376E0
9.042675292E0,4.673004702E0,-6.814018262E0,3.380770043E0,8.927341368E0
9.052661292E0,3.921780163E0,-7.438806703E0,3.200735443E0,8.997828193E0
9.062646292E0,3.031433699E0,-8.414440362E0,2.826009026E0,9.379697431E0
9.072632292E0,2.191371535E0,-8.944626701E0,1.993039243E0,9.422349041E0
9.082617292E0,1.693814121E0,-9.125499208E0,1.055617138E0,9.341202793E0
9.092603292E0,1.210963332E0,-9.417084065E0,5.276229928E-1,9.509273921E0
9.102588292E0,2.655466211E-1,-9.455859291E0,4.531598709E-1,9.470435249E0
9.112574292E0,-6.541455567E-1,-9.327643885E0,6.298170465E-1,9.371740306E0
9.122559292E0,-1.458549938E0,-9.394793894E0,9.215206021E-1,9.551896171E0
9.132543333E0,-2.474204865E0,-9.574920296E0,1.155568199E0,9.956712623E0
9.142529333E0,-4.018681683E0,-9.680992881E0,1.670778138E0,1.061427931E1
9.152514333E0,-6.069142045E0,-9.367859280E0,2.314103422E0,1.139940118E1
9.162500333E0,-7.704029388E0,-8.726831952E0,2.527789333E0,1.191215277E1
9.172485333E0,-8.733975495E0,-7.761616861E0,2.016226376E0,1.185707354E1
9.182471333E0,-9.178898320E0,-6.732730270E0,1.083505871E0,1.143485095E1
9.192456333E0,-9.409044728E0,-5.742676207E0,2.292934455E-1,1.102547179E1
9.202442333E0,-9.438182573E0,-4.621299528E0,-4.590439971E-1,1.051886025E1
9.212427333E0,-9.595104885E0,-3.347107623E0,-7.438922039E-1,1.018933476E1
9.222413333E0,-1.011047204E1,-2.201753266E0,-6.812949099E-1,1.036983727E1
9.232398333E0,-1.043283021E1,-1.301132367E0,-6.759492391E-1,1.053535946E1
9.242384333E0,-1.058623191E1,-3.933258247E-1,-9.971088745E-1,1.064035889E1
9.252369333E0,-1.065486653E1,3.179066831E-1,-1.206143326E0,1.072762915E1
9.262354333E0,-1.089694593E1,8.218700141E-1,-1.084544629E0,1.098158177E1
9.272340333E0,-1.147891463E1,1.149781283E0,-8.605845751E-1,1.156840888E1
9.282325333E0,-1.203282371E1,1.173508700E0,-8.489281507E-1,1.211968020E1
9.292311333E0,-1.251229890E1,1.028695387E0,-8.156797130E-1,1.258098451E1
9.302296333E0,-1.287046308E1,8.130032963E-1,-8.043340681E-1,1.292117439E1
9.312282333E0,-1.294721246E1,4.377740192E-1,-7.264343914E-1,1.297496295E1
9.322267333E0,-1.262010401E1,3.030904233E-2,-4.491844220E-1,1.262813172E1
9.332253333E0,-1.198220319E1,-3.151620001E-1,-8.119911432E-2,1.198662228E1
9.342238333E0,-1.118017337E1,-7.062395704E-1,2.555670319E-1,1.120537216E1
9.352224333E0,-1.033398537E1,-1.150377699E0,4.604426511E-1,1.040800797E1
9.362209333E0,-9.526142823E0,-1.569390927E0,5.273459078E-1,9.668944031E0
9.372194333E0,-8.670834922E0,-2.029930496E0,5.778651202E-1,8.924008301E0
9.382180333E0,-7.878172919E0,-2.629019839E0,6.070468193E-1,8.327416148E0
9.392165333E0,-7.229333126E0,-3.152290092E0,5.940462662E-1,7.909050590E0
9.402151333E0,-6.720361655E0,-3.490535145E0,7.043654647E-1,7.605473495E0
9.412136333E0,-6.260642450E0,-3.907618791E0,8.449138910E-1,7.428257400E0
9.422122333E0,-5.851026283E0,-4.496774300E0,1.083388488E0,7.458499734E0
9.432107333E0,-5.597026159E0,-4.995466366E0,1.476762260E0,7.646058646E0
9.442093333E0,-5.292887914E0,-5.401636185E0,1.750627130E0,7.762540261E0
9.452078333E0,-5.010860331E0,-5.937670324E0,1.849445075E0,7.986557282E0
9.462064333E0,-4.771261899E0,-6.490544445E0,1.724861959E0,8.238158537E0
9.472049333E0,-4.641730285E0,-6.917312250E0,1.402780364E0,8.447642366E0
9.482035333E0,-4.434466663E0,-7.271006232E0,1.019590688E0,8.577388377E0
9.492020333E0,-3.906055831E0,-7.608205803E0,5.369410425E-1,8.569152431E0
9.502005333E0,-3.421768380E0,-7.853760794E0,5.997606039E-2,8.567009664E0
9.511991333E0,-3.178266347E0,-8.070498367E0,-1.392041514E-1,8.674888971E0
9.521976333E0,-3.029887987E0,-8.329110190E0,3.339344859E-3,8.863086874E0
9.531962333E0,-2.679408220E0,-8.640560378E0,4.134508447E-1,9.055907114E0
9.541947333E0,-2.480956060E0,-8.839486163E0,9.423150551E-1,9.229280376E0
9.551933333E0,-2.333422330E0,-8.984162650E0,1.488060250E0,9.400763884E0
9.561918333E0,-2.318558416E0,-9.095155667E0,1.905763702E0,9.577552141E0
9.571904333E0,-2.397968867E0,-9.251935306E0,2.432052725E0,9.862222977E0
9.581889333E0,-2.061749289E0,-9.462567217E0,3.171587657E0,1.019067990E1
9.591875333E0,-1.344052684E0,-9.583367769E0,3.406273844E0,1.025914796E1
9.601860333E0,2.136432266E-1,-9.263681778E0,2.512542719E0,9.600745514E0
9.611845333E0,1.944462914E0,-8.580195478E0,1.515101576E0,8.927274122E0
9.621831333E0,3.018092984E0,-8.029306487E0,1.918947419E0,8.789824066E0
9.631816333E0,3.770037023E0,-7.167077236E0,3.198515255E0,8.706932588E0
9.641802333E0,4.141812350E0,-6.301353105E0,3.956361766E0,8.515542197E0
9.651787333E0,3.902744552E0,-6.038797334E0,4.078824681E0,8.266516743E0
9.661773333E0,3.775701513E0,-5.902461900E0,3.824673114E0,7.982675167E0
9.671758333E0,3.727364920E0,-5.671233172E0,3.590040137E0,7.677533662E0
9.681744333E0,3.891613208E0,-5.222372832E0,3.494045813E0,7.390953085E0
9.691729333E0,5.046975074E0,-5.111153528E0,2.926785203E0,7.756411503E0
9.701715333E0,7.816066133E0,-4.748754796E0,1.110012031E0,9.212691714E0
9.711700333E0,1.116815383E1,-3.690442092E0,-1.192811820E0,1.182242880E1
9.721685333E0,1.352368711E1,-2.833951884E0,-2.365954192E0,1.401852830E1
9.731671333E0,1.504517823E1,-2.102444156E0,-2.343975093E0,1.537113785E1
9.741656333E0,1.642583683E1,-1.307148567E0,-1.720858955E0,1.656738086E1
9.751642333E0,1.765445963E1,-6.280149347E-1,-7.109737685E-1,1.767992735E1
9.761627333E0,1.825545750E1,-4.489492178E-2,5.732361719E-1,1.826451050E1
9.771613333E0,1.828084611E1,4.271893895E-1,1.723700702E0,1.836689874E1
9.781598333E0,1.815476143E1,9.357503861E-1,2.186789949E0,1.830991649E1
9.791584333E0,1.789634023E1,1.176855061E0,2.151714841E0,1.806360590E1
9.801569333E0,1.734997055E1,9.226619786E-1,1.938099097E0,1.748224846E1
9.811555333E0,1.643352241E1,5.478004915E-1,1.692561355E0,1.652953442E1
9.821540333E0,1.542329077E1,3.389022803E-1,1.655625956E0,1.551560023E1
9.831525333E0,1.427629744E1,4.251101196E-2,1.915738175E0,1.440432326E1
9.841511333E0,1.286201268E1,-5.035774148E-1,2.252219123E0,1.306741946E1
9.851496333E0,1.135702825E1,-1.103956654E0,2.371706390E0,1.165443273E1
9.861482333E0,9.938884327E0,-1.688666525E0,2.553945976E0,1.039979117E1
9.871467333E0,8.865043758E0,-2.370944206E0,2.785975187E0,9.590205159E0
9.881453333E0,7.811932152E0,-2.962305284E0,2.756096500E0,8.797590833E0
9.891438333E0,6.774936642E0,-3.604472235E0,2.692458036E0,8.132731206E0
9.901424333E0,5.737378045E0,-4.451770036E0,2.786762515E0,7.778290853E0
9.911409333E0,4.841582268E0,-5.060729479E0,2.848964610E0,7.560985457E0
9.921395333E0,4.107476915E0,-5.499750125E0,2.769568192E0,7.401967712E0
9.931380333E0,3.267764707E0,-6.064803411E0,2.683657392E0,7.393385124E0
9.941366333E0,2.352486300E0,-6.668533689E0,2.497807735E0,7.499505106E0
9.951351333E0,1.567831475E0,-7.162898231E0,2.210000910E0,7.658283791E0
9.961336333E0,9.903838456E-1,-7.657581446E0,1.977038337E0,7.970451327E0
9.971322333E0,4.132662919E-1,-8.042996573E0,1.813679557E0,8.255302322E0
9.981307333E0,-6.235704660E-2,-8.322322742E0,1.700114204E0,8.494429500E0
9.991293333E0,-4.422705281E-1,-8.532047165E0,1.654056855E0,8.702145490E0
1.000127833E1,-8.900861169E-1,-8.698686379E0,1.769217768E0,8.921296404E0
1.001126433E1,-1.397935946E0,-8.592260622E0,1.926704920E0,8.915904854E0
1.002124933E1,-1.419838154E0,-8.318197532E0,2.262939700E0,8.736661070E0
1.003123533E1,-7.501118872E-1,-8.190905986E0,2.327859582E0,8.548247712E0
1.004122033E1,1.480588093E-1,-8.125307828E0,1.997015349E0,8.368429901E0
1.005120633E1,1.248449393E0,-8.121647471E0,1.409350296E0,8.337028954E0
1.006119133E1,1.944723700E0,-7.994008015E0,9.295213473E-1,8.279500248E0
1.007117633E1,1.604627856E0,-7.543277736E0,1.073993621E0,7.786483921E0
1.008116233E1,1.009218970E0,-7.158657246E0,1.841256049E0,7.460235943E0
1.009114733E1,2.579505032E-1,-6.744573805E0,2.449637934E0,7.180288315E0
1.010113333E1,-5.387448355E-1,-6.310351385E0,2.631268678E0,6.858159772E0
1.011111833E1,-1.316667250E0,-5.701424686E0,2.402002715E0,6.325304193E0
1.012110433E1,-2.446833317E0,-5.061754496E0,2.160282913E0,6.022887524E0
1.013108933E1,-3.629642744E0,-4.264569088E0,2.355849034E0,6.075432546E0
1.014107567E1,-4.685642582E0,-3.245577739E0,2.669073851E0,6.293884054E0
1.015106067E1,-5.979113635E0,-2.370965255E0,2.649259391E0,6.956281437E0
1.016104667E1,-7.203462120E0,-1.813021014E0,2.597070945E0,7.869033563E0
1.017103167E1,-8.297681991E0,-1.225198671E0,2.960861899E0,8.894905361E0
1.018101667E1,-9.561822533E0,-5.979339337E-1,3.363963976E0,1.015392677E1
1.019100267E1,-1.097225339E1,-4.612517595E-2,3.650548294E0,1.156369210E1
1.020098767E1,-1.238453139E1,2.444159532E-1,3.632305858E0,1.290852442E1
1.021097367E1,-1.401622499E1,4.370460409E-1,3.483424053E0,1.444921504E1
1.022095867E1,-1.519330224E1,8.335615218E-1,2.979638770E0,1.550514447E1
1.023094467E1,-1.547803241E1,1.049102755E0,2.210902112E0,1.567029648E1
1.024092967E1,-1.527484166E1,1.203166947E0,1.544040323E0,1.539975516E1
1.025091567E1,-1.445634491E1,1.270464306E0,1.141059576E0,1.455685421E1
1.026090067E1,-1.334575049E1,1.304417918E0,1.108197640E0,1.345506092E1
1.027088667E1,-1.244696796E1,1.185096712E0,1.192976712E0,1.256004216E1
1.028087167E1,-1.177175605E1,9.378425199E-1,1.192396960E0,1.186910273E1
1.029085767E1,-1.115737390E1,6.902269703E-1,1.294943674E0,1.125345657E1
1.030084267E1,-1.055726948E1,4.008663940E-1,1.514922067E0,1.067293875E1
1.031082767E1,-9.881648272E0,7.854740202E-2,1.796556717E0,1.004394137E1
1.032081367E1,-9.448603481E0,-3.730295545E-1,2.023203713E0,9.669985111E0
1.033079867E1,-9.022083598E0,-8.674087143E-1,2.161537140E0,9.317866340E0
1.034078467E1,-8.465252666E0,-1.319886142E0,2.027008934E0,8.804054030E0
1.035076967E1,-8.148879708E0,-1.807553868E0,1.799869165E0,8.538795026E0
1.036075567E1,-7.969648515E0,-2.315125515E0,1.729428342E0,8.477383204E0
1.037074067E1,-7.716139557E0,-2.808539300E0,1.826997614E0,8.412171119E0
1.038072667E1,-7.496508781E0,-3.335684502E0,1.882335224E0,8.418290854E0
1.039071167E1,-7.279612749E0,-3.965458279E0,1.898445911E0,8.504217660E0
1.040069767E1,-7.012097955E0,-4.545349460E0,1.888087715E0,8.567064530E0
1.041068267E1,-6.658047878E0,-5.161264166E0,1.889761627E0,8.633623129E0
1.042066767E1,-6.230114722E0,-5.763872949E0,1.848724552E0,8.686445953E0
1.043065367E1,-5.994584198E0,-6.362536030E0,1.740739927E0,8.913309146E0
1.044063867E1,-5.596719180E0,-6.941395762E0,1.635232329E0,9.065330963E0
1.045062467E1,-5.151189414E0,-7.325944331E0,1.519345193E0,9.083645883E0
1.046060967E1,-4.729501669E0,-7.683754753E0,1.433228570E0,9.135776775E0
1.047059567E1,-4.232506465E0,-8.112869630E0,1.348621406E0,9.249407782E0
1.048058067E1,-3.464033517E0,-8.329577383E0,1.218269574E0,9.103052693E0
1.049056667E1,-2.657090275E0,-8.530709907E0,1.221800854E0,9.018089463E0
1.050055167E1,-2.040390580E0,-8.856323220E0,1.200306927E0,9.167245574E0
1.051053767E1,-1.382673398E0,-8.869226856E0,1.323575004E0,9.073412893E0
1.052052267E1,-5.596680003E-1,-8.919740367E0,1.596004529E0,9.078668787E0
1.053050867E1,3.887436542E-1,-8.962485852E0,1.553911447E0,9.104499715E0
1.054049367E1,1.573952048E0,-8.522711501E0,1.228822044E0,8.753510152E0
1.055047867E1,2.662782832E0,-7.968893055E0,1.039934905E0,8.466116792E0
1.056046467E1,3.249834220E0,-7.651853514E0,1.496289037E0,8.446961912E0
1.057044967E1,2.911277510E0,-7.466027831E0,2.453876727E0,8.380848364E0
1.058043567E1,1.604428905E0,-7.289378183E0,3.049672334E0,8.062861016E0
1.059042067E1,1.400829733E0,-7.298806234E0,3.135423506E0,8.066336030E0
1.060040667E1,2.020981332E0,-7.329583638E0,2.606905670E0,8.037606548E0
1.061039167E1,3.293833641E0,-7.064366215E0,2.040354912E0,8.057149511E0
1.062037767E1,5.729787190E0,-6.339302119E0,1.716759765E0,8.715760247E0
1.063036267E1,8.764385110E0,-5.451519951E0,1.517397485E0,1.043244992E1
1.064034867E1,1.131397637E1,-4.340194636E0,1.828515843E0,1.225507328E1
1.065033367E1,1.274475496E1,-3.058774402E0,2.755201291E0,1.339313309E1
1.066031867E1,1.343351603E1,-2.004528437E0,3.731295126E0,1.408545528E1
1.067030467E1,1.398204216E1,-1.429825491E0,3.985439969E0,1.460909428E1
1.068028967E1,1.486234750E1,-8.977832454E-1,3.624353938E0,1.532420730E1
1.069027567E1,1.606452568E1,-4.439077485E-1,3.284367583E0,1.640283847E1
1.070026067E1,1.683814739E1,4.531650603E-2,2.774476345E0,1.706525652E1
1.071024667E1,1.729381506E1,1.418663156E-1,2.237278610E0,1.743850857E1
1.072023167E1,1.760456066E1,1.014281416E-1,2.046689785E0,1.772342469E1
1.073021767E1,1.715224111E1,2.342821437E-1,2.151352606E0,1.728822088E1
1.074020267E1,1.644073553E1,3.091241652E-1,2.564289700E0,1.664238337E1
1.075018867E1,1.571868392E1,1.754234862E-1,2.984126508E0,1.600040027E1
1.076017367E1,1.494304609E1,1.980972344E-1,3.156322624E0,1.527403815E1
1.077015867E1,1.405378048E1,-2.660465580E-1,3.483714952E0,1.448156747E1
1.078014467E1,1.285526266E1,-8.925757152E-1,3.882440681E0,1.345837342E1
1.079012967E1,1.144578431E1,-1.356404343E0,4.220387234E0,1.227426085E1
1.080011567E1,1.013547941E1,-2.103157516E0,4.505862628E0,1.128955324E1
1.081010067E1,9.034180318E0,-2.851349689E0,4.310946863E0,1.040821175E1
1.082008667E1,8.211233246E0,-3.343145549E0,3.876054352E0,9.675989403E0
1.083007167E1,7.481250472E0,-4.027981972E0,3.529480525E0,9.200596729E0
1.084005767E1,6.538185804E0,-4.703682704E0,3.273393237E0,8.694113403E0
1.085004267E1,5.414046316E0,-5.289342747E0,3.106885293E0,8.181795673E0
1.086002867E1,4.368746590E0,-5.704576920E0,2.908139602E0,7.751478604E0
1.087001367E1,3.303445002E0,-6.158489254E0,2.802328972E0,7.529461232E0
1.087999867E1,2.259805593E0,-6.688073330E0,2.794489610E0,7.592510676E0
1.088998467E1,1.309535693E0,-7.227035755E0,2.760979217E0,7.846523802E0
1.089996967E1,4.706491122E-1,-7.705169011E0,2.526574867E0,8.122482418E0
1.090995567E1,-2.550125697E-1,-8.197790498E0,2.108019330E0,8.468326042E0
1.091994067E1,-6.704921789E-1,-8.473090859E0,1.588735271E0,8.646786006E0
1.092992667E1,-6.570299882E-1,-8.590033418E0,1.297300102E0,8.712252871E0
1.093991167E1,-5.701279382E-1,-8.755971551E0,1.131694676E0,8.847192578E0
1.094989767E1,-3.464392682E-1,-8.817780713E0,8.413593686E-1,8.864601653E0
1.095988267E1,-1.705811877E-2,-8.660542653E0,4.954977322E-1,8.674722360E0
1.096986867E1,3.414920487E-1,-8.562797672E0,6.010656659E-1,8.590657759E0
1.097985367E1,7.024300363E-1,-8.423137511E0,1.054579841E0,8.517910080E0
1.098983967E1,8.281114782E-1,-8.380156968E0,1.425010893E0,8.540694086E0
1.099982467E1,6.616361323E-1,-8.486044196E0,1.545293967E0,8.650933008E0
1.100980967E1,3.660101183E-1,-8.433100582E0,1.551023068E0,8.582355235E0
1.101979567E1,-3.143682405E-2,-8.083749912E0,1.564660676E0,8.233842599E0
1.102978067E1,-4.104116812E-1,-7.689340013E0,1.654467915E0,7.876017501E0
1.103976667E1,-7.758775699E-1,-7.255953745E0,1.679730225E0,7.488146925E0
1.104975167E1,-1.290806769E0,-6.622806124E0,1.743414590E0,6.969019838E0
1.105973767E1,-2.032771950E0,-5.940824897E0,1.884804357E0,6.555764618E0
1.106972267E1,-2.950927480E0,-5.208685670E0,2.047077456E0,6.326840089E0
1.107970867E1,-4.153405040E0,-4.340964130E0,2.009078155E0,6.334914209E0
1.108969367E1,-5.407603853E0,-3.700541403E0,1.613892331E0,6.748394962E0
1.109967967E1,-6.538838938E0,-3.033153657E0,9.174884353E-1,7.266238421E0
1.110966467E1,-7.686456167E0,-2.252693624E0,3.861261481E-1,8.019060442E0
1.111964967E1,-8.993711153E0,-1.735775203E0,2.395094814E-1,9.162811831E0
1.112963567E1,-1.020684819E1,-1.412345240E0,3.686365414E-1,1.031069163E1
1.113962067E1,-1.136504829E1,-1.094963636E0,5.905605948E-1,1.143293619E1
1.114960667E1,-1.229544789E1,-7.911364639E-1,8.516218168E-1,1.235027107E1
1.115959167E1,-1.291367283E1,-5.537441862E-1,1.128621891E0,1.297472027E1
1.116957767E1,-1.344234533E1,-5.771196002E-1,1.251224043E0,1.351278197E1
1.117956267E1,-1.393895754E1,-8.329212517E-1,1.418257359E0,1.403565991E1
1.118954867E1,-1.438528136E1,-1.123360639E0,1.653936403E0,1.452355895E1
1.119953367E1,-1.486856192E1,-1.531218549E0,1.885936378E0,1.506570675E1
1.120951967E1,-1.498663825E1,-2.001215989E0,1.867733265E0,1.523458628E1
1.121950467E1,-1.459788495E1,-2.406717471E0,1.486863471E0,1.486947534E1
1.122949067E1,-1.389172373E1,-2.787084112E0,9.985997683E-1,1.420369767E1
1.123947567E1,-1.317393357E1,-3.202408331E0,5.719343624E-1,1.356963720E1
1.124946067E1,-1.239933186E1,-3.640253686E0,1.921050078E-1,1.292407760E1
1.125944667E1,-1.140219916E1,-4.026930642E0,-1.747265712E-1,1.209366964E1
1.126943167E1,-1.032968065E1,-4.438395115E0,-5.285602649E-1,1.125526674E1
1.127941767E1,-9.297480438E0,-4.749073470E0,-8.368552583E-1,1.047364158E1
1.128940267E1,-8.350918550E0,-4.997616972E0,-9.842477775E-1,9.781756475E0
1.129938867E1,-7.510357912E0,-5.328801513E0,-1.049463528E0,9.268385794E0
1.130937367E1,-6.819339813E0,-5.633588798E0,-9.191975033E-1,8.893010867E0
1.131935967E1,-6.345370359E0,-5.844306078E0,-5.777423286E-1,8.646006288E0
1.132934467E1,-5.895282104E0,-6.128322299E0,-1.705153334E-1,8.505278406E0
1.133933067E1,-5.409764400E0,-6.467360235E0,1.072929080E-1,8.432307575E0
1.134931567E1,-4.818597448E0,-6.843673001E0,3.148901045E-1,8.375792338E0
1.135930067E1,-4.236307155E0,-7.375183150E0,6.373114228E-1,8.529114295E0
1.136928667E1,-3.817829533E0,-7.819666264E0,1.141467127E0,8.776442903E0
1.137927167E1,-3.517428244E0,-8.193641313E0,1.900749130E0,9.117066780E0
1.138925767E1,-3.217152962E0,-8.346041388E0,2.573250850E0,9.307421768E0
1.139924267E1,-2.830620140E0,-8.473651022E0,3.083080108E0,9.450955242E0
1.140922867E1,-2.407956496E0,-8.746303180E0,3.465729502E0,9.711197392E0
1.141921367E1,-2.088970855E0,-9.130864613E0,3.585720799E0,1.002965012E1
1.142919967E1,-1.658128856E0,-9.366364147E0,3.406765594E0,1.010367361E1
1.143918467E1,-8.088349624E-1,-9.516185015E0,3.090071624E0,1.003795467E1
1.144916967E1,3.037187067E-1,-9.352273527E0,2.865126899E0,9.786021527E0
1.145915567E1,1.342462242E0,-9.040982383E0,2.817250482E0,9.564437652E0
1.146914067E1,2.118228861E0,-8.795449027E0,2.728445894E0,9.449403902E0
1.147912667E1,3.182799693E0,-8.494744268E0,2.552426577E0,9.423681632E0
1.148911167E1,4.213911442E0,-8.036820744E0,2.584536561E0,9.435431445E0
1.149909767E1,4.607153944E0,-7.434026020E0,2.886393222E0,9.209879270E0
1.150908267E1,4.242475091E0,-6.854338907E0,3.461821223E0,8.772956339E0
1.151906867E1,3.960337580E0,-6.228502060E0,3.971625338E0,8.381665675E0
1.152905367E1,4.153292773E0,-5.665259072E0,4.073712460E0,8.120353097E0
1.153903967E1,4.800292155E0,-5.084814745E0,3.575881689E0,7.853984697E0
1.154902467E1,5.743874302E0,-4.328467460E0,2.883662865E0,7.748756937E0
1.155901067E1,6.557746494E0,-3.523573667E0,2.470316758E0,7.843600918E0
1.156899567E1,7.230886146E0,-2.724539369E0,2.415324572E0,8.095839798E0
1.157898067E1,7.861691372E0,-2.052100798E0,2.554642087E0,8.517247508E0
1.158896667E1,8.341606275E0,-1.405412781E0,2.800568083E0,8.910710517E0
1.159895167E1,8.908049444E0,-8.759918422E-1,2.982850353E0,9.434940532E0
1.160893767E1,9.631700853E0,-2.113674903E-1,3.073224626E0,1.011232155E1
1.161892267E1,1.054547682E1,4.879214948E-1,3.360851503E0,1.107882988E1
1.162890867E1,1.147209327E1,1.033363804E0,3.658286499E0,1.208552129E1
1.163889367E1,1.259846932E1,1.587095711E0,3.704944941E0,1.322750615E1
1.164887967E1,1.383015723E1,1.811498984E0,3.281146937E0,1.432901611E1
1.165886467E1,1.473569797E1,1.745301486E0,2.672474884E0,1.507743327E1
1.166885067E1,1.553720974E1,1.867950343E0,2.105472136E0,1.579009619E1
1.167883567E1,1.639754098E1,1.874469404E0,1.886618164E0,1.661181248E1
1.168882067E1,1.668401479E1,1.622094221E0,1.926039799E0,1.687297153E1
1.169880667E1,1.619165116E1,1.165198052E0,2.131011020E0,1.637279640E1
1.170879167E1,1.515754418E1,5.636932236E-1,2.290345308E0,1.533996666E1
1.171877767E1,1.407028951E1,-9.968976438E-2,2.239371328E0,1.424772855E1
1.172876267E1,1.298191101E1,-7.661606669E-1,2.063942580E0,1.316726527E1
1.173874867E1,1.163966862E1,-1.578985623E0,1.851529607E0,1.189130956E1
1.174873367E1,1.013882636E1,-2.372591951E0,1.778621552E0,1.056354520E1
1.175871967E1,8.942873122E0,-2.915759109E0,2.029898628E0,9.622739698E0
1.176870467E1,7.730017923E0,-3.401191444E0,2.323170115E0,8.758904025E0
1.177869067E1,6.699221631E0,-3.924351184E0,2.547341253E0,8.171233086E0
1.178867567E1,5.981688749E0,-4.337719510E0,2.767762572E0,7.890305475E0
1.179866067E1,5.830989629E0,-4.646998626E0,3.056508606E0,8.058367151E0
1.180864667E1,6.106542006E0,-4.867034613E0,3.251605634E0,8.458771802E0
1.181863167E1,6.000927258E0,-5.246649887E0,3.419853417E0,8.673745464E0
1.182861767E1,5.363493043E0,-6.057744652E0,3.790207286E0,8.934707559E0
1.183860267E1,4.488000261E0,-7.038059592E0,4.386920906E0,9.429819945E0
1.184858867E1,3.614173058E0,-7.472360365E0,4.436276668E0,9.411639974E0
1.185857367E1,3.025223079E0,-7.811600615E0,4.093685380E0,9.323697701E0
1.186855967E1,2.780104875E0,-8.373351393E0,3.829397079E0,9.618018437E0
1.187854467E1,2.694107243E0,-8.686841090E0,3.301376549E0,9.675665821E0
1.188853067E1,2.682985547E0,-8.998350334E0,2.789580288E0,9.795431505E0
1.189851567E1,2.609892720E0,-9.322324673E0,2.659504298E0,1.003943427E1
1.190850067E1,2.432752491E0,-9.690006364E0,2.603783256E0,1.032444649E1
1.191848667E1,2.188540313E0,-9.931417433E0,2.307685518E0,1.042823923E1
1.192847167E1,1.851516159E0,-1.009288712E1,2.222235478E0,1.049918154E1
1.193845767E1,1.225430805E0,-1.031153557E1,2.555744287E0,1.069398313E1
1.194844267E1,5.345340362E-1,-1.039232070E1,2.922690398E0,1.080870831E1
1.195842867E1,-2.970654523E-1,-1.066337657E1,2.978465234E0,1.107551817E1
1.196841367E1,-1.083674709E0,-1.082568241E1,2.597951828E0,1.118566512E1
1.197839967E1,-1.889564868E0,-1.083327677E1,1.950477945E0,1.116846924E1
1.198838467E1,-3.119218240E0,-9.924594902E0,1.124844663E0,1.046386076E1
1.199837067E1,-4.034862975E0,-9.018983404E0,4.794903580E-1,9.892021627E0
1.200835567E1,-4.864435526E0,-8.432421720E0,-6.218166668E-2,9.735108403E0
1.201834167E1,-5.641603577E0,-8.026865274E0,-8.712094045E-1,9.849734152E0
1.202832667E1,-6.716531144E0,-7.248799676E0,-1.717716662E0,1.003032591E1
1.203831167E1,-8.023385596E0,-6.221194210E0,-1.895401851E0,1.032814223E1
1.204829767E1,-9.136345208E0,-5.276215163E0,-1.225667033E0,1.062137043E1
1.205828267E1,-9.986891137E0,-3.815397676E0,-3.195743090E-1,1.069567117E1
1.206826867E1,-1.072580261E1,-2.250453556E0,2.422717792E-1,1.096202894E1
1.207825367E1,-1.157626609E1,-1.399749168E0,2.355030423E-1,1.166296258E1
1.208823967E1,-1.280078415E1,-9.028147745E-1,-5.587067912E-1,1.284473832E1
1.209822467E1,-1.409715864E1,-5.368661982E-1,-1.891841481E0,1.423366331E1
1.210821067E1,-1.543952381E1,-4.206638968E-1,-2.920269651E0,1.571890036E1
1.211819567E1,-1.662475209E1,-5.046568108E-1,-3.263096582E0,1.694947963E1
1.212818167E1,-1.721097756E1,-6.921360862E-1,-2.936065319E0,1.747333055E1
1.213816704E1,-1.695856963E1,-1.049690400E0,-2.208142519E0,1.713390870E1
1.214815204E1,-1.617345346E1,-1.363650797E0,-1.313091677E0,1.628386778E1
1.215813804E1,-1.534819498E1,-1.598477901E0,-2.558672134E-1,1.543333045E1
1.216812304E1,-1.453198917E1,-1.884622509E0,7.943599608E-1,1.467520081E1
1.217810904E1,-1.356861829E1,-2.205744576E0,1.510324693E0,1.382945379E1
1.218809404E1,-1.246567905E1,-2.601881157E0,1.817136723E0,1.286331705E1
1.219808004E1,-1.130775610E1,-3.170557963E0,1.734849442E0,1.187128841E1
1.220806504E1,-1.005559709E1,-3.660850503E0,1.303117497E0,1.078030493E1
1.221805104E1,-8.846789920E0,-3.893046361E0,6.489122987E-1,9.687238462E0
1.222803604E1,-7.662113623E0,-4.319925263E0,1.697511754E-1,8.797644850E0
1.223802204E1,-6.739573851E0,-4.903382660E0,-1.447319629E-1,8.335824167E0
1.224800704E1,-6.191973335E0,-5.332273589E0,-4.165170515E-1,8.182124532E0
1.225799204E1,-5.653965175E0,-5.804562553E0,-3.798234344E-1,8.111999413E0
1.226797804E1,-5.113683618E0,-6.220776134E0,-2.173024507E-1,8.055745541E0
1.227796304E1,-4.610619589E0,-6.641361678E0,3.824020565E-2,8.084983627E0
1.228794904E1,-4.099729646E0,-7.085509163E0,3.402629640E-1,8.193168017E0
1.229793404E1,-3.719900657E0,-7.378261124E0,5.422689889E-1,8.280727853E0
1.230792004E1,-3.399055456E0,-7.682869484E0,6.835956430E-1,8.428959871E0
1.231790504E1,-3.179689267E0,-8.034676570E0,8.689371765E-1,8.684555442E0
1.232789104E1,-3.264562479E0,-8.388709105E0,1.008989101E0,9.057917401E0
1.233787604E1,-3.214078496E0,-8.646834440E0,1.013527125E0,9.280370879E0
1.234786204E1,-2.837867764E0,-8.723653405E0,9.176871675E-1,9.219423622E0
1.235784704E1,-2.414385802E0,-8.838552947E0,8.827868184E-1,9.204813391E0
1.236783204E1,-2.224604624E0,-9.127015976E0,1.118549623E0,9.460572901E0
1.237781804E1,-1.843498164E0,-9.244067293E0,1.398012545E0,9.529202730E0
1.238780304E1,-1.285083661E0,-9.201985466E0,1.680237179E0,9.441989913E0
1.239778904E1,-7.282134799E-1,-9.323873016E0,2.243757910E0,9.617658366E0
1.240777404E1,-3.048645051E-1,-9.385986818E0,2.782650753E0,9.794530929E0
1.241776004E1,3.546372838E-1,-9.173914154E0,3.071933561E0,9.681076609E0
1.242774504E1,8.852072002E-1,-8.950773879E0,3.208563695E0,9.549598201E0
1.243773104E1,1.293968212E0,-8.855732067E0,3.320637862E0,9.545940498E0
1.244771604E1,1.912298989E0,-8.636287233E0,3.589029154E0,9.545861661E0
1.245770204E1,2.502214489E0,-8.227231228E0,3.919633943E0,9.450499525E0
1.246768704E1,2.747401398E0,-7.681304185E0,4.123631310E0,9.140841515E0
1.247767204E1,2.729047280E0,-7.370473802E0,4.291125387E0,8.954626749E0
1.248765804E1,2.799896531E0,-7.015341990E0,4.245575577E0,8.664834436E0
1.249764304E1,3.284347118E0,-6.563080909E0,3.841595248E0,8.283647812E0
1.250762904E1,4.147441172E0,-5.936654078E0,3.226291868E0,7.928057085E0
1.251761404E1,5.076639168E0,-5.139537667E0,2.693541525E0,7.709881881E0
1.252760004E1,5.920537398E0,-4.618084145E0,2.561506718E0,7.933522604E0
1.253758504E1,7.255130457E0,-4.156044765E0,2.811931270E0,8.821370840E0
1.254757104E1,9.124407533E0,-3.408879948E0,3.189969549E0,1.024944784E1
1.255755604E1,1.131596793E1,-2.206488926E0,3.133949130E0,1.194744160E1
1.256754204E1,1.324727637E1,-1.177181920E0,3.107479954E0,1.365769088E1
1.257752704E1,1.478993090E1,-3.691493422E-1,3.152633323E0,1.512671227E1
1.258751204E1,1.551923072E1,4.345714992E-1,3.404558271E0,1.589422510E1
1.259749804E1,1.579475854E1,1.120990763E0,3.740670844E0,1.627032993E1
1.260748304E1,1.588837363E1,1.223827499E0,4.069358039E0,1.644681869E1
1.261746904E1,1.577695260E1,1.333457530E0,3.993171158E0,1.632898521E1
1.262745404E1,1.595934947E1,1.463311910E0,3.610955628E0,1.642805886E1
1.263744004E1,1.603247124E1,1.432230451E0,3.089616126E0,1.639015393E1
1.264742504E1,1.597935513E1,1.325712308E0,2.730699703E0,1.626511680E1
1.265741104E1,1.541659103E1,1.052881810E0,2.715039983E0,1.568920907E1
1.266739604E1,1.431961946E1,6.333090037E-1,2.820858214E0,1.460855307E1
1.267738204E1,1.311617010E1,5.638294637E-2,2.948099474E0,1.344352586E1
1.268736704E1,1.184096955E1,-5.775160414E-1,2.848651784E0,1.219249366E1
1.269735204E1,1.063835867E1,-1.222293189E0,2.648605673E0,1.103103748E1
1.270733804E1,9.462618088E0,-1.896588836E0,2.498840353E0,9.969071842E0
1.271732304E1,8.373833204E0,-2.430184101E0,2.470970185E0,9.062702188E0
1.272730904E1,7.526210298E0,-2.880085246E0,2.675516313E0,8.491002297E0
1.273729404E1,6.776177421E0,-3.367472890E0,2.993303713E0,8.137341165E0
1.274728004E1,5.924588349E0,-3.850914248E0,3.378770588E0,7.832392887E0
1.275726504E1,5.096531396E0,-4.251686502E0,3.709477995E0,7.603400383E0
1.276725104E1,4.447453329E0,-4.735783333E0,3.921746249E0,7.588648004E0
1.277723604E1,3.944038174E0,-5.444899149E0,3.995185816E0,7.820733570E0
1.278722204E1,3.412038029E0,-6.311035509E0,3.846651043E0,8.140509625E0
1.279720704E1,2.487721288E0,-6.850599028E0,3.471570870E0,8.072872386E0
1.280719304E1,1.748593615E0,-7.149775910E0,3.143884719E0,8.003804490E0
1.281717804E1,1.381423555E0,-7.601814796E0,2.860437432E0,8.238811901E0
1.282716304E1,1.049822254E0,-8.074982597E0,2.307665492E0,8.463615700E0
1.283714904E1,6.760245951E-1,-8.429051385E0,1.600783897E0,8.606301505E0
1.284713404E1,3.768797267E-1,-8.531027411E0,1.125416520E0,8.613189267E0
1.285712004E1,2.921562580E-1,-8.507183050E0,1.073163901E0,8.579580379E0
1.286710504E1,2.565379256E-1,-8.343710103E0,1.375281347E0,8.460183732E0
1.287709104E1,2.836938934E-1,-8.373055524E0,1.950272854E0,8.601866381E0
1.288707604E1,2.631883659E-1,-8.453679857E0,2.340587070E0,8.775666304E0
1.289706204E1,1.728729308E-2,-8.451495922E0,2.587283583E0,8.838671762E0
1.290704704E1,2.141455024E-2,-8.449688548E0,2.432069682E0,8.792761687E0
1.291703304E1,9.386769176E-2,-8.270876015E0,2.053857887E0,8.522589596E0
1.292701804E1,-1.522723129E-1,-8.033058645E0,1.915972356E0,8.259792257E0
1.293700304E1,-6.647170302E-1,-7.928041483E0,1.830390168E0,8.163701284E0
1.294698904E1,-1.174487231E0,-7.742333913E0,1.601855107E0,7.993065399E0
1.295697404E1,-1.917792301E0,-7.293567713E0,1.446017016E0,7.678868570E0
1.296696004E1,-2.595281990E0,-6.764760733E0,1.197764120E0,7.343848804E0
1.297694504E1,-2.917090812E0,-6.298557551E0,5.754788715E-1,6.965085926E0
1.298693104E1,-3.508321205E0,-5.594841639E0,-2.305219455E-1,6.607852224E0
1.299691604E1,-4.560486732E0,-4.756384828E0,-6.486520976E-1,6.621328070E0
1.300690204E1,-5.951360995E0,-4.103793461E0,-4.839566441E-1,7.245276565E0
1.301688704E1,-7.549003914E0,-3.267219454E0,-3.646325143E-1,8.233780415E0
1.302687304E1,-9.249850774E0,-2.287360597E0,-6.301883447E-1,9.549287680E0
1.303685804E1,-1.082906912E1,-1.644417136E0,-1.026732038E0,1.100122831E1
1.304684304E1,-1.232696321E1,-9.713382947E-1,-1.582617329E0,1.246604178E1
1.305682904E1,-1.336913117E1,-4.436533946E-1,-2.286785815E0,1.357055216E1
1.306681404E1,-1.407823822E1,-7.646813214E-2,-2.896593105E0,1.437333956E1
1.307680004E1,-1.452454917E1,9.731871843E-2,-3.077976658E0,1.484742199E1
1.308678504E1,-1.474640072E1,2.737958729E-2,-2.741413849E0,1.499908109E1
1.309677104E1,-1.474500557E1,-5.190514863E-2,-2.060929656E0,1.488842888E1
1.310675604E1,-1.430895063E1,-1.147627169E-1,-1.283544089E0,1.436686201E1
1.311674204E1,-1.397085059E1,-2.796460122E-1,-4.122427368E-1,1.397972862E1
1.312672704E1,-1.353507047E1,-4.502630872E-1,5.349167365E-1,1.355311792E1
1.313671333E1,-1.293126243E1,-8.030601060E-1,1.263815437E0,1.301766811E1
1.314669833E1,-1.228193147E1,-1.258138960E0,1.656058357E0,1.245677661E1
1.315668333E1,-1.141417894E1,-1.715642654E0,1.684828997E0,1.166471428E1
1.316666933E1,-1.047486935E1,-2.154372693E0,1.281289987E0,1.077060414E1
1.317665433E1,-9.509822075E0,-2.586000704E0,6.471606191E-1,9.876382557E0
1.318664033E1,-8.508345476E0,-3.033180555E0,-8.948505744E-2,9.033279283E0
1.319662533E1,-7.674811437E0,-3.436080025E0,-7.262354399E-1,8.440189242E0
1.320661133E1,-6.995298319E0,-3.855265746E0,-1.115856907E0,8.064887426E0
1.321659633E1,-6.534426629E0,-4.306866091E0,-1.256656691E0,7.926349282E0
1.322658233E1,-6.082263197E0,-4.741408355E0,-1.289609259E0,7.819077364E0
1.323656733E1,-5.857337183E0,-5.285067848E0,-1.295024366E0,7.994837656E0
1.324655333E1,-5.617202561E0,-5.897824473E0,-1.266813889E0,8.242700744E0
1.325653833E1,-5.545266606E0,-6.380455408E0,-1.185474442E0,8.536131594E0
1.326652333E1,-5.481902668E0,-6.942435982E0,-8.827764396E-1,8.889767627E0
1.327650933E1,-5.271107036E0,-7.600555891E0,-3.116811526E-1,9.254737402E0
1.328649433E1,-5.041304444E0,-8.026766456E0,1.327510911E-1,9.479522831E0
1.329648033E1,-4.691979794E0,-8.444869273E0,4.286662500E-1,9.670276427E0
1.330646533E1,-4.147651379E0,-9.113363897E0,4.340341401E-1,1.002221528E1
1.331645133E1,-3.479490924E0,-9.480165582E0,5.017429970E-2,1.009865902E1
1.332643633E1,-2.941649995E0,-9.616457747E0,-2.653257425E-1,1.005981918E1
1.333642233E1,-2.852813832E0,-9.750809221E0,-9.689830363E-2,1.016003034E1
1.334640733E1,-2.908110366E0,-9.939160316E0,3.937246048E-1,1.036335046E1
1.335639333E1,-2.656062334E0,-1.009804320E1,1.182590595E0,1.050826646E1
1.336637833E1,-2.302794176E0,-1.028607913E1,2.117625867E0,1.075130802E1
1.337636333E1,-2.028273395E0,-1.032278444E1,3.096647987E0,1.096644885E1
1.338634933E1,-1.080551712E0,-1.012818209E1,3.656264825E0,1.082201168E1
1.339633433E1,7.795313488E-1,-9.891047087E0,4.165006208E0,1.076047203E1
1.340632033E1,3.141823868E0,-9.086807597E0,4.394424053E0,1.057128622E1
1.341630533E1,5.294486543E0,-7.857328180E0,4.329454470E0,1.041697508E1
1.342629133E1,6.535983742E0,-6.814457973E0,4.381431247E0,1.040926802E1
1.343627633E1,7.779249140E0,-6.199341996E0,4.565474699E0,1.094495855E1
1.344626233E1,8.984266731E0,-5.139735888E0,4.868007298E0,1.143815670E1
1.345624733E1,9.926305797E0,-3.913518047E0,5.270308891E0,1.190055991E1
1.346623233E1,1.065337432E1,-3.099650533E0,5.485248445E0,1.237700159E1
1.347621833E1,1.121177523E1,-2.424980080E0,5.480153182E0,1.271284827E1
1.348620333E1,1.190775293E1,-1.710087799E0,5.347875715E0,1.316505810E1
1.349618933E1,1.294200259E1,-1.049810268E0,4.907687965E0,1.388102784E1
1.350617433E1,1.379065812E1,-5.693100590E-1,4.218646810E0,1.443271791E1
1.351616033E1,1.432600579E1,-9.752863348E-2,3.491043853E0,1.474555326E1
1.352614533E1,1.478673364E1,1.857011372E-1,2.645974426E0,1.502275465E1
1.353613133E1,1.485390178E1,3.929276294E-1,1.903738226E0,1.498055437E1
1.354611633E1,1.443102412E1,4.757306349E-1,1.503155422E0,1.451689544E1
1.355610233E1,1.386397752E1,3.475491428E-1,1.434327847E0,1.394230826E1
1.356608733E1,1.350920824E1,2.872959244E-1,1.294220958E0,1.357410233E1
1.357607333E1,1.317647477E1,1.936165130E-1,1.139981934E0,1.322711358E1
1.358605833E1,1.274412580E1,1.096452338E-1,9.527909267E-1,1.278016334E1
1.359604333E1,1.202445517E1,-9.322391331E-2,8.825284445E-1,1.205715843E1
1.360602933E1,1.097298313E1,-5.115547711E-1,1.055244085E0,1.103546950E1
1.361601433E1,9.817910113E0,-9.141607118E-1,1.373812673E0,9.955622033E0
1.362600033E1,8.823268325E0,-1.163395355E0,1.656385509E0,9.052467379E0
1.363598533E1,8.070955034E0,-1.539570127E0,1.891099177E0,8.431301646E0
1.364597133E1,7.324174379E0,-1.893247152E0,1.915731450E0,7.803713354E0
1.365595633E1,6.713860720E0,-2.173837489E0,1.947062586E0,7.320693131E0
1.366594233E1,6.295117049E0,-2.582526289E0,2.270000213E0,7.172924206E0
1.367592733E1,6.028182884E0,-2.917909130E0,2.691344726E0,7.217791837E0
1.368591233E1,5.993701853E0,-3.206816547E0,3.016122472E0,7.436741829E0
1.369589833E1,6.078228618E0,-3.545196671E0,3.183105503E0,7.723046239E0
1.370588333E1,6.061419627E0,-3.953713562E0,3.222751379E0,7.922044261E0
1.371586933E1,5.716447937E0,-4.585581227E0,3.168534826E0,7.984043158E0
1.372585433E1,5.027030221E0,-5.501304315E0,3.089910241E0,8.067399042E0
1.373584033E1,4.186138630E0,-6.470299045E0,3.025126600E0,8.278883820E0
1.374582533E1,3.206168383E0,-7.349771150E0,2.780346365E0,8.486988722E0
1.375581133E1,2.265339836E0,-7.848094842E0,2.402772354E0,8.514556489E0
1.376579633E1,1.677900339E0,-8.044847217E0,2.286549588E0,8.530136300E0
1.377578233E1,1.483963106E0,-8.180224877E0,1.967396571E0,8.543352668E0
1.378576733E1,1.416929164E0,-8.229015799E0,1.634087152E0,8.508503399E0
1.379575333E1,1.539584599E0,-8.536367673E0,1.583229532E0,8.817398116E0
1.380573833E1,1.314111139E0,-8.895339351E0,1.762447423E0,9.162978292E0
1.381572333E1,8.064718102E-1,-9.061118440E0,1.984664860E0,9.310916108E0
1.382570933E1,6.937165886E-1,-9.068498211E0,2.027394412E0,9.318220356E0
1.383569433E1,7.432571232E-1,-8.957795801E0,1.934533172E0,9.194398042E0
1.384568033E1,5.635435349E-1,-9.232342456E0,1.758857086E0,9.415269873E0
1.385566533E1,1.132672915E-1,-9.364121155E0,1.571983582E0,9.495826813E0
1.386565133E1,-5.695866323E-1,-9.196259288E0,1.451144439E0,9.327455924E0
1.387563633E1,-1.427559695E0,-8.886081455E0,1.270497635E0,9.089253795E0
1.388562233E1,-2.381085616E0,-8.549032157E0,1.001736361E0,8.930789174E0
1.389560733E1,-3.658672416E0,-7.844751404E0,5.050238697E-1,8.670701099E0
1.390559233E1,-4.737798284E0,-6.959311631E0,6.149458230E-2,8.419176476E0
1.391557833E1,-5.354343905E0,-6.337154437E0,-9.146667883E-2,8.296800055E0
1.392556333E1,-5.733391998E0,-5.755660535E0,-2.584923939E-1,8.128113577E0
1.393554933E1,-6.394238464E0,-5.032669276E0,-5.376168345E-1,8.154941903E0
1.394553433E1,-7.042932077E0,-4.497328616E0,-6.663520579E-1,8.382892221E0
1.395552033E1,-7.690732235E0,-3.772158101E0,-7.898910069E-1,8.602352402E0
1.396550533E1,-8.338027779E0,-3.029825422E0,-9.411375721E-1,8.921226892E0
1.397549133E1,-9.106955933E0,-2.561845856E0,-9.958423676E-1,9.512696914E0
1.398547633E1,-1.029486516E1,-1.872367330E0,-1.161488140E0,1.052801324E1
1.399546233E1,-1.129859352E1,-1.148874380E0,-1.352459372E0,1.143710078E1
1.400544733E1,-1.216828031E1,-6.586391419E-1,-1.553937321E0,1.228476993E1
1.401543233E1,-1.304559888E1,-3.457248116E-1,-1.802123705E0,1.317402086E1
1.402541833E1,-1.356520234E1,-2.031229162E-1,-2.071572465E0,1.372397122E1
1.403540333E1,-1.352718960E1,-2.820515567E-1,-2.293406179E0,1.372312367E1
1.404538933E1,-1.343252785E1,-5.235333771E-1,-2.227975836E0,1.362610612E1
1.405537433E1,-1.318655888E1,-9.129854214E-1,-1.782695600E0,1.333779896E1
1.406536033E1,-1.264747834E1,-1.183194028E0,-1.247029835E0,1.276376668E1
1.407534533E1,-1.198846439E1,-1.342805473E0,-6.931308438E-1,1.208332882E1
1.408533133E1,-1.131076742E1,-1.499002145E0,-2.604339619E-1,1.141263742E1
1.409531633E1,-1.052514020E1,-1.850339114E0,2.703635573E-2,1.068658327E1
1.410530233E1,-9.723422617E0,-2.303605331E0,1.242936784E-1,9.993347478E0
1.411528733E1,-9.018522059E0,-2.566803710E0,1.346011502E-1,9.377651032E0
1.412527233E1,-8.289636807E0,-2.922856459E0,1.860513854E-1,8.791802056E0
1.413525833E1,-7.600176991E0,-3.242675766E0,2.337775290E-2,8.263061354E0
1.414524258E1,-6.810840885E0,-3.522945092E0,-2.065866606E-1,7.670813107E0
1.415522858E1,-6.089694423E0,-3.825224506E0,-2.850033773E-1,7.197079103E0
1.416521358E1,-5.607300301E0,-4.258325431E0,-2.006618232E-1,7.043821215E0
1.417519958E1,-5.058536189E0,-4.537708318E0,9.021522850E-4,6.795556340E0
1.418518458E1,-4.492074308E0,-4.621593059E0,1.213735058E-1,6.446129499E0
1.419517058E1,-4.003900214E0,-4.937979466E0,2.478394248E-1,6.362097336E0
1.420515558E1,-3.601149847E0,-5.308613416E0,3.101035738E-1,6.422290934E0
1.421514158E1,-3.370701138E0,-5.621877995E0,3.171896683E-1,6.562602200E0
1.422512658E1,-2.902208186E0,-5.987386276E0,3.585774301E-1,6.663346347E0
1.423511158E1,-2.639631074E0,-6.303056983E0,4.182390565E-1,6.846247399E0
1.424509758E1,-2.553823184E0,-6.639504018E0,4.870479208E-1,7.130374614E0
1.425508258E1,-2.270625865E0,-6.779555942E0,5.588692707E-1,7.171503013E0
1.426506858E1,-1.886414973E0,-6.922846055E0,6.138975634E-1,7.201474097E0
1.427505358E1,-1.570660065E0,-7.244900168E0,7.092432120E-1,7.447051592E0
1.428503958E1,-1.219820694E0,-7.561270788E0,6.605142709E-1,7.687461060E0
1.429502458E1,-7.368269402E-1,-7.791059931E0,4.216181624E-1,7.837173640E0
1.430501058E1,-6.123993605E-2,-8.023591418E0,3.948116022E-1,8.033532584E0
1.431499558E1,7.197498545E-1,-8.068858223E0,3.516971576E-1,8.108526609E0
1.432498158E1,1.535657755E0,-7.919146113E0,2.636797513E-1,8.070975586E0
1.433496658E1,2.332209618E0,-7.689535310E0,3.747382571E-1,8.044164578E0
1.434495158E1,3.058848369E0,-7.414279972E0,7.494908398E-1,8.055422855E0
1.435493758E1,3.506369990E0,-7.280848265E0,1.161141838E0,8.164167584E0
1.436492258E1,4.355267588E0,-7.225378069E0,1.552956450E0,8.578235118E0
1.437490858E1,5.876199131E0,-6.442922382E0,1.493437350E0,8.847108011E0
1.438489358E1,6.949063801E0,-5.264468107E0,1.206834028E0,8.801168134E0
1.439487958E1,7.051275469E0,-4.374064048E0,1.092824433E0,8.369419769E0
1.440486458E1,6.568314167E0,-3.948556318E0,1.414842878E0,7.793306639E0
1.441485058E1,6.214333087E0,-3.571303319E0,1.943962977E0,7.426381028E0
1.442483558E1,6.583394136E0,-2.993249334E0,2.138675843E0,7.541522014E0
1.443482158E1,6.747833628E0,-2.368492468E0,1.655962755E0,7.340655822E0
1.444480658E1,6.212168448E0,-1.847350017E0,9.208379397E-1,6.546119570E0
1.445479158E1,5.469394305E0,-1.543172012E0,4.924855390E-1,5.704226146E0
1.446477758E1,4.722323920E0,-1.407404927E0,4.433589873E-1,4.947494217E0
1.447476258E1,4.154413977E0,-1.185029469E0,5.593537125E-1,4.356182607E0
1.448474858E1,4.060305964E0,-8.109041458E-1,4.606565130E-1,4.166035823E0
1.449473358E1,4.680076033E0,-5.305289859E-1,2.516320020E-2,4.710117394E0
1.450471958E1,5.849644586E0,-2.061535281E-1,-4.174283400E-1,5.868141740E0
1.451470458E1,6.654594512E0,2.719230098E-1,-2.686965162E-1,6.665565847E0
1.452469058E1,7.220455298E0,7.147577941E-1,2.578005221E-1,7.260324685E0
1.453467558E1,7.787784321E0,1.050731204E0,9.815794006E-1,7.919414045E0
1.454466058E1,7.771583440E0,1.508100412E0,1.629024633E0,8.082425210E0
1.455464658E1,7.312572334E0,1.598646301E0,2.094362427E0,7.772756146E0
1.456463158E1,6.864359865E0,1.365706093E0,2.336285127E0,7.378537639E0
1.457461758E1,6.286760209E0,1.076311603E0,1.713075434E0,6.604273467E0
1.458460258E1,5.604952059E0,7.559128368E-1,-2.861986944E-1,5.662932235E0
1.459458858E1,4.912276275E0,9.151594162E-2,-1.755328292E-1,4.916263332E0
1.460457358E1,3.913150257E0,-4.485282183E-2,5.974687877E-1,3.958753044E0
1.461455958E1,3.078831814E0,1.973762727E-1,1.170331907E0,3.299672636E0
1.462454458E1,2.694428255E0,2.462133873E-1,1.174879872E0,2.949730050E0
1.463453058E1,2.395161326E0,1.478462631E-1,8.815794414E-1,2.556528624E0
1.464451558E1,2.122020634E0,2.724042356E-2,4.090139043E-1,2.161251023E0
1.465450058E1,1.804277088E0,-3.628314257E-2,1.722297370E-2,1.804724053E0
1.466448658E1,1.387348393E0,-5.390957415E-2,-4.951860756E-2,1.389278193E0
1.467447158E1,1.087896107E0,-6.185360134E-2,3.214518499E-1,1.136078826E0
1.468445758E1,8.360252461E-1,-1.232534587E-2,8.459567419E-1,1.189425464E0
1.469444258E1,5.312891239E-1,2.645689666E-2,1.305751668E0,1.409948764E0
1.470442858E1,5.405870739E-1,-6.809141099E-2,1.352372687E0,1.458006416E0
1.471441358E1,5.291006573E-1,-1.341129076E-1,1.028861741E0,1.164684618E0
1.472439958E1,2.635908736E-1,-2.884782314E-2,6.085381517E-1,6.638004426E-1
1.473438458E1,6.780343562E-2,-2.551315606E-2,1.874743053E-1,2.009846814E-1
1.474437058E1,1.298023403E-2,-8.564416766E-2,-1.515949130E-2,8.793872927E-2
1.475435558E1,-7.100507855E-2,-7.763640583E-2,3.146971464E-3,1.052570003E-1
1.476434058E1,8.286381662E-3,-1.216472286E-1,2.462350219E-1,2.747697188E-1
1.477432658E1,2.448666273E-1,-1.706644374E-1,5.042124224E-1,5.859318922E-1
1.478431158E1,5.844850454E-1,-1.848585534E-1,5.973392719E-1,8.559261994E-1
1.479429758E1,3.699420784E-1,-2.539053994E-1,5.298787755E-1,6.943317723E-1
1.480428258E1,-1.179112963E-1,-3.146456909E-1,5.391682470E-1,6.353010178E-1
1.481426858E1,-4.837359848E-1,-3.117121428E-1,6.791026425E-1,8.901378332E-1
1.482425358E1,-6.013288271E-1,-3.115180153E-1,7.047590554E-1,9.774073656E-1
1.483423958E1,-7.232101636E-1,-2.621107972E-1,6.607365382E-1,1.014055119E0
1.484422458E1,-8.246774085E-1,-3.451447678E-1,5.727651787E-1,1.061733342E0
1.485421058E1,-8.768203926E-1,-3.519047338E-1,4.257053661E-1,1.036279886E0
1.486419558E1,-8.940317450E-1,-2.138946569E-1,3.686189997E-1,9.904158986E-1
1.487418058E1,-1.035783674E0,-7.087643981E-2,4.421869129E-1,1.128450511E0
1.488416658E1,-1.255293413E0,-4.305655718E-2,5.716553771E-1,1.380001916E0
1.489415158E1,-1.136514243E0,-1.258747655E-1,4.919572431E-1,1.244801595E0
1.490413758E1,-8.087041309E-1,-2.597684026E-2,2.141487184E-1,8.369807891E-1
1.491412258E1,-4.726611025E-1,2.070814812E-1,-3.777564436E-2,5.174149756E-1
1.492410858E1,-5.153714680E-1,2.694993389E-1,3.018332720E-2,5.823647284E-1
1.493409358E1,-8.460008153E-1,1.797428244E-1,4.206489864E-1,9.617538313E-1
1.494407958E1,-1.013430500E0,1.417856240E-1,6.812517866E-1,1.229328491E0
1.495406458E1,-1.180365218E0,2.183063811E-1,7.030674559E-1,1.391123133E0
1.496405058E1,-1.325095573E0,2.221789920E-1,5.915771332E-1,1.468061744E0
1.497403558E1,-1.367832872E0,1.308168322E-1,4.131402844E-1,1.434839609E0
1.498402058E1,-1.305122653E0,2.647853136E-2,3.249180794E-2,1.305795532E0
1.499400658E1,-1.072608415E0,4.012476325E-2,-4.426465040E-1,1.161048981E0
1.500399158E1,-1.087083929E0,1.326984662E-1,-5.550633180E-1,1.227784850E0
1.501397758E1,-9.768756811E-1,2.275461513E-1,-4.796623027E-1,1.111818003E0
1.502396258E1,-9.166965030E-1,2.830011445E-1,-3.660535339E-1,1.026848244E0
1.503394858E1,-8.858720286E-1,1.207432491E-1,-3.856191945E-1,9.736787696E-1
1.504393358E1,-9.542955615E-1,6.124022841E-2,-5.404660365E-1,1.098423380E0
1.505391958E1,-7.870659978E-1,1.221588600E-1,-4.689016718E-1,9.242642748E-1
1.506390458E1,-5.220037454E-1,7.686164975E-2,-3.064221668E-1,6.101558553E-1
1.507389058E1,-5.976480049E-1,-4.013879657E-2,-1.426779091E-1,6.157525855E-1
1.508387558E1,-7.206356346E-1,-1.764151740E-1,-3.409914905E-1,8.165250933E-1
1.509386058E1,-9.990463494E-1,-3.053468639E-1,-1.439464918E0,1.778592018E0
1.510384658E1,-5.776449360E-1,-2.551514411E-1,-7.695304173E-1,9.954662190E-1
1.511383158E1,5.157293541E-2,1.733091331E-1,-4.348939732E-1,4.709868270E-1
1.512381758E1,2.298559659E-1,2.633264333E-1,-2.713017431E-1,4.424694468E-1
1.513380258E1,3.125994578E-1,1.354682922E-1,1.075919840E-1,3.572759637E-1
1.514378854E1,8.216249792E-2,1.666374600E-1,1.632250249E-1,2.473077595E-1
1.515377354E1,-1.237245981E-1,1.585127538E-1,1.755287361E-1,2.669164785E-1
1.516375954E1,-4.367929295E-1,1.455149782E-1,4.202686250E-1,6.233685823E-1
1.517374454E1,-8.256354748E-1,-4.191518068E-2,7.540733027E-1,1.118953692E0
1.518373054E1,-1.063629723E0,-2.563781869E-1,3.828628170E-1,1.159147057E0
1.519371554E1,-9.238678937E-1,-1.155684632E-1,-4.045729440E-1,1.015168568E0