"Time (s)","Linear Acceleration x (m/s^2)","Linear Acceleration y (m/s^2)","Linear Acceleration z (m/s^2)","Absolute acceleration (m/s^2)"
5.736333318E-3,4.914160833E-2,2.648391080E-1,-9.513127506E-2,2.856652066E-1
1.572233328E-2,-1.503591040E-1,3.005872303E-1,-2.383412991E-1,4.120280549E-1
2.570833330E-2,3.971483689E-2,4.697851861E-1,-3.927703393E-1,6.136317533E-1
3.569333331E-2,3.416806579E-1,6.077888310E-1,-4.453783597E-1,8.273541070E-1
4.567933333E-2,6.225004256E-1,7.605245358E-1,-2.840811253E-1,1.023037846E0
5.566433328E-2,6.552081420E-1,7.950096595E-1,8.736268261E-2,1.033910202E0
6.565033330E-2,5.705461238E-1,6.948228818E-1,4.536860472E-1,1.007041581E0
7.563533331E-2,6.201475791E-1,7.214926171E-1,5.973936510E-1,1.123393872E0
8.562133333E-2,7.125887695E-1,7.821212268E-1,5.996091610E-1,1.216152751E0
9.560733329E-2,7.322735672E-1,7.257178152E-1,5.545604575E-1,1.170652906E0
1.055923333E-1,7.508771416E-1,6.494461495E-1,4.392738301E-1,1.085614241E0
1.155783333E-1,7.456580631E-1,5.746988529E-1,2.396873099E-1,9.714600996E-1
1.255633333E-1,7.118148905E-1,5.244847190E-1,-4.600589275E-3,8.841865325E-1
1.355493333E-1,6.055320616E-1,5.330964983E-1,-1.675133729E-1,8.239670407E-1
1.455343333E-1,5.576630632E-1,5.375497377E-1,-1.840528071E-1,7.961301705E-1
1.555203333E-1,6.402873632E-1,6.019234890E-1,-1.522743595E-1,8.918897211E-1
1.655063333E-1,7.430182645E-1,7.133334124E-1,-1.527819161E-1,1.041279507E0
1.754913333E-1,7.631858960E-1,8.516031057E-1,2.178789496E-2,1.143746158E0
1.854773333E-1,8.354925647E-1,9.164300162E-1,3.191702664E-1,1.280531710E0
1.954623333E-1,8.585973988E-1,9.032059532E-1,5.413925278E-1,1.358703925E0
2.054483333E-1,7.265118670E-1,8.281458306E-1,6.120935512E-1,1.260279146E0
2.154343333E-1,5.330451889E-1,7.242536724E-1,6.062381494E-1,1.084529967E0
2.254193333E-1,2.885770859E-1,5.787310928E-1,5.947694937E-1,8.786109281E-1
2.354053333E-1,9.361238770E-2,5.215248585E-1,5.930035615E-1,7.952387573E-1
2.453903333E-1,2.369730324E-3,5.541049594E-1,6.284049439E-1,8.378130431E-1
2.553763333E-1,-1.992178898E-1,5.996489221E-1,7.615869018E-1,9.895863814E-1
2.653613333E-1,-1.758296485E-1,5.949331427E-1,8.003201008E-1,1.012607413E0
2.753473333E-1,4.531296115E-2,6.822999001E-1,7.006203961E-1,9.790073327E-1
2.853333333E-1,2.508924389E-1,8.622847992E-1,5.984519970E-1,1.079178801E0
2.953183333E-1,4.350865658E-1,1.098579555E0,5.292502729E-1,1.294713562E0
3.053043333E-1,6.958217324E-1,1.369341307E0,6.337727610E-1,1.661605071E0
3.152893333E-1,1.141647514E0,1.567730318E0,8.886505524E-1,2.133269134E0
3.252753333E-1,1.764653285E0,1.728245158E0,1.107875531E0,2.707068661E0
3.352613333E-1,2.448637329E0,1.944481625E0,1.369374490E0,3.413505538E0
3.452463333E-1,2.855377252E0,1.942875395E0,1.557929653E0,3.788811008E0
3.552323333E-1,2.915155968E0,1.580335745E0,1.263626718E0,3.548569834E0
3.652173333E-1,3.378269189E0,1.477849842E0,1.230840064E0,3.887378311E0
3.752033333E-1,3.491025434E0,1.463982586E0,1.185257656E0,3.966779462E0
3.851883333E-1,3.013354985E0,1.165451821E0,9.398827596E-1,3.364812895E0
3.951743333E-1,2.404935386E0,1.071677685E0,1.040948374E0,2.831215426E0
4.051603333E-1,1.694978156E0,1.033931569E0,1.167739252E0,2.303384553E0
4.151453333E-1,7.453825861E-1,5.648498029E-1,1.367411288E0,1.656642426E0
4.251313333E-1,-5.105661531E-1,-1.230809659E-1,1.652659663E0,1.734102270E0
4.351163333E-1,-1.459705932E0,-3.491331536E-1,1.788143012E0,2.334542953E0
4.451018750E-1,-2.435022088E0,-5.318902177E-1,1.726400069E0,3.031946070E0
4.550868750E-1,-3.893260953E0,-9.407556027E-1,1.444893765E0,4.257959599E0
4.650728750E-1,-5.695649391E0,-1.491766216E0,1.097405872E0,5.989164222E0
4.750588750E-1,-7.441867720E0,-2.146074325E0,8.286185780E-1,7.789328528E0
4.850438750E-1,-9.177790858E0,-2.790098936E0,6.286072576E-1,9.613097533E0
4.950298750E-1,-1.107778394E1,-3.195248415E0,2.830686799E-1,1.153286770E1
5.050148750E-1,-1.317351140E1,-3.609881494E0,5.082136720E-2,1.365925437E1
5.150008750E-1,-1.516007953E1,-4.171037026E0,-1.318316165E-1,1.572396072E1
5.249868750E-1,-1.678455181E1,-4.822199333E0,-1.676808956E-1,1.746433231E1
5.349718750E-1,-1.769971006E1,-5.419601170E0,-7.761272460E-2,1.851101933E1
5.449578750E-1,-1.768071947E1,-6.128408838E0,1.821802363E-1,1.871358933E1
5.549428750E-1,-1.697555813E1,-6.851689534E0,5.815789792E-1,1.831538854E1
5.649288750E-1,-1.567608228E1,-7.600643599E0,1.189536210E0,1.746208278E1
5.749138750E-1,-1.420259095E1,-8.446148643E0,1.965562007E0,1.664074670E1
5.848998750E-1,-1.310353894E1,-9.173804226E0,2.778450990E0,1.623518422E1
5.948858749E-1,-1.222427207E1,-9.780392624E0,3.653829459E0,1.607604980E1
6.048708750E-1,-1.147786681E1,-1.043929372E1,4.733561684E0,1.622118633E1
6.148568750E-1,-1.104275444E1,-1.149330112E1,5.633801637E0,1.690497315E1
6.248418750E-1,-1.075269512E1,-1.280962046E1,5.954877511E0,1.775295454E1
6.348278750E-1,-9.956542919E0,-1.326377955E1,5.601615053E0,1.750539020E1
6.448138750E-1,-8.916167718E0,-1.356183084E1,5.313906316E0,1.707802397E1
6.547988750E-1,-7.862942677E0,-1.420381302E1,5.266108836E0,1.706769094E1
6.647848750E-1,-6.969516191E0,-1.467067811E1,5.326514082E0,1.709311862E1
6.747698750E-1,-5.975662608E0,-1.451058602E1,5.634513828E0,1.667373372E1
6.847558750E-1,-4.847087422E0,-1.411917574E1,6.502376286E0,1.628269872E1
6.947408750E-1,-3.947024347E0,-1.410392620E1,7.655065974E0,1.652573056E1
7.047268749E-1,-3.155708959E0,-1.395775751E1,8.453636588E0,1.662051339E1
7.147128750E-1,-2.882339932E0,-1.389600155E1,9.157812091E0,1.689000488E1
7.246978750E-1,-2.370140798E0,-1.408186583E1,9.406156204E0,1.709948207E1
7.346838750E-1,-5.293665594E-1,-1.411577383E1,9.339844100E0,1.693422533E1
7.446688749E-1,2.076076137E0,-1.385619839E1,9.385517871E0,1.686393405E1
7.546548750E-1,6.709929637E0,-1.315754266E1,8.626726450E0,1.710451676E1
7.646398750E-1,1.318642322E1,-1.174842683E1,6.668652973E0,1.887798249E1
7.746258750E-1,1.894666271E1,-9.651814690E0,5.067299995E0,2.185889027E1
7.846118750E-1,2.202633740E1,-7.450291804E0,5.008840118E0,2.378560209E1
7.945968750E-1,2.179919412E1,-5.977698609E0,6.315992194E0,2.346975719E1
8.045828750E-1,2.024016739E1,-5.532702693E0,6.898104147E0,2.208753078E1
8.145678749E-1,1.974753947E1,-5.235050765E0,5.430357708E0,2.113905997E1
8.245538750E-1,2.031731555E1,-5.215237475E0,3.149991551E0,2.121118714E1
8.345398750E-1,2.125519023E1,-5.521559654E0,1.062713903E0,2.198636153E1
8.445248750E-1,2.268494906E1,-5.462325021E0,-5.665776551E-1,2.334019963E1
8.545108750E-1,2.388814700E1,-5.067148553E0,-1.182765427E0,2.444828206E1
8.644958750E-1,2.458744826E1,-4.747686218E0,-7.777662206E-1,2.505370345E1
8.744818750E-1,2.480627680E1,-4.318506436E0,2.539363897E-1,2.518065429E1
8.844668750E-1,2.452007431E1,-3.987738510E0,1.372999618E0,2.488013726E1
8.944528750E-1,2.358955308E1,-4.019300026E0,2.084577111E0,2.402014257E1
9.044388750E-1,2.219554179E1,-4.370142613E0,2.321919980E0,2.274052625E1
9.144238750E-1,2.028469978E1,-5.193852453E0,2.188292391E0,2.105311787E1
9.244098749E-1,1.809997653E1,-5.886210149E0,1.806635562E0,1.911859180E1
9.343948750E-1,1.616115443E1,-6.500127447E0,1.539410498E0,1.748726262E1
9.443808750E-1,1.441978578E1,-7.093767770E0,1.732646504E0,1.616334826E1
9.543668750E-1,1.276576517E1,-7.822137297E0,2.599780253E0,1.519570498E1
9.643518750E-1,1.157639356E1,-8.532265266E0,3.682011577E0,1.484485257E1
9.743378750E-1,1.056265126E1,-9.194637855E0,4.726043626E0,1.477993421E1
9.843228750E-1,9.728478119E0,-9.900140676E0,5.804331588E0,1.504481097E1
9.943088749E-1,9.212536767E0,-1.045852638E1,6.734845793E0,1.547933318E1
1.004293875E0,8.506013022E0,-1.097688322E1,7.896484644E0,1.597493951E1
1.014279875E0,7.508514284E0,-1.223515608E1,9.427624841E0,1.717431050E1
1.024265875E0,6.368589653E0,-1.360751631E1,1.033141610E1,1.823352936E1
1.034250875E0,5.778840652E0,-1.419461652E1,1.040694692E1,1.852529842E1
1.044236875E0,5.380821851E0,-1.505332691E1,1.074014115E1,1.925893369E1
1.054221875E0,5.055683917E0,-1.632539570E1,1.102869189E1,2.033987535E1
1.064207875E0,4.539903948E0,-1.725598241E1,1.112014936E1,2.102468498E1
1.074193875E0,3.767077455E0,-1.792107863E1,1.156382088E1,2.165820595E1
1.084178875E0,2.963258380E0,-1.867026132E1,1.208531182E1,2.243689640E1
1.094164875E0,1.833321085E0,-1.933478919E1,1.216928486E1,2.291913247E1
1.104149875E0,5.032188343E-1,-1.952360982E1,1.197928660E1,2.291130457E1
1.114135875E0,-8.088609825E-1,-1.972593284E1,1.212734980E1,2.316979274E1
1.124120875E0,-2.112151411E0,-1.944676337E1,1.153687925E1,2.270985187E1
1.134106875E0,-2.752085018E0,-1.834889718E1,1.014237679E1,2.114530223E1
1.144092875E0,-3.689725224E0,-1.704120716E1,8.919347434E0,1.958498334E1
1.154077875E0,-5.254223201E0,-1.581174353E1,7.675130695E0,1.834463753E1
1.164063875E0,-6.442363388E0,-1.468862204E1,6.406552116E0,1.727146703E1
1.174048875E0,-7.610415466E0,-1.356077366E1,5.412599130E0,1.646539508E1
1.184034875E0,-9.142828016E0,-1.258275902E1,4.540443938E0,1.620286270E1
1.194020875E0,-1.126711679E1,-1.150101009E1,3.341977568E0,1.644353879E1
1.204005875E0,-1.387075094E1,-1.061952830E1,2.307750715E0,1.762094850E1
1.213991875E0,-1.599123200E1,-9.851912842E0,1.883791327E0,1.887666171E1
1.223976875E0,-1.802960178E1,-9.156646741E0,1.591700686E0,2.028408812E1
1.233962875E0,-1.907399636E1,-8.205206521E0,8.284732747E-1,2.078049853E1
1.243947875E0,-1.853832825E1,-7.082834646E0,-7.310510606E-2,1.984544042E1
1.253933875E0,-1.693788920E1,-6.228151227E0,-5.159887147E-1,1.805403563E1
1.263919875E0,-1.486191246E1,-5.507081949E0,-6.116026774E-1,1.586122478E1
1.273904875E0,-1.273024919E1,-4.658374969E0,-5.847247812E-1,1.356840465E1
1.283890875E0,-1.071004319E1,-3.796733363E0,-4.404377183E-1,1.137163994E1
1.293875875E0,-8.928654447E0,-2.986184143E0,-3.120998132E-1,9.419956065E0
1.303861875E0,-7.520620360E0,-2.198549577E0,-1.962123844E-1,7.837847290E0
1.313847875E0,-6.332138110E0,-1.612135828E0,3.863869339E-2,6.534251902E0
1.323832875E0,-5.332681725E0,-1.103677157E0,4.074234617E-1,5.460914898E0
1.333818875E0,-4.532411326E0,-6.073801106E-1,8.931952277E-1,4.659341234E0
1.343803875E0,-4.001740837E0,-3.004012889E-1,1.388958131E0,4.246572188E0
1.353789875E0,-3.609002658E0,-1.228570175E-1,1.663917308E0,3.976004884E0
1.363774875E0,-3.160632314E0,5.206477761E-2,1.621515931E0,3.552692117E0
1.373760875E0,-2.767863729E0,1.911554199E-1,1.412109597E0,3.113143673E0
1.383746875E0,-2.589064645E0,2.377191371E-1,1.103658738E0,2.824505043E0
1.393731875E0,-2.537236680E0,2.108915269E-1,7.348698771E-1,2.649920554E0
1.403717875E0,-2.474366832E0,7.120212972E-2,3.327743983E-1,2.497658857E0
1.413702875E0,-2.402855385E0,-7.756156147E-2,-2.786519855E-2,2.404268343E0
1.423688875E0,-2.428792464E0,-2.148781586E-1,-2.812963888E-1,2.454451693E0
1.433674875E0,-2.566049420E0,-4.763972175E-1,-4.451993984E-1,2.647596351E0
1.443660458E0,-2.778820826E0,-9.174731594E-1,-5.131946227E-1,2.971021862E0
1.453646458E0,-3.224188040E0,-1.422938055E0,-4.247288811E-1,3.549723348E0
1.463631458E0,-3.948578537E0,-1.842062380E0,-2.835116065E-1,4.366330852E0
1.473617458E0,-4.822977598E0,-2.410544474E0,-2.389783350E-1,5.397124069E0
1.483602458E0,-5.807465696E0,-3.026112440E0,-3.057123148E-1,6.555720733E0
1.493588458E0,-6.825453662E0,-3.284298002E0,-4.172774819E-1,7.586010252E0
1.503574458E0,-7.685959153E0,-3.389712190E0,-5.018340674E-1,8.415221582E0
1.513559458E0,-8.119305076E0,-3.615603579E0,-4.363277104E-1,8.898656417E0
1.523545458E0,-8.422961510E0,-3.654499258E0,-1.251526344E-1,9.182445677E0
1.533530458E0,-8.426342370E0,-3.625802293E0,4.913038167E-1,9.186461095E0
1.543516458E0,-8.080019388E0,-3.933307364E0,1.282750475E0,9.077613613E0
1.553502458E0,-7.616018268E0,-4.309939388E0,2.175862088E0,9.017410250E0
1.563487458E0,-7.179354050E0,-4.636100001E0,3.218167162E0,9.131984871E0
1.573473458E0,-7.042105865E0,-5.220593525E0,4.141024438E0,9.695046940E0
1.583458458E0,-7.304328929E0,-5.948882360E0,4.644611208E0,1.050308696E1
1.593444458E0,-8.110966362E0,-6.564504122E0,4.652668086E0,1.142487680E1
1.603429458E0,-9.075057617E0,-7.158303489E0,4.289679955E0,1.232880098E1
1.613415458E0,-9.523203428E0,-7.768004360E0,3.889538324E0,1.289037640E1
1.623401458E0,-9.614977816E0,-8.531494603E0,3.905680147E0,1.343460219E1
1.633386458E0,-9.640768130E0,-9.379325670E0,4.333553953E0,1.413137821E1
1.643372458E0,-9.277351983E0,-1.020060219E1,4.872315234E0,1.462398717E1
1.653357458E0,-8.518083429E0,-1.102812003E1,5.592312133E0,1.501503019E1
1.663343458E0,-7.778479646E0,-1.177709456E1,6.466811181E0,1.552495890E1
1.673328458E0,-6.964300475E0,-1.242700089E1,7.385212294E0,1.604597123E1
1.683314458E0,-6.004853663E0,-1.299478892E1,8.437684214E0,1.661677831E1
1.693300458E0,-4.720055200E0,-1.352343568E1,9.467810415E0,1.716978939E1
1.703285458E0,-3.467311174E0,-1.434137929E1,1.002512491E1,1.783817637E1
1.713271458E0,-2.646053363E0,-1.500317418E1,9.807863427E0,1.811880291E1
1.723256458E0,-2.376615420E0,-1.545812732E1,8.924625131E0,1.800696906E1
1.733242458E0,-2.811184580E0,-1.599071043E1,7.637921938E0,1.794278212E1
1.743228458E0,-3.024559420E0,-1.663723823E1,6.599428371E0,1.815208281E1
1.753213458E0,-1.906429700E0,-1.753472152E1,6.261003808E0,1.871633248E1
1.763199458E0,9.563320005E-1,-1.773358766E1,6.252134167E0,1.882774240E1
1.773184458E0,6.639532084E0,-1.623328451E1,5.000534148E0,1.823755066E1
1.783170458E0,1.410482667E1,-1.339242414E1,2.077808082E0,1.956068624E1
1.793156458E0,1.911426262E1,-1.028785551E1,1.071145003E0,2.173343871E1
1.803141458E0,1.898560985E1,-7.645643771E0,3.236947834E0,2.072165730E1
1.813127458E0,1.468813672E1,-6.357053096E0,6.825312159E0,1.739937845E1
1.823112458E0,9.605862007E0,-6.044519420E0,9.157504528E0,1.458316458E1
1.833098458E0,7.005292380E0,-6.163954062E0,9.088469961E0,1.302569527E1
1.843083458E0,6.930587184E0,-6.864236489E0,6.740090160E0,1.185662670E1
1.853069458E0,8.209977849E0,-7.632656520E0,3.037074215E0,1.161400024E1
1.863055458E0,1.039164593E1,-7.742391216E0,-5.283026585E-1,1.296958097E1
1.873040458E0,1.274829369E1,-7.469567150E0,-2.969200028E0,1.507081863E1
1.883026458E0,1.422703114E1,-6.948013641E0,-3.586528007E0,1.623411506E1
1.893011458E0,1.495966154E1,-6.183643976E0,-2.227738878E0,1.633988209E1
1.902997458E0,1.551638429E1,-5.295647800E0,3.457271504E-1,1.639882906E1
1.912982458E0,1.592833818E1,-4.457705544E0,2.454124357E0,1.672141807E1
1.922968458E0,1.649752837E1,-3.986446567E0,3.362046089E0,1.730212566E1
1.932954458E0,1.722027697E1,-4.007383985E0,3.283375603E0,1.798270337E1
1.942939458E0,1.794112639E1,-4.222968780E0,2.573204950E0,1.861018176E1
1.952925458E0,1.868511208E1,-4.219717728E0,1.333835844E0,1.920204544E1
1.962910458E0,1.901693923E1,-4.359894198E0,1.759970981E-1,1.951111555E1
1.972896458E0,1.844514001E1,-4.775558433E0,-5.121991342E-1,1.906020714E1
1.982882458E0,1.693808800E1,-4.924622086E0,-8.347283337E-1,1.765920438E1
1.992867458E0,1.494484820E1,-5.310208536E0,-6.048158142E-1,1.587175493E1
2.002853458E0,1.306230204E1,-5.618584258E0,8.640722930E-2,1.421969373E1
2.012838458E0,1.197827620E1,-5.601072432E0,1.077326680E0,1.326694185E1
2.022824458E0,1.188557445E1,-5.767770703E0,2.129002063E0,1.338158094E1
2.032810458E0,1.225462497E1,-6.099929974E0,3.050839146E0,1.402471384E1
2.042795458E0,1.220539726E1,-6.556503376E0,4.150557738E0,1.446328415E1
2.052781458E0,1.150503180E1,-7.249025964E0,5.463304430E0,1.465475450E1
2.062766458E0,1.064626644E1,-7.775829104E0,6.692280986E0,1.478489541E1
2.072752458E0,9.929159238E0,-8.270766672E0,7.774522251E0,1.508101392E1
2.082737458E0,9.168227152E0,-8.834716004E0,8.782010956E0,1.546713653E1
2.092723458E0,8.416114420E0,-9.465428259E0,9.595960332E0,1.589049303E1
2.102709458E0,7.445434522E0,-1.028247257E1,1.026653540E1,1.632683332E1
2.112694458E0,6.238594939E0,-1.120094735E1,1.078128099E1,1.675163599E1
2.122680458E0,5.040294630E0,-1.206680773E1,1.121299028E1,1.722624653E1
2.132665458E0,3.953458623E0,-1.290665033E1,1.148274573E1,1.772187651E1
2.142651458E0,3.322941080E0,-1.382417202E1,1.142033722E1,1.823660527E1
2.152637458E0,2.537209783E0,-1.478050168E1,1.119119186E1,1.871212010E1
2.162622458E0,1.109384040E0,-1.552189939E1,1.106738058E1,1.909573267E1
2.172608458E0,-4.214705202E-1,-1.627100840E1,1.116270890E1,1.973649974E1
2.182593458E0,-1.632985537E0,-1.689485954E1,1.102005906E1,2.023720885E1
2.192579458E0,-2.709282522E0,-1.709842567E1,1.037349500E1,2.018181783E1
2.202564458E0,-3.026439884E0,-1.678122124E1,9.277173643E0,1.941223005E1
2.212550458E0,-2.817425898E0,-1.632500861E1,8.125958623E0,1.845196462E1
2.222536458E0,-3.486177215E0,-1.600454260E1,7.339342057E0,1.794894864E1
2.232521458E0,-4.068993173E0,-1.565802725E1,6.492260603E0,1.743215335E1
2.242507458E0,-4.775087440E0,-1.536430523E1,5.971251469E0,1.716156110E1
2.252492458E0,-6.172540698E0,-1.505027116E1,5.554510469E0,1.718905196E1
2.262478458E0,-7.868037940E0,-1.434906019E1,4.907607858E0,1.708467630E1
2.272464458E0,-9.514468272E0,-1.320829766E1,4.045658982E0,1.677353839E1
2.282449458E0,-1.071024083E1,-1.180384440E1,2.779604061E0,1.617919034E1
2.292435458E0,-1.140690266E1,-1.032153664E1,1.251756724E0,1.543432674E1
2.302420458E0,-1.164411017E1,-9.103438833E0,-2.195056450E-1,1.478195125E1
2.312406458E0,-1.175384369E1,-8.184091056E0,-1.483542107E0,1.439906543E1
2.322391458E0,-1.179259085E1,-7.408699974E0,-2.434645819E0,1.413794662E1
2.332377458E0,-1.159442287E1,-6.759984142E0,-2.947590766E0,1.374104503E1
2.342363458E0,-1.132223264E1,-6.008271360E0,-3.143152648E0,1.319741207E1
2.352348458E0,-1.117033718E1,-5.488997680E0,-2.987706758E0,1.279968437E1
2.362334458E0,-1.118561595E1,-5.282952325E0,-2.744207064E0,1.267115867E1
2.372319458E0,-1.130604638E1,-4.934145446E0,-2.715909464E0,1.263125648E1
2.382305458E0,-1.101231618E1,-4.168611601E0,-2.857043416E0,1.211656417E1
2.392291458E0,-1.016188310E1,-3.312147120E0,-2.646595108E0,1.101084249E1
2.402276458E0,-8.923187885E0,-2.761779701E0,-1.921005931E0,9.536297654E0
2.412262458E0,-7.703465132E0,-2.504045545E0,-1.105805251E0,8.175354695E0
2.422247458E0,-6.838961315E0,-2.400134676E0,-3.427605656E-1,7.255999113E0
2.432233458E0,-6.329564751E0,-2.401692958E0,3.130678198E-1,6.777132909E0
2.442218083E0,-6.160638106E0,-2.391055704E0,7.035214922E-1,6.645716797E0
2.452204083E0,-6.247391490E0,-2.202653738E0,7.206821930E-1,6.663405041E0
2.462190083E0,-6.555254411E0,-1.953317937E0,4.863904014E-1,6.857360059E0
2.472175083E0,-6.713643204E0,-1.908380331E0,1.791127869E-1,6.981905324E0
2.482161083E0,-6.662128649E0,-1.948080586E0,-8.097575068E-2,6.941580021E0
2.492146083E0,-6.500397588E0,-1.956886493E0,-1.671920684E-1,6.790620497E0
2.502132083E0,-6.137319410E0,-2.073478219E0,-2.042432427E-2,6.478149320E0
2.512118083E0,-5.614021676E0,-2.416737260E0,2.419893587E-1,6.116896043E0
2.522103083E0,-5.234355531E0,-2.890305009E0,4.475409159E-1,5.996051513E0
2.532089083E0,-5.311936973E0,-3.305440949E0,6.037507439E-1,6.285469691E0
2.542074083E0,-6.027609857E0,-3.691930209E0,6.831243575E-1,7.101344108E0
2.552060083E0,-7.245702406E0,-4.018962641E0,5.166874570E-1,8.301760657E0
2.562045083E0,-8.464535798E0,-4.405360100E0,3.951001623E-1,9.550479989E0
2.572031083E0,-9.477560062E0,-4.843983135E0,4.728008875E-1,1.065419439E1
2.582017083E0,-9.915888398E0,-5.387466043E0,6.835497424E-1,1.130561247E1
2.592002083E0,-9.817935841E0,-5.896564398E0,8.946067455E-1,1.148745651E1
2.601988083E0,-9.519481090E0,-6.401236412E0,1.168375721E0,1.153089110E1
2.611973083E0,-9.124844320E0,-6.954927388E0,1.786787481E0,1.161147744E1
2.621959083E0,-8.684607453E0,-7.490360434E0,2.692009262E0,1.178027249E1
2.631945083E0,-8.389313707E0,-7.935881429E0,3.592180510E0,1.209390588E1
2.641930083E0,-8.053372457E0,-8.428029292E0,4.452576074E0,1.247853835E1
2.651916083E0,-7.533170239E0,-9.057849262E0,5.236078706E0,1.289223826E1
2.661901083E0,-7.171038725E0,-9.571231872E0,5.794191931E0,1.328927899E1
2.671887083E0,-6.716281468E0,-1.007030401E1,6.235880077E0,1.361637470E1
2.681872083E0,-6.048817123E0,-1.073034239E1,6.641888512E0,1.399439600E1
2.691858083E0,-5.374709172E0,-1.130831861E1,7.081312616E0,1.438438587E1
2.701844083E0,-4.660613868E0,-1.182740050E1,7.478577125E0,1.474916404E1
2.711829083E0,-3.867763585E0,-1.230435905E1,7.740296159E0,1.504224157E1
2.721815083E0,-3.420652439E0,-1.264543766E1,7.772117876E0,1.523199833E1
2.731800083E0,-3.338219855E0,-1.286059181E1,7.441757208E0,1.522886351E1
2.741786083E0,-3.070230267E0,-1.325365217E1,6.716372684E0,1.517218744E1
2.751772083E0,-3.037001710E0,-1.381678348E1,6.049557381E0,1.538583860E1
2.761757083E0,-3.652479630E0,-1.428720133E1,5.665263165E0,1.579746613E1
2.771743083E0,-3.507438276E0,-1.486214167E1,5.660130479E0,1.628565183E1
2.781728083E0,-1.834761547E0,-1.508338043E1,5.744186543E0,1.624408798E1
2.791714083E0,1.431393714E0,-1.421853748E1,5.541784004E0,1.532733068E1
2.801699083E0,5.968049533E0,-1.239667957E1,4.543735043E0,1.448933427E1
2.811685083E0,9.781058621E0,-1.016920615E1,3.126017967E0,1.445177670E1
2.821671083E0,1.059911917E1,-8.215549661E0,2.855025834E0,1.371086270E1
2.831656083E0,7.860883872E0,-7.159143149E0,4.587645879E0,1.157986704E1
2.841642083E0,3.270695039E0,-7.613430875E0,7.144387116E0,1.094093428E1
2.851627083E0,9.601128101E-3,-8.509093335E0,8.200926359E0,1.181778129E1
2.861613083E0,5.953810394E-2,-8.890093229E0,6.894869467E0,1.125062342E1
2.871599083E0,2.053877767E0,-9.628141068E0,4.543392397E0,1.084259788E1
2.881584083E0,4.838013128E0,-1.051688159E1,2.315452375E0,1.180561261E1
2.891570083E0,9.416117520E0,-1.052454846E1,2.388035032E-1,1.412396604E1
2.901555083E0,1.467475011E1,-9.397736798E0,-6.145865116E-1,1.743684215E1
2.911541083E0,1.866410888E1,-8.071474852E0,6.033008006E-1,2.034358961E1
2.921526083E0,2.100214379E1,-6.750409327E0,2.905482042E0,2.225084033E1
2.931512083E0,2.202103982E1,-5.207166563E0,5.075455692E0,2.319053749E1
2.941498083E0,2.189701804E1,-4.374669819E0,6.611123972E0,2.328785296E1
2.951483083E0,2.161411104E1,-4.205423917E0,6.644891058E0,2.300021659E1
2.961469083E0,2.144389391E1,-4.311408209E0,4.933273042E0,2.242244433E1
2.971454083E0,2.080212691E1,-4.810327147E0,2.656406443E0,2.151567397E1
2.981440083E0,1.979887802E1,-5.275249788E0,9.752389723E-1,2.051279899E1
2.991426083E0,1.860648574E1,-5.206131606E0,8.879698634E-2,1.932130955E1
3.001411083E0,1.735411857E1,-4.706467148E0,2.138624972E-1,1.798226908E1
3.011397083E0,1.604239748E1,-4.270006706E0,1.171072165E0,1.664220190E1
3.021382083E0,1.447563955E1,-3.987926790E0,2.306635943E0,1.519105888E1
3.031368083E0,1.269758196E1,-3.845582465E0,3.307629561E0,1.367324049E1
3.041354083E0,1.102343290E1,-3.920007287E0,4.047363445E0,1.237997096E1
3.051339083E0,9.755647207E0,-4.100680404E0,4.382951523E0,1.145419121E1
3.061325083E0,8.914690127E0,-4.369535087E0,4.453913040E0,1.088126272E1
3.071310083E0,8.083081575E0,-4.799302806E0,4.465535258E0,1.040723404E1
3.081296083E0,7.300487309E0,-5.232395545E0,4.538113530E0,1.006327742E1
3.091281083E0,6.847964857E0,-5.527722035E0,4.739432580E0,9.995626782E0
3.101267083E0,6.700359499E0,-5.673470317E0,4.955688343E0,1.008176224E1
3.111253083E0,6.724893247E0,-5.765017834E0,5.261799438E0,1.030272552E1
3.121238083E0,6.576800231E0,-6.015473961E0,5.804497649E0,1.063637256E1
3.131224083E0,6.064281839E0,-6.386403195E0,6.534425460E0,1.096632920E1
3.141209083E0,5.172381477E0,-6.740470229E0,7.288518058E0,1.119419334E1
3.151195083E0,4.277782626E0,-7.190425753E0,7.984806252E0,1.156541299E1
3.161181083E0,3.506815547E0,-7.922791852E0,8.456732689E0,1.210721743E1
3.171166083E0,2.879050874E0,-8.649521821E0,8.507432141E0,1.246914445E1
3.181152083E0,2.496095670E0,-9.128701143E0,8.316528736E0,1.259874313E1
3.191137083E0,2.215079071E0,-9.654548848E0,8.259904300E0,1.289739926E1
3.201123083E0,2.082137945E0,-1.017536327E1,8.259202634E0,1.326980574E1
3.211108083E0,2.171036673E0,-1.051524437E1,8.147221438E0,1.347816685E1
3.221094083E0,2.201778994E0,-1.096529170E1,8.083008485E0,1.379929270E1
3.231080083E0,1.888237842E0,-1.164507613E1,8.202748936E0,1.436865791E1
3.241065083E0,1.310881430E0,-1.256522088E1,8.490831896E0,1.522161004E1
3.251051083E0,5.654532355E-1,-1.318785930E1,8.488811098E0,1.569392507E1
3.261036083E0,1.270880628E-1,-1.343166714E1,8.366723574E0,1.582491381E1
3.271022083E0,2.937962741E-2,-1.371420343E1,8.331855458E0,1.604680823E1
3.281008083E0,1.144750339E-1,-1.401879074E1,7.921950438E0,1.610269844E1
3.290993083E0,-9.350472584E-2,-1.396610031E1,7.356283779E0,1.578529734E1
3.300979083E0,-5.188259299E-1,-1.399983758E1,7.004364427E0,1.566287820E1
3.310964083E0,-1.084473951E0,-1.425056619E1,6.594704990E0,1.573991278E1
3.320950083E0,-1.677589852E0,-1.431048845E1,5.747155759E0,1.551238817E1
3.330935083E0,-2.298056616E0,-1.386519608E1,4.785315974E0,1.484668231E1
3.340921083E0,-2.915124978E0,-1.325760723E1,4.195418454E0,1.420787243E1
3.350907083E0,-3.976434965E0,-1.268744289E1,3.904831716E0,1.385752333E1
3.360892083E0,-5.636043459E0,-1.201509261E1,3.670703062E0,1.376958595E1
3.370878083E0,-7.522738806E0,-1.120177532E1,3.391378646E0,1.391304491E1
3.380863083E0,-9.791440938E0,-1.027195459E1,3.056860024E0,1.451653402E1
3.390849083E0,-1.268446666E1,-9.141646294E0,2.364209383E0,1.581312358E1
3.400835083E0,-1.500025992E1,-7.947965285E0,1.023663858E0,1.700664099E1
3.410820083E0,-1.570764555E1,-7.076786286E0,-6.495458445E-1,1.724044497E1
3.420806083E0,-1.474587915E1,-6.639834970E0,-2.013930759E0,1.629675665E1
3.430791083E0,-1.316083113E1,-6.250829068E0,-2.515324239E0,1.478537102E1
3.440777083E0,-1.199551146E1,-5.721122201E0,-2.062220575E0,1.344902554E1
3.450762125E0,-1.158838854E1,-5.088454052E0,-1.251867529E0,1.271810858E1
3.460748125E0,-1.144815828E1,-4.265293558E0,-6.379794672E-1,1.223356346E1
3.470734125E0,-1.111239946E1,-3.510298149E0,-1.939778709E-1,1.165526672E1
3.480719125E0,-1.027567927E1,-3.024264135E0,2.055515572E-1,1.071344993E1
3.490705125E0,-9.115893987E0,-2.606885789E0,3.873558176E-1,9.489226587E0
3.500690125E0,-7.959844489E0,-2.200606627E0,4.137030789E-1,8.268793385E0
3.510676125E0,-7.043804482E0,-1.892121563E0,3.897031823E-1,7.303914988E0
3.520662125E0,-6.499588333E0,-1.660406932E0,3.633918813E-1,6.718158478E0
3.530647125E0,-6.058127060E0,-1.316443886E0,3.045788321E-1,6.206987695E0
3.540633125E0,-5.494875886E0,-9.767867303E-1,2.571087965E-1,5.586938182E0
3.550618125E0,-4.969398310E0,-6.896691459E-1,2.887612367E-1,5.025330451E0
3.560604125E0,-4.440685761E0,-4.510015905E-1,4.300630036E-1,4.484199667E0
3.570590125E0,-3.779724105E0,-3.043329567E-1,6.118833438E-1,3.841006911E0
3.580575125E0,-3.165334937E0,-1.317605728E-1,8.371330011E-1,3.276812136E0
3.590561125E0,-2.598345638E0,-1.717034876E-2,1.084076413E0,2.815478032E0
3.600546125E0,-2.136973134E0,-1.893878067E-1,1.240203795E0,2.478028928E0
3.610532125E0,-1.953484291E0,-4.977629435E-1,1.239981309E0,2.366732445E0
3.620517125E0,-2.190053865E0,-8.841604024E-1,1.101123386E0,2.605868043E0
3.630503125E0,-2.771687808E0,-1.367000082E0,8.087517858E-1,3.194530009E0
3.640489125E0,-3.610369152E0,-1.844494237E0,4.238526759E-1,4.076343398E0
3.650474125E0,-4.407775293E0,-2.346084183E0,-8.650663197E-3,4.993262346E0
3.660460125E0,-5.069613154E0,-2.764165950E0,-3.125155503E-1,5.782668666E0
3.670445125E0,-5.705554574E0,-3.151486684E0,-3.757412007E-1,6.528889857E0
3.680431125E0,-6.226648493E0,-3.624166827E0,-2.746141908E-1,7.209795392E0
3.690416125E0,-6.685307597E0,-4.102970173E0,-8.435397953E-2,7.844413139E0
3.700402125E0,-7.099323210E0,-4.609765311E0,2.441490278E-1,8.468171881E0
3.710388125E0,-7.541009016E0,-5.170357171E0,6.543762293E-1,9.166657979E0
3.720373125E0,-8.040039636E0,-5.763775885E0,1.038936785E0,9.946996504E0
3.730359125E0,-8.516605838E0,-6.296539677E0,1.377929990E0,1.068071524E1
3.740344125E0,-8.987344120E0,-6.792689373E0,1.697571834E0,1.139274916E1
3.750330125E0,-9.198811598E0,-7.368996795E0,2.055823136E0,1.196439122E1
3.760316125E0,-9.303114815E0,-8.080462607E0,2.451149293E0,1.256383517E1
3.770301125E0,-9.350929837E0,-8.801927158E0,2.828076894E0,1.314959427E1
3.780287125E0,-9.241374650E0,-9.559373719E0,3.190033869E0,1.367336635E1
3.790272125E0,-9.257881340E0,-1.027026709E1,3.710336367E0,1.431619184E1
3.800258125E0,-9.309666620E0,-1.092447346E1,4.296111600E0,1.498234253E1
3.810244125E0,-9.036698713E0,-1.163165326E1,5.021745508E0,1.556197960E1
3.820229125E0,-8.328387474E0,-1.243845324E1,6.017490081E0,1.613342319E1
3.830215125E0,-7.317200405E0,-1.345687098E1,7.118118500E0,1.689071962E1
3.840200125E0,-6.166235061E0,-1.445748278E1,8.138920730E0,1.769981055E1
3.850186125E0,-4.948769917E0,-1.517178332E1,9.095883061E0,1.836868045E1
3.860171125E0,-4.081044869E0,-1.554787740E1,1.002693053E1,1.894546792E1
3.870157125E0,-3.801048024E0,-1.580119164E1,1.075785588E1,1.948992269E1
3.880143125E0,-3.592074383E0,-1.640695032E1,1.086501078E1,2.000348661E1
3.890128125E0,-3.046522731E0,-1.723704211E1,9.847707524E0,2.008417946E1
3.900114125E0,-1.996856305E0,-1.765749901E1,8.230420884E0,1.958352712E1
3.910099125E0,6.973974109E-2,-1.744998834E1,6.969244296E0,1.879035186E1
3.920085125E0,3.969598693E0,-1.625159565E1,5.507994699E0,1.761278174E1
3.930071125E0,9.833572465E0,-1.408902750E1,3.167167747E0,1.747085558E1
3.940056125E0,1.570969792E1,-1.116831989E1,1.300315511E0,1.931881980E1
3.950042125E0,1.742569082E1,-8.635088553E0,2.363624076E0,1.959097174E1
3.960027125E0,1.462614805E1,-7.311061998E0,6.106488211E0,1.745465647E1
3.970013125E0,1.051571917E1,-6.447023619E0,1.027789537E1,1.605551607E1
3.979999125E0,8.107858567E0,-5.746407900E0,1.232428168E1,1.583181901E1
3.989984125E0,8.169002901E0,-5.602324321E0,1.110363565E1,1.487983101E1
3.999970125E0,1.009009566E1,-5.995760073E0,7.736218895E0,1.405732023E1
4.009955125E0,1.216941233E1,-6.288492154E0,4.168612186E0,1.431841672E1
4.019941125E0,1.383595767E1,-6.389224477E0,1.335934410E0,1.529838667E1
4.029926125E0,1.519075168E1,-6.177222564E0,-2.333495128E-1,1.640034961E1
4.039912125E0,1.589128905E1,-5.644771013E0,-4.057219219E-1,1.686893944E1
4.049898125E0,1.621645505E1,-5.019021290E0,8.561370367E-1,1.699696914E1
4.059883125E0,1.665581717E1,-4.141387257E0,2.512940914E0,1.734595648E1
4.069869125E0,1.712902766E1,-3.281529345E0,3.892589693E0,1.786964683E1
4.079854125E0,1.728601137E1,-2.810538171E0,4.563010097E0,1.809768977E1
4.089840125E0,1.703928459E1,-2.622889034E0,4.461462088E0,1.780790303E1
4.099826125E0,1.626250538E1,-2.910505970E0,4.004385240E0,1.699927138E1
4.109811125E0,1.537877943E1,-3.524603070E0,3.242394515E0,1.610722837E1
4.119797125E0,1.488605562E1,-3.658419231E0,2.199925427E0,1.548606971E1
4.129782125E0,1.447021918E1,-3.481305900E0,1.479763636E0,1.495648469E1
4.139768125E0,1.350862819E1,-3.623098540E0,1.423214629E0,1.405828647E1
4.149753125E0,1.204958534E1,-3.725797282E0,1.794366058E0,1.273945924E1
4.159739125E0,1.069076142E1,-3.605966198E0,2.221311033E0,1.149911277E1
4.169725125E0,9.686609716E0,-3.716206971E0,2.594764511E0,1.069455024E1
4.179710125E0,8.801179883E0,-4.080285316E0,2.835631497E0,1.010694324E1
4.189696125E0,8.067456645E0,-4.508041008E0,3.093580538E0,9.745590336E0
4.199681125E0,7.687876455E0,-4.756052999E0,3.387218937E0,9.653845692E0
4.209667125E0,7.571232689E0,-4.946226963E0,3.777990113E0,9.801119064E0
4.219653125E0,7.540833015E0,-5.241541759E0,4.264363558E0,1.012535032E1
4.229638125E0,7.431236898E0,-5.524465721E0,4.733061454E0,1.039927277E1
4.239624125E0,7.104228439E0,-5.875758251E0,5.196063870E0,1.058270648E1
4.249609125E0,6.583547333E0,-6.298024870E0,5.681474571E0,1.073719545E1
4.259595125E0,6.059602312E0,-6.738657593E0,6.192193775E0,1.097595327E1
4.269580125E0,5.340704105E0,-7.313176936E0,6.722530387E0,1.127821316E1
4.279566125E0,4.390000049E0,-8.021692243E0,7.203005453E0,1.164057277E1
4.289552125E0,3.220840509E0,-8.873070230E0,7.643631744E0,1.214620497E1
4.299537125E0,2.268150739E0,-9.495905702E0,7.812719772E0,1.250421221E1
4.309523125E0,1.725515093E0,-9.866056087E0,7.824165112E0,1.270960364E1
4.319508125E0,1.728121782E0,-1.007396436E1,7.988557241E0,1.297259456E1
4.329494125E0,2.064701548E0,-1.037519888E1,8.384444146E0,1.349839427E1
4.339480125E0,2.358042324E0,-1.085387067E1,8.738972526E0,1.413281688E1
4.349465125E0,2.433157995E0,-1.150701167E1,8.897357225E0,1.474769613E1
4.359451125E0,2.408102676E0,-1.213805020E1,8.995818490E0,1.529888792E1
4.369436125E0,2.036438447E0,-1.285540767E1,9.159296114E0,1.591544197E1
4.379422125E0,1.097624704E0,-1.382265408E1,9.323982943E0,1.670949442E1
4.389408125E0,-2.044750848E-1,-1.490619694E1,9.220510030E0,1.752867144E1
4.399393125E0,-1.184994970E0,-1.560649573E1,8.575269783E0,1.784662921E1
4.409379125E0,-1.927833433E0,-1.573332067E1,7.691236850E0,1.761842914E1
4.419364125E0,-2.549350356E0,-1.547766871E1,6.933498513E0,1.715024249E1
4.429350125E0,-2.940564752E0,-1.478644245E1,6.042236667E0,1.624174945E1
4.439335125E0,-3.551385364E0,-1.399509081E1,5.347983888E0,1.539726717E1
4.449321125E0,-4.490239744E0,-1.317788629E1,4.878558014E0,1.475192422E1
4.459307125E0,-5.333985654E0,-1.227552175E1,4.476261098E0,1.411299935E1
4.469292125E0,-5.651511099E0,-1.138309514E1,4.345492798E0,1.343122259E1
4.479278125E0,-6.014334923E0,-1.074728996E1,4.363054326E0,1.306570737E1
4.489263125E0,-7.051529823E0,-1.029652810E1,4.147815979E0,1.315092929E1
4.499249125E0,-8.084359776E0,-9.344841716E0,3.277743858E0,1.278383919E1
4.509235125E0,-8.750986215E0,-8.207793329E0,2.189919671E0,1.219603949E1
4.519220125E0,-9.388720976E0,-7.355423069E0,1.099864188E0,1.197748017E1
4.529206125E0,-1.041901792E1,-6.636395053E0,-9.495702803E-2,1.235340805E1
4.539191125E0,-1.148048051E1,-5.854528180E0,-1.376414684E0,1.296038003E1
4.549177125E0,-1.206692467E1,-5.097192716E0,-2.240386990E0,1.328952138E1
4.559162125E0,-1.223234825E1,-4.552159127E0,-2.486067111E0,1.328657315E1
4.569148125E0,-1.231601606E1,-4.241893585E0,-2.368956737E0,1.323970803E1
4.579134125E0,-1.207696317E1,-3.947931835E0,-2.104204460E0,1.287893169E1
4.589119125E0,-1.170440899E1,-3.484544672E0,-1.736468098E0,1.233493263E1
4.599105125E0,-1.129653764E1,-3.168212060E0,-1.311707057E0,1.180550319E1
4.609090125E0,-1.080764492E1,-3.115450294E0,-8.455415896E-1,1.127945742E1
4.619076125E0,-1.024550062E1,-3.091875490E0,-4.539178893E-1,1.071149002E1
4.629062125E0,-9.590348175E0,-2.791791120E0,-1.745250615E-1,9.989961700E0
4.639047125E0,-9.199516772E0,-2.391125286E0,5.363183141E-2,9.505338781E0
4.649033125E0,-8.940380453E0,-2.161851282E0,1.436511782E-1,9.199165140E0
4.659018125E0,-8.620251244E0,-1.853753303E0,1.214244497E-1,8.818156083E0
4.669004125E0,-8.106256430E0,-1.511871282E0,1.239805600E-1,8.246970308E0
4.678990125E0,-7.548245530E0,-1.357511805E0,3.307351819E-1,7.676472800E0
4.688975125E0,-7.083776633E0,-1.263405547E0,7.188031903E-1,7.231373520E0
4.698961125E0,-6.593358961E0,-1.236947481E0,1.069876742E0,6.793162570E0
4.708946125E0,-6.081077966E0,-1.443906171E0,1.292591632E0,6.382410782E0
4.718932125E0,-5.752144604E0,-1.916287521E0,1.505165987E0,6.246987278E0
4.728917125E0,-5.881221889E0,-2.322248009E0,1.518753162E0,6.502939173E0
4.738903125E0,-6.342242099E0,-2.387861955E0,1.180898118E0,6.878985385E0
4.748889125E0,-6.681835520E0,-2.663261134E0,7.449604172E-1,7.231517947E0
4.758874125E0,-6.920034714E0,-3.190015742E0,4.367253211E-1,7.632418351E0
4.768860125E0,-7.146221387E0,-3.570454304E0,2.642125788E-1,7.992898870E0
4.778845125E0,-7.262582148E0,-3.945408762E0,3.253639296E-1,8.271469727E0
4.788831125E0,-7.379497225E0,-4.432872419E0,7.146890894E-1,8.638177914E0
4.798817125E0,-7.320959580E0,-5.028394377E0,1.166392053E0,8.957771464E0
4.808802125E0,-7.287975436E0,-5.563098274E0,1.574830592E0,9.302835039E0
4.818788125E0,-7.426611165E0,-5.991805016E0,1.930939766E0,9.735749028E0
4.828773125E0,-7.603384189E0,-6.433860367E0,2.182544871E0,1.019654414E1
4.838759125E0,-7.791498472E0,-6.836135940E0,2.516189335E0,1.066636826E1
4.848744125E0,-7.841350079E0,-7.343743256E0,3.097732354E0,1.118093385E1
4.858730125E0,-7.900502266E0,-8.003092834E0,3.751296697E0,1.185494234E1
4.868716125E0,-7.926945714E0,-8.662455277E0,4.243636640E0,1.248531344E1
4.878701125E0,-7.701464215E0,-9.270724164E0,4.645823336E0,1.291675470E1
4.888687125E0,-7.299614904E0,-9.983677508E0,5.045374106E0,1.335717014E1
4.898672125E0,-6.876740760E0,-1.074859973E1,5.414708805E0,1.386149455E1
4.908658125E0,-6.640571135E0,-1.149422966E1,5.567971344E0,1.439502710E1
4.918644125E0,-6.669647584E0,-1.228530999E1,5.509509712E0,1.502556946E1
4.928629125E0,-7.014178979E0,-1.301440165E1,5.413976734E0,1.574434823E1
4.938615125E0,-7.246915703E0,-1.361702856E1,5.702005899E0,1.644548951E1
4.948600125E0,-6.834843121E0,-1.457915281E1,6.350412998E0,1.730879899E1
4.958586125E0,-5.654854537E0,-1.556521673E1,7.072344157E0,1.800753741E1
4.968571125E0,-3.791521740E0,-1.608035058E1,7.994648870E0,1.835395659E1
4.978557125E0,-1.698611469E0,-1.593996361E1,8.212234874E0,1.801134427E1
4.988543125E0,6.990931034E-2,-1.523548405E1,8.031965801E0,1.722316278E1
4.998528125E0,9.862656516E-1,-1.429274917E1,7.730252396E0,1.627919534E1
5.008514125E0,9.453111684E-1,-1.326378890E1,7.545290932E0,1.528898703E1
5.018499125E0,5.667238355E-1,-1.271748705E1,7.880851529E0,1.497208982E1
5.028485125E0,1.263647622E0,-1.225655923E1,7.721778027E0,1.454117964E1
5.038471125E0,3.086679654E0,-1.164222970E1,6.968484158E0,1.391505930E1
5.048456125E0,4.677740947E0,-1.136370811E1,5.967534978E0,1.366113451E1
5.058442125E0,6.718850150E0,-1.058824569E1,4.649649461E0,1.337434613E1
5.068427125E0,8.912064142E0,-9.627062842E0,3.587478180E0,1.360055977E1
5.078413125E0,9.831444079E0,-9.010644105E0,3.446357969E0,1.377412005E1
5.088398125E0,1.014985187E1,-8.228849738E0,4.021288956E0,1.367129203E1
5.098384125E0,1.035883369E1,-7.636149062E0,4.993709278E0,1.380410592E1
5.108370125E0,1.032568934E1,-7.623344829E0,5.861926662E0,1.411018890E1
5.118355125E0,1.138416635E1,-7.168748370E0,5.428461456E0,1.450718410E1
5.128341125E0,1.289242873E1,-6.535522982E0,4.310031189E0,1.508324063E1
5.138326125E0,1.388209921E1,-6.589389287E0,3.857582998E0,1.584341113E1
5.148312125E0,1.537894432E1,-6.315318010E0,3.792763396E0,1.705227915E1
5.158298125E0,1.698712275E1,-5.800351388E0,3.601798303E0,1.830790449E1
5.168283125E0,1.800598137E1,-5.751945798E0,3.793887523E0,1.927936275E1
5.178269125E0,1.896006219E1,-5.804221076E0,4.034678203E0,2.023490966E1
5.188254125E0,2.030902888E1,-5.334317776E0,4.050170693E0,2.138493588E1
5.198240125E0,2.134658221E1,-4.928938501E0,4.198107588E0,2.230684007E1
5.208226125E0,2.158522111E1,-4.876688659E0,4.265751979E0,2.253664799E1
5.218211125E0,2.104719775E1,-4.875209898E0,3.945543832E0,2.196177408E1
5.228197125E0,1.945606045E1,-5.043981299E0,3.248305466E0,2.036004724E1
5.238182125E0,1.711302851E1,-5.445518954E0,2.394121984E0,1.811742922E1
5.248168125E0,1.496254772E1,-5.717703919E0,1.836438528E0,1.612273174E1
5.258153125E0,1.302952722E1,-5.954334304E0,1.665158087E0,1.442204660E1
5.268139125E0,1.121676758E1,-6.166061983E0,1.825144047E0,1.292932118E1
5.278125125E0,9.865514635E0,-6.288506187E0,2.140001991E0,1.189341404E1
5.288110125E0,9.019961058E0,-6.495168423E0,2.574358313E0,1.140939223E1
5.298096125E0,8.471153677E0,-6.757765124E0,3.323884236E0,1.133472719E1
5.308081125E0,8.334805378E0,-6.943049355E0,4.320167338E0,1.167641901E1
5.318067125E0,8.523089815E0,-6.942876277E0,5.286363591E0,1.219804210E1
5.328053125E0,8.819959386E0,-7.153291256E0,6.108899603E0,1.289495691E1
5.338038125E0,9.107512588E0,-7.755070319E0,6.652072608E0,1.368714620E1
5.348024125E0,8.792413153E0,-8.527134919E0,7.194653290E0,1.420498486E1
5.358009125E0,7.525107513E0,-9.482302154E0,7.750203681E0,1.437382880E1
5.367995125E0,6.256881521E0,-1.027940863E1,8.086786956E0,1.449865274E1
5.377980125E0,5.198468830E0,-1.094657710E1,8.404170898E0,1.474726133E1
5.387966125E0,4.130181361E0,-1.153253243E1,8.842281132E0,1.510773437E1
5.397952125E0,3.005404526E0,-1.217492625E1,9.464909611E0,1.571132711E1
5.407937125E0,1.857016050E0,-1.285216948E1,9.982697514E0,1.637928627E1
5.417923125E0,1.036487387E0,-1.320063430E1,1.014430754E1,1.668046844E1
5.427908125E0,5.515514803E-1,-1.347326540E1,1.026751890E1,1.694859976E1
5.437894125E0,-2.402620912E-2,-1.384924020E1,1.051748620E1,1.739021412E1
5.447879958E0,-3.613637745E-1,-1.407836101E1,1.057471640E1,1.761123106E1
5.457864958E0,-4.663060927E-1,-1.458689686E1,1.057534089E1,1.802311949E1
5.467850958E0,-1.013516600E0,-1.563375311E1,1.063802304E1,1.893697406E1
5.477835958E0,-2.052715341E0,-1.628928446E1,1.021913903E1,1.933869776E1
5.487821958E0,-2.491807907E0,-1.625174885E1,9.012658471E0,1.874983893E1
5.497807958E0,-2.565180816E0,-1.622767118E1,7.964200079E0,1.825776403E1
5.507792958E0,-2.535664656E0,-1.610559652E1,7.145537263E0,1.780108248E1
5.517778958E0,-2.188153374E0,-1.557897289E1,6.436303918E0,1.699760041E1
5.527763958E0,-1.867844508E0,-1.506850161E1,6.065977532E0,1.635067788E1
5.537749958E0,-2.097124944E0,-1.455845133E1,5.960574453E0,1.587056665E1
5.547734958E0,-2.362981029E0,-1.392381793E1,5.932893734E0,1.531847294E1
5.557720958E0,-2.808429957E0,-1.351416317E1,5.984959681E0,1.504458798E1
5.567706958E0,-3.949240150E0,-1.353559321E1,6.055452543E0,1.534526920E1
5.577691958E0,-6.368987263E0,-1.381457323E1,6.110912799E0,1.639358678E1
5.587677958E0,-9.148848310E0,-1.264510437E1,4.946633345E0,1.637282112E1
5.597662958E0,-1.133940240E1,-1.067626032E1,3.746000874E0,1.601864863E1
5.607648958E0,-1.377078343E1,-8.994635013E0,2.799706788E0,1.668461247E1
5.617634958E0,-1.597279690E1,-7.924968771E0,1.864762733E0,1.792798680E1
5.627619958E0,-1.706348037E1,-6.888222352E0,8.695572737E-1,1.842189185E1
5.637605958E0,-1.695903741E1,-5.959909040E0,-9.335752219E-2,1.797604465E1
5.647590958E0,-1.601654109E1,-5.435828363E0,-6.018694022E-1,1.692454032E1
5.657576958E0,-1.475890206E1,-4.944473383E0,-8.192612788E-1,1.558666726E1
5.667561958E0,-1.368597191E1,-4.319550456E0,-8.797884393E-1,1.437839945E1
5.677547958E0,-1.307900753E1,-3.910229573E0,-7.888347074E-1,1.367379222E1
5.687533958E0,-1.299680504E1,-3.690491209E0,-6.336750394E-1,1.352546526E1
5.697518958E0,-1.298042114E1,-3.484408432E0,-4.197719041E-1,1.344651046E1
5.707504958E0,-1.266857509E1,-3.351454443E0,8.807953298E-3,1.310439313E1
5.717489958E0,-1.223824809E1,-3.232972312E0,4.291783199E-1,1.266534722E1
5.727475958E0,-1.173586234E1,-3.004196491E0,6.568504786E-1,1.213206965E1
5.737461958E0,-1.119609066E1,-2.747697852E0,7.890919849E-1,1.155529989E1
5.747446958E0,-1.068807871E1,-2.612899066E0,9.739467376E-1,1.104585173E1
5.757432958E0,-1.031691033E1,-2.666703390E0,1.215441130E0,1.072507542E1
5.767417958E0,-9.895385721E0,-2.827818155E0,1.451517784E0,1.039336894E1
5.777403958E0,-9.452707642E0,-3.091410052E0,1.650477190E0,1.008139736E1
5.787388958E0,-9.168014313E0,-3.507323670E0,1.844195445E0,9.987735610E0
5.797374958E0,-9.116465260E0,-3.953579076E0,2.001471220E0,1.013640042E1
5.807360958E0,-9.182628844E0,-4.326148455E0,2.025821657E0,1.035085438E1
5.817345958E0,-9.204622561E0,-4.710698778E0,1.952396416E0,1.052271881E1
5.827331958E0,-9.204946496E0,-5.182684856E0,1.853312131E0,1.072501880E1
5.837316958E0,-9.134321487E0,-5.725110587E0,1.858602399E0,1.093924692E1
5.847302958E0,-8.989478939E0,-6.355395995E0,1.959204622E0,1.118214079E1
5.857288958E0,-8.829306745E0,-6.739016027E0,2.246874475E0,1.133223012E1
5.867273958E0,-8.586455507E0,-6.879132856E0,2.705701395E0,1.133007092E1
5.877259958E0,-7.992667834E0,-7.326857082E0,3.376627291E0,1.135637203E1
5.887244958E0,-7.314891924E0,-7.708270959E0,4.127250736E0,1.139996858E1
5.897230958E0,-6.606370186E0,-8.044642564E0,5.132344422E0,1.160609152E1
5.907216958E0,-5.670113431E0,-8.632844977E0,6.224124835E0,1.205885271E1
5.917201958E0,-4.687701679E0,-9.218477538E0,7.161659206E0,1.257951659E1
5.927187958E0,-4.013197287E0,-9.605084327E0,7.807141528E0,1.301210422E1
5.937172958E0,-3.777370893E0,-9.840333016E0,8.119603869E0,1.330521145E1
5.947158958E0,-3.740655934E0,-1.024846165E1,8.097555188E0,1.358653278E1
5.957143958E0,-3.906241480E0,-1.068713848E1,8.058893398E0,1.394343624E1
5.967129958E0,-4.399317295E0,-1.091809180E1,8.100663568E0,1.428913824E1
5.977115958E0,-4.282264516E0,-1.155548509E1,8.127806343E0,1.476239347E1
5.987100958E0,-3.591621809E0,-1.245425827E1,7.967780914E0,1.521492126E1
5.997086958E0,-2.804239842E0,-1.297126674E1,7.606543440E0,1.529630756E1
6.007071958E0,-1.990171768E0,-1.317863707E1,7.183144215E0,1.514050262E1
6.017057958E0,-1.433163081E0,-1.353670419E1,6.491191732E0,1.508084503E1
6.027043958E0,-1.403312461E0,-1.346423613E1,5.562267970E0,1.463536011E1
6.037028958E0,-1.669053794E0,-1.324474803E1,5.009398527E0,1.425844187E1
6.047014958E0,-1.824321928E0,-1.335194620E1,5.212300419E0,1.444889939E1
6.056999958E0,-1.420245997E0,-1.343083918E1,5.577242689E0,1.461198740E1
6.066985958E0,3.620701182E-1,-1.312795808E1,5.424558440E0,1.420915946E1
6.076970958E0,3.456506104E0,-1.210107943E1,4.591985098E0,1.339663707E1
6.086956958E0,6.531704165E0,-1.053135111E1,3.839876459E0,1.297371060E1
6.096942958E0,7.783884228E0,-8.960337000E0,3.812931320E0,1.246655277E1
6.106927958E0,6.430487108E0,-7.853606427E0,4.919689960E0,1.127978934E1
6.116913958E0,2.769772260E0,-8.436014834E0,6.556151959E0,1.103726022E1
6.126898958E0,1.238030970E-2,-9.825078800E0,7.320561969E0,1.225246727E1
6.136884958E0,3.621034473E-1,-1.078907299E1,6.615288359E0,1.266085522E1
6.146870958E0,3.183122460E0,-1.121014853E1,4.979404650E0,1.267257548E1
6.156855958E0,7.766885203E0,-1.081397277E1,3.517258090E0,1.377089748E1
6.166841958E0,1.323664145E1,-9.566710805E0,2.603297645E0,1.653807096E1
6.176826958E0,1.726950819E1,-7.997784147E0,2.762474350E0,1.923100956E1
6.186812958E0,1.896822490E1,-6.569179555E0,4.263111669E0,2.052125233E1
6.196798958E0,1.862882444E1,-5.980637419E0,5.950147698E0,2.045007046E1
6.206783958E0,1.782120468E1,-5.862937646E0,6.295248027E0,1.978887368E1
6.216769958E0,1.799133059E1,-5.673844539E0,5.176001489E0,1.956199068E1
6.226754958E0,1.861927945E1,-5.569478756E0,3.446685705E0,1.973768738E1
6.236740958E0,1.918770833E1,-5.591495277E0,2.166536656E0,2.010290654E1
6.246725958E0,1.931807317E1,-5.425790448E0,1.362607654E0,2.011178393E1
6.256711958E0,1.888747486E1,-5.155564885E0,1.046660373E0,1.960642889E1
6.266697958E0,1.799027341E1,-4.927367354E0,1.217123666E0,1.869251926E1
6.276682958E0,1.680682269E1,-4.673055865E0,1.608286605E0,1.751837109E1
6.286668958E0,1.541373642E1,-4.527132752E0,2.092056577E0,1.620045994E1
6.296653958E0,1.421102147E1,-4.414722954E0,2.538496462E0,1.509592244E1
6.306639958E0,1.313899061E1,-4.602045817E0,2.783853233E0,1.419724406E1
6.316625958E0,1.199436540E1,-4.967954047E0,2.593710258E0,1.323905970E1
6.326610958E0,1.105201643E1,-5.200979040E0,2.214099078E0,1.241368136E1
6.336596958E0,9.957575537E0,-5.521102402E0,2.190024921E0,1.159448539E1
6.346581958E0,8.654145214E0,-5.956919943E0,2.498301825E0,1.079910351E1
6.356567958E0,7.728932680E0,-6.301822051E0,2.915706484E0,1.038993291E1
6.366553958E0,7.300660386E0,-6.608330172E0,3.492967587E0,1.044846842E1
6.376538958E0,7.344139112E0,-6.894863620E0,4.111102773E0,1.088010522E1
6.386524958E0,8.057143911E0,-6.904607420E0,4.692267185E0,1.160209218E1
6.396509958E0,8.575370355E0,-7.256007539E0,5.369851305E0,1.245078010E1
6.406495958E0,8.224045665E0,-8.100947158E0,6.051424981E0,1.303380283E1
6.416480958E0,7.310821677E0,-8.951420581E0,6.677578163E0,1.334788725E1
6.426466958E0,6.238894317E0,-9.765689215E0,7.274336806E0,1.368241441E1
6.436452958E0,5.229105901E0,-1.046218440E1,7.755336367E0,1.403374836E1
6.446438083E0,4.450167899E0,-1.093484993E1,8.122656700E0,1.433012523E1
6.456424083E0,4.200003548E0,-1.122406841E1,8.496869731E0,1.469069559E1
6.466409083E0,4.223449713E0,-1.169117558E1,8.942838623E0,1.531324513E1
6.476395083E0,4.176217659E0,-1.223895911E1,9.342312795E0,1.595342353E1
6.486381083E0,3.956129047E0,-1.288555591E1,9.734195527E0,1.662657724E1
6.496366083E0,3.939883143E0,-1.324590812E1,1.001760305E1,1.706836641E1
6.506352083E0,4.230772766E0,-1.384241533E1,1.031739565E1,1.777527927E1
6.516337083E0,4.164479374E0,-1.503048769E1,1.078570266E1,1.896285396E1
6.526323083E0,3.397636337E0,-1.663299432E1,1.127627236E1,2.038025395E1
6.536308083E0,2.116602604E0,-1.803707569E1,1.137813904E1,2.143077586E1
6.546294083E0,9.671736154E-1,-1.822127234E1,1.063356278E1,2.111925302E1
6.556280083E0,8.020040989E-2,-1.788374416E1,9.821059424E0,2.040313567E1
6.566265083E0,-8.064359960E-1,-1.783833936E1,9.253133401E0,2.011161773E1
6.576251083E0,-1.858297905E0,-1.757259510E1,8.678397710E0,1.968664411E1
6.586236083E0,-3.074579426E0,-1.730665672E1,8.173325747E0,1.938495961E1
6.596222083E0,-3.925612136E0,-1.704102356E1,7.603490024E0,1.906882207E1
6.606208083E0,-5.401067836E0,-1.680434932E1,6.765867026E0,1.890329723E1
6.616193083E0,-8.222030715E0,-1.633382504E1,5.771731607E0,1.917572724E1
6.626179083E0,-1.160786094E1,-1.553694193E1,4.753986593E0,1.996845985E1
6.636164083E0,-1.470237001E1,-1.376445791E1,4.041039096E0,2.054142114E1
6.646150083E0,-1.629125147E1,-1.137325778E1,3.450820856E0,2.016591261E1
6.656135083E0,-1.712837511E1,-9.577829286E0,2.337791662E0,1.976313026E1
6.666121083E0,-1.680499602E1,-8.539728652E0,1.342009960E0,1.889803819E1
6.676107083E0,-1.530710660E1,-7.359271706E0,5.998503587E-1,1.699488785E1
6.686092083E0,-1.405790862E1,-6.262546889E0,-1.461567101E-1,1.539044021E1
6.696078083E0,-1.310615615E1,-5.761346367E0,-6.715851697E-1,1.433232248E1
6.706063083E0,-1.282831167E1,-5.428285455E0,-9.179558471E-1,1.395974592E1
6.716049083E0,-1.308086695E1,-4.951018757E0,-9.455681536E-1,1.401840811E1
6.726035083E0,-1.331326102E1,-4.493515647E0,-7.650368321E-1,1.407195379E1
6.736020083E0,-1.316783843E1,-4.015421568E0,-7.475568733E-1,1.378674801E1
6.746006083E0,-1.229519997E1,-3.433915971E0,-7.627827305E-1,1.278849321E1
6.755991083E0,-1.073745611E1,-2.795927441E0,-7.045318910E-1,1.111784778E1
6.765977083E0,-9.025543980E0,-2.299426326E0,-3.998902014E-1,9.322430892E0
6.775962083E0,-7.224385797E0,-1.755897226E0,-7.576295793E-2,7.435096854E0
6.785948083E0,-5.502928671E0,-1.165416153E0,2.512911093E-1,5.630591975E0
6.795934083E0,-4.072583655E0,-6.918811476E-1,4.344364285E-1,4.153717872E0
6.805919083E0,-2.790373755E0,-5.483203089E-1,5.979011893E-1,2.905912367E0
6.815905083E0,-1.892035609E0,-3.813811326E-1,8.852324894E-1,2.123413967E0
6.825890083E0,-1.569794385E0,-1.353548563E-1,1.187806019E0,1.973184859E0
6.835876083E0,-1.572068659E0,5.859260917E-2,1.527815470E0,2.192955328E0
6.845862083E0,-1.693424697E0,1.896427453E-1,1.759205580E0,2.449174524E0
6.855847083E0,-2.066900394E0,1.426352245E-1,1.850970321E0,2.778221225E0
6.865833083E0,-2.616191633E0,1.691196030E-1,1.836610436E0,3.200968290E0
6.875818083E0,-3.018238872E0,2.768118668E-1,1.717484820E0,3.483697002E0
6.885804083E0,-3.249991218E0,1.485941219E-1,1.509183902E0,3.586385252E0
6.895790083E0,-3.473045538E0,2.410280764E-2,1.332738614E0,3.720056245E0
6.905775083E0,-3.719186127E0,-3.094697356E-2,1.214191872E0,3.912488347E0
6.915761083E0,-3.836399412E0,-3.916687238E-1,1.173918882E0,4.031060702E0
6.925746083E0,-3.976207801E0,-8.340129268E-1,1.133972459E0,4.218020812E0
6.935732083E0,-4.335227719E0,-1.179740077E0,1.159234769E0,4.640022766E0
6.945717083E0,-4.888165574E0,-1.509641154E0,1.196568072E0,5.254041705E0
6.955703083E0,-5.541225010E0,-1.853111864E0,1.263485069E0,5.977925452E0
6.965689083E0,-6.349288579E0,-2.242056955E0,1.315206031E0,6.860761747E0
6.975674083E0,-7.356918787E0,-2.609729290E0,1.415096354E0,7.933311963E0
6.985660083E0,-8.407430136E0,-3.027192421E0,1.665776722E0,9.089751786E0
6.995645083E0,-9.481814497E0,-3.299371539E0,1.874448061E0,1.021294347E1
7.005631083E0,-9.959495763E0,-3.672404602E0,2.029390798E0,1.080724472E1
7.015617083E0,-9.853253024E0,-4.238121547E0,2.407899486E0,1.099300911E1
7.025602083E0,-9.597009907E0,-4.723211820E0,2.977764445E0,1.110308111E1
7.035588083E0,-9.263922683E0,-5.256900641E0,3.616601991E0,1.124878117E1
7.045573083E0,-9.014635999E0,-5.876485060E0,4.170449381E0,1.154077064E1
7.055559083E0,-8.788392023E0,-6.430123996E0,4.612345687E0,1.182607550E1
7.065544083E0,-8.575944552E0,-7.067001556E0,4.956246167E0,1.216773241E1
7.075530083E0,-8.426820672E0,-7.874744112E0,5.336978259E0,1.270851047E1
7.085516083E0,-8.390572028E0,-8.723496700E0,5.707650801E0,1.338201671E1
7.095501083E0,-8.363166128E0,-9.623562114E0,5.999395287E0,1.409071465E1
7.105487083E0,-8.102084441E0,-1.061632636E1,6.281966661E0,1.475849799E1
7.115472083E0,-7.852821146E0,-1.170904350E1,6.485928068E0,1.551888406E1
7.125458083E0,-7.606254587E0,-1.274470584E1,6.465872118E0,1.618919819E1
7.135444083E0,-7.275101037E0,-1.357746162E1,6.349607252E0,1.666109454E1
7.145429083E0,-6.913861808E0,-1.427008068E1,6.308405432E0,1.706554033E1
7.155415083E0,-6.419708351E0,-1.519243217E1,6.421602849E0,1.769914218E1
7.165400083E0,-5.588165873E0,-1.607810876E1,6.780849931E0,1.832247540E1
7.175386083E0,-4.819519554E0,-1.651822751E1,7.159377623E0,1.863696050E1
7.185371083E0,-3.866880071E0,-1.689731888E1,7.090568758E0,1.872827573E1
7.195357083E0,-2.623063865E0,-1.726567943E1,6.768195387E0,1.872945859E1
7.205343083E0,-1.633400397E0,-1.714124834E1,6.530393220E0,1.841565712E1
7.215328083E0,-3.654463005E-1,-1.697485296E1,6.330014402E0,1.812038262E1
7.225314083E0,1.085598151E0,-1.672402378E1,6.050646717E0,1.781801954E1
7.235299083E0,2.829996827E0,-1.604678523E1,5.536618574E0,1.720936790E1
7.245285083E0,5.360593994E0,-1.467323685E1,4.741520621E0,1.632549740E1
7.255271083E0,7.731616552E0,-1.299817328E1,4.985459442E0,1.592435899E1
7.265256083E0,9.031570120E0,-1.163341327E1,6.426515679E0,1.606877926E1
7.275242083E0,9.489083755E0,-1.059767140E1,8.148532968E0,1.639365546E1
7.285227083E0,9.186171672E0,-1.074385647E1,9.453806334E0,1.700560661E1
7.295213083E0,9.988714299E0,-1.123214108E1,9.077183665E0,1.755934708E1
7.305198083E0,1.366494298E1,-1.087845119E1,7.103906257E0,1.885568485E1
7.315184083E0,1.827289507E1,-9.855196638E0,5.065234174E0,2.137007703E1
7.325170083E0,2.132384590E1,-8.539971896E0,4.199341350E0,2.335105975E1
7.335155083E0,2.243179971E1,-7.234082819E0,4.461522607E0,2.398797149E1
7.345141083E0,2.219203346E1,-6.154976247E0,5.341951901E0,2.364120411E1
7.355126083E0,2.163822729E1,-5.842834918E0,5.830241770E0,2.315908719E1
7.365112083E0,2.189550244E1,-5.712446102E0,5.253247300E0,2.323018887E1
7.375098083E0,2.263255333E1,-5.676241313E0,4.375052520E0,2.374011942E1
7.385083083E0,2.309209770E1,-5.886159278E0,3.796873404E0,2.413106079E1
7.395069083E0,2.309840568E1,-5.912899765E0,3.257665396E0,2.406472756E1
7.405054083E0,2.232017870E1,-5.849197859E0,2.780531137E0,2.324080132E1
7.415040083E0,2.085141426E1,-5.726846625E0,2.503469302E0,2.176799503E1
7.425026083E0,1.892982975E1,-5.633180662E0,2.425836404E0,1.989863967E1
7.435011083E0,1.685440499E1,-5.871965747E0,2.472384919E0,1.801842492E1
7.444997083E0,1.490600047E1,-6.355173801E0,2.558495402E0,1.640496823E1
7.454982000E0,1.321103649E1,-6.999659758E0,2.728670135E0,1.519777492E1
7.464968000E0,1.188112121E1,-7.798826787E0,2.923390310E0,1.450961582E1
7.474953000E0,1.114487723E1,-8.441714115E0,3.038735994E0,1.430750650E1
7.484939000E0,1.093761098E1,-8.813767769E0,3.310130708E0,1.443159040E1
7.494925000E0,1.070224886E1,-9.239518159E0,4.109396263E0,1.472392489E1
7.504910000E0,1.017683326E1,-9.863283337E0,5.262981160E0,1.511791203E1
7.514896000E0,9.168925309E0,-1.036897511E1,6.571005056E0,1.532197584E1
7.524881000E0,7.770256122E0,-1.086763150E1,7.895878873E0,1.551860812E1
7.534867000E0,6.297034351E0,-1.162196208E1,9.049747360E0,1.601938112E1
7.544853000E0,4.985415587E0,-1.240054107E1,9.772959058E0,1.655712886E1
7.554838000E0,3.946192288E0,-1.349331551E1,1.024608300E1,1.739609766E1
7.564824000E0,2.691861620E0,-1.454824677E1,1.041344201E1,1.809246742E1
7.574809000E0,1.494814954E0,-1.525573881E1,1.043191220E1,1.854175910E1
7.584795000E0,5.464842832E-1,-1.580099635E1,1.047975411E1,1.896827290E1
7.594780000E0,-5.590973121E-1,-1.619893212E1,1.056554680E1,1.934809476E1
7.604766000E0,-1.539205261E0,-1.630409429E1,1.070525432E1,1.956515049E1
7.614752000E0,-1.901491726E0,-1.599746513E1,1.076850366E1,1.937769936E1
7.624737000E0,-2.225102368E0,-1.589849633E1,1.084791703E1,1.937499858E1
7.634723000E0,-2.646584290E0,-1.606336910E1,1.075399087E1,1.951113925E1
7.644708000E0,-2.896486978E0,-1.622280747E1,1.039045661E1,1.948154787E1
7.654694000E0,-3.221162983E0,-1.659481200E1,9.896330631E0,1.958828825E1
7.664680000E0,-4.098332162E0,-1.670068286E1,9.099383204E0,1.945527973E1
7.674665000E0,-4.993820375E0,-1.588989040E1,7.650031521E0,1.832893453E1
7.684651000E0,-5.515211917E0,-1.480457700E1,6.226287135E0,1.698115762E1
7.694636000E0,-6.619413570E0,-1.387733724E1,5.229922757E0,1.624035766E1
7.704622000E0,-8.384281594E0,-1.306484558E1,4.411623638E0,1.613842591E1
7.714607000E0,-1.003352151E1,-1.186309892E1,3.605911235E0,1.595014939E1
7.724593000E0,-1.135257033E1,-1.045440293E1,2.938608273E0,1.571021363E1
7.734579000E0,-1.283217902E1,-9.178516497E0,2.511126523E0,1.597547307E1
7.744564000E0,-1.397192297E1,-8.033400123E0,1.780506402E0,1.621481890E1
7.754550000E0,-1.445585257E1,-7.255804056E0,8.496609530E-1,1.619692223E1
7.764535000E0,-1.465346975E1,-6.743653454E0,-6.109317094E-2,1.613086389E1
7.774521000E0,-1.458596364E1,-6.333705749E0,-6.822496140E-1,1.591639496E1
7.784507000E0,-1.416770295E1,-5.794205965E0,-1.176342260E0,1.535188623E1
7.794492000E0,-1.307250309E1,-4.983923963E0,-1.644991917E0,1.408672544E1
7.804478000E0,-1.171925157E1,-4.228118715E0,-1.656483450E0,1.256828479E1
7.814463000E0,-1.047564703E1,-3.740579043E0,-1.194448748E0,1.118739559E1
7.824449000E0,-9.172043045E0,-3.232867062E0,-7.370470878E-1,9.753001664E0
7.834434000E0,-7.810009003E0,-2.683807665E0,-4.626460281E-1,8.271221527E0
7.844420000E0,-6.612602148E0,-2.238030562E0,-1.313062441E-1,6.982301146E0
7.854406000E0,-5.528779796E0,-1.753437887E0,3.033991563E-1,5.808097925E0
7.864391000E0,-4.331250150E0,-1.262291068E0,6.683873275E-1,4.560685061E0
7.874377000E0,-3.220313967E0,-8.218109572E-1,8.145683035E-1,3.421887903E0
7.884362000E0,-2.313792935E0,-5.495973408E-1,8.585849735E-1,2.528411189E0
7.894348000E0,-1.537496704E0,-1.608867234E-1,8.244945368E-1,1.752019376E0
7.904334000E0,-7.860362300E-1,1.915810972E-1,7.618199864E-1,1.111272227E0
7.914319000E0,-1.682632783E-1,3.332182020E-1,8.358986539E-1,9.154635222E-1
7.924305000E0,5.113097727E-2,5.371269840E-1,1.205885317E0,1.321090145E0
7.934290000E0,-5.450920612E-2,7.497101104E-1,1.599981513E0,1.767760545E0
7.944276000E0,-1.575605348E-1,7.220761693E-1,1.521767402E0,1.691743285E0
7.954261000E0,-3.030953935E-1,6.108831775E-1,9.253452659E-1,1.149482029E0
7.964247000E0,-5.331711964E-1,5.116331238E-1,3.379026988E-1,8.125381295E-1
7.974233000E0,-5.731373540E-1,4.623147833E-1,-8.974423528E-2,7.418055090E-1
7.984218000E0,-5.336179237E-1,5.356751204E-1,-3.411096042E-1,8.294888096E-1
7.994204000E0,-4.674113627E-1,5.012946618E-1,-3.373688480E-1,7.639289623E-1
8.004189000E0,-4.234147194E-1,4.127280557E-1,-2.675911000E-1,6.490219329E-1
8.014175000E0,-3.536005725E-1,3.924709618E-1,-1.826351497E-1,5.589475992E-1
8.024161000E0,-2.791527995E-1,3.601469690E-1,1.470896333E-2,4.559040232E-1
8.034146000E0,-2.652023663E-1,3.709093541E-1,4.678588209E-1,6.532977271E-1
8.044132000E0,-3.598537311E-1,3.743258822E-1,9.698531020E-1,1.100104365E0
8.054117000E0,-5.795681217E-1,3.016789055E-1,1.113514220E0,1.291055107E0
8.064103000E0,-8.980418386E-1,1.462154746E-1,9.769829044E-1,1.335048203E0
8.074088000E0,-1.375116310E0,-1.503576422E-1,7.738094097E-1,1.585034160E0
8.084074000E0,-2.040587485E0,-5.287081629E-1,5.846742028E-1,2.187549663E0
8.094060000E0,-2.866423227E0,-9.647280174E-1,4.872473109E-1,3.063411857E0
8.104045000E0,-3.926020271E0,-1.387243727E0,6.132442832E-1,4.208817991E0
8.114031000E0,-5.327942557E0,-1.704984350E0,8.815095672E-1,5.663126578E0
8.124016000E0,-6.969636644E0,-2.010974992E0,1.234860317E0,7.358310633E0
8.134002000E0,-8.683196520E0,-2.384154235E0,1.603159474E0,9.146158403E0
8.143988000E0,-1.039086708E1,-2.810682889E0,1.917207580E0,1.093369754E1
8.153973000E0,-1.178991868E1,-3.160451050E0,2.273064447E0,1.241601608E1
8.163959000E0,-1.250452327E1,-3.451323717E0,2.792739246E0,1.326929275E1
8.173944000E0,-1.267753420E1,-4.006433812E0,3.251414723E0,1.368733294E1
8.183930000E0,-1.267596130E1,-4.740132492E0,3.620178441E0,1.400908786E1
8.193915000E0,-1.231649904E1,-5.391547399E0,3.866410539E0,1.398978421E1
8.203901000E0,-1.179975603E1,-6.039598403E0,4.076050762E0,1.386813546E1
8.213887000E0,-1.123073190E1,-6.739786105E0,4.257231709E0,1.377236645E1
8.223872000E0,-1.063679746E1,-7.586492752E0,4.415066186E0,1.379090795E1
8.233858000E0,-1.009462959E1,-8.564868171E0,4.625252831E0,1.402324774E1
8.243843000E0,-9.834617947E0,-9.520636500E0,4.882041785E0,1.453260340E1
8.253829000E0,-9.760051330E0,-1.031178232E1,5.275176698E0,1.514658198E1
8.263815000E0,-9.583758363E0,-1.093877107E1,5.647115747E0,1.560112346E1
8.273800000E0,-9.157648369E0,-1.171804236E1,6.078729724E0,1.606629999E1
8.283786000E0,-8.674287702E0,-1.254861011E1,6.624943281E0,1.663131854E1
8.293771000E0,-7.840771204E0,-1.349044803E1,7.348402902E0,1.724728693E1
8.303757000E0,-6.631840072E0,-1.449600657E1,8.104319247E0,1.788282695E1
8.313742000E0,-5.290401093E0,-1.528373996E1,8.746569228E0,1.838704772E1
8.323728000E0,-4.327285153E0,-1.589413664E1,9.016051025E0,1.877866216E1
8.333714000E0,-3.844907404E0,-1.644364277E1,9.022792865E0,1.914647465E1
8.343699000E0,-3.685369633E0,-1.683420052E1,8.893185822E0,1.939229256E1
8.353685000E0,-3.581709024E0,-1.722014482E1,8.513974006E0,1.954097696E1
8.363670000E0,-3.427690440E0,-1.770020824E1,8.079177389E0,1.975650629E1
8.373656000E0,-2.127936847E0,-1.816061099E1,8.003210948E0,1.995964158E1
8.383642000E0,1.547459190E0,-1.778738204E1,7.181285385E0,1.924464730E1
8.393627000E0,7.767322574E0,-1.585732491E1,4.668032230E0,1.826407891E1
8.403613000E0,1.410369933E1,-1.307684172E1,1.900172887E0,1.932689270E1
8.413598000E0,1.576559029E1,-1.088755881E1,1.953169418E0,1.925896271E1
8.423584000E0,1.160017068E1,-9.729013140E0,5.650206585E0,1.615990380E1
8.433570000E0,6.708953152E0,-9.090139925E0,1.038344112E1,1.534459337E1
8.443555000E0,4.531292753E0,-8.841314002E0,1.241520588E1,1.590090515E1
8.453541208E0,4.631705818E0,-9.586650980E0,1.047624695E1,1.493681111E1
8.463526208E0,6.561052510E0,-1.136685976E1,5.918306100E0,1.439719618E1
8.473512208E0,1.044430362E1,-1.223508241E1,1.182269290E0,1.613004898E1
8.483497208E0,1.486544886E1,-1.222016148E1,-1.846179697E0,1.933189840E1
8.493483208E0,1.840596951E1,-1.152978775E1,-2.409293462E0,2.185224048E1
8.503469208E0,2.081773664E1,-1.013559636E1,-8.251345146E-1,2.316871423E1
8.513454208E0,2.180996469E1,-8.160422696E0,1.872348326E0,2.336177962E1
8.523440208E0,2.207185213E1,-6.725778515E0,4.276634525E0,2.346683523E1
8.533425208E0,2.216546371E1,-6.157865356E0,5.204290903E0,2.358626149E1
8.543411208E0,2.257068511E1,-6.230239853E0,4.704049324E0,2.388262538E1
8.553396208E0,2.333750067E1,-6.619398952E0,3.369227639E0,2.449095904E1
8.563382208E0,2.366916877E1,-6.851459738E0,1.624757627E0,2.469436957E1
8.573368208E0,2.319343931E1,-6.532784146E0,1.601651770E-1,2.409644265E1
8.583353208E0,2.140096833E1,-6.214481022E0,-1.763350672E-1,2.228569752E1
8.593339208E0,1.843479395E1,-6.270623648E0,4.016230237E-1,1.947623295E1
8.603324208E0,1.512179781E1,-6.293723073E0,1.333033606E0,1.643340189E1
8.613310208E0,1.218715746E1,-6.415307736E0,2.165804292E0,1.394179646E1
8.623296208E0,1.012920418E1,-6.643562570E0,2.597808279E0,1.238895915E1
8.633281208E0,8.949292195E0,-6.894319829E0,2.837813677E0,1.164794674E1
8.643267208E0,8.467017941E0,-7.170501950E0,3.207079964E0,1.154953908E1
8.653252208E0,8.531249020E0,-7.535812011E0,3.739227751E0,1.198133952E1
8.663238208E0,8.859524571E0,-7.807830330E0,4.378587746E0,1.259465842E1
8.673223208E0,8.900169736E0,-8.086244334E0,5.203762899E0,1.310265305E1
8.683209208E0,8.608210657E0,-8.612556308E0,6.199562436E0,1.366425963E1
8.693195208E0,8.122766043E0,-9.213327311E0,6.982901638E0,1.412889393E1
8.703180208E0,7.443213165E0,-9.915185562E0,7.599415684E0,1.454178275E1
8.713166208E0,6.239146332E0,-1.089538707E1,8.408646941E0,1.511098110E1
8.723151208E0,4.761267838E0,-1.183302435E1,9.026861358E0,1.562607957E1
8.733137208E0,3.639654347E0,-1.232892671E1,9.339813695E0,1.588967078E1
8.743123208E0,2.914355777E0,-1.292906270E1,9.730503595E0,1.644192301E1
8.753108208E0,2.572841545E0,-1.349352367E1,1.010258064E1,1.705159318E1
8.763094208E0,2.573512806E0,-1.401480762E1,1.032152378E1,1.759464845E1
8.773079208E0,2.653955290E0,-1.461438579E1,1.042415996E1,1.814626302E1
8.783065208E0,2.605498829E0,-1.524606985E1,1.067080253E1,1.879088334E1
8.793050208E0,2.483645779E0,-1.602131242E1,1.102725114E1,1.960742756E1
8.803036208E0,1.935893819E0,-1.684900216E1,1.133366745E1,2.039824936E1
8.813022208E0,5.155647916E-1,-1.807346292E1,1.179773874E1,2.158940732E1
8.823007208E0,-1.295002146E0,-1.878659168E1,1.176879152E1,2.220624937E1
8.832993208E0,-2.753078167E0,-1.902469965E1,1.113275362E1,2.221388843E1
8.842978208E0,-4.200706383E0,-1.907186797E1,1.021335146E1,2.203848067E1
8.852964208E0,-5.618694186E0,-1.864456515E1,9.252132357E0,2.155902333E1
8.862950208E0,-6.158168827E0,-1.772177394E1,8.215613980E0,2.048122624E1
8.872935208E0,-6.149293338E0,-1.643329320E1,7.114596137E0,1.893368459E1
8.882921208E0,-6.396632899E0,-1.528151801E1,6.478130221E0,1.778785756E1
8.892906208E0,-7.142072788E0,-1.445050471E1,6.064963624E0,1.722237132E1
8.902892208E0,-8.955392595E0,-1.394956556E1,5.626188562E0,1.750552580E1
8.912878208E0,-1.114037371E1,-1.297491540E1,4.489897682E0,1.768093711E1
8.922863208E0,-1.312751019E1,-1.150674270E1,2.791315742E0,1.767846415E1
8.932849208E0,-1.463786470E1,-9.999512937E0,7.785415614E-1,1.774439261E1
8.942834208E0,-1.536429821E1,-8.651836149E0,-9.569023964E-1,1.765875394E1
8.952820208E0,-1.505221711E1,-7.328813560E0,-1.593372405E0,1.681724067E1
8.962805208E0,-1.473441509E1,-6.099588497E0,-1.535110748E0,1.602075320E1
8.972791208E0,-1.430657783E1,-5.262926781E0,-1.094748167E0,1.528316201E1
8.982777208E0,-1.369759851E1,-4.364396262E0,-5.389539465E-1,1.438619585E1
8.992762208E0,-1.286643201E1,-3.399368867E0,8.711561948E-2,1.330820688E1
9.002748208E0,-1.185747507E1,-2.772197685E0,6.484132388E-1,1.219447558E1
9.012733208E0,-1.073164632E1,-2.205814742E0,8.953622058E-1,1.099252131E1
9.022719208E0,-9.455252935E0,-1.609702801E0,8.023534700E-1,9.624797258E0
9.032704208E0,-8.120609590E0,-8.435818952E-1,2.751249450E-1,8.168942665E0
9.042690208E0,-6.472577705E0,-1.816993028E-1,-3.894435659E-1,6.486828430E0
9.052676208E0,-4.844075229E0,7.045777917E-2,-5.383358958E-1,4.874406083E0
9.062661208E0,-3.382672142E0,2.306469297E-1,-1.608314672E-1,3.394338756E0
9.072647208E0,-1.930217635E0,5.144567442E-1,5.934052652E-1,2.083875157E0
9.082632208E0,-6.727361941E-1,8.917576897E-1,1.467586809E0,1.844347258E0
9.092618208E0,1.629487440E-1,1.025872936E0,2.223982919E0,2.454601311E0
9.102604208E0,2.603089777E-1,1.137464708E0,2.625160384E0,2.872812867E0
9.112589208E0,-1.757962462E-1,1.204721137E0,2.459664009E0,2.744486176E0
9.122575208E0,-7.950742713E-1,9.481236792E-1,1.896518669E0,2.264478896E0
9.132560208E0,-1.675846505E0,6.882927114E-1,1.118272100E0,2.129023450E0
9.142546208E0,-2.314953023E0,2.582025182E-1,4.545625448E-1,2.373247384E0
9.152531208E0,-2.853944976E0,-6.805866659E-2,-4.934143692E-2,2.855182741E0
9.162517208E0,-2.961065382E0,-4.598881888E-1,-2.929645076E-1,3.010852628E0
9.172503208E0,-2.909010252E0,-6.912876552E-1,-3.315736726E-1,3.008348446E0
9.182488208E0,-2.846171103E0,-7.360328883E-1,-2.975355685E-1,2.954820092E0
9.192474208E0,-2.673190876E0,-8.041336548E-1,-2.790724003E-1,2.805434333E0
9.202459208E0,-2.484966665E0,-8.880868077E-1,-3.711227775E-1,2.664862026E0
9.212445208E0,-2.226249299E0,-9.902493596E-1,-3.781005523E-1,2.465712831E0
9.222431208E0,-2.059438762E0,-9.556285805E-1,-3.346355671E-1,2.294884520E0
9.232416208E0,-1.772399530E0,-1.014213004E0,-2.057035848E-1,2.052399102E0
9.242402208E0,-1.659360865E0,-1.056711152E0,-1.846059537E-1,1.975903919E0
9.252387208E0,-1.845539719E0,-9.946382797E-1,-2.846170226E-1,2.115733682E0
9.262373208E0,-1.964758892E0,-1.130008339E0,-3.766709080E-1,2.297624278E0
9.272358208E0,-2.145094624E0,-1.344939122E0,-5.084572086E-1,2.582406033E0
9.282344208E0,-2.421174712E0,-1.559524920E0,-6.392635158E-1,2.950061491E0
9.292330208E0,-2.639905893E0,-1.925008058E0,-6.697631773E-1,3.335167441E0
9.302315208E0,-3.108684773E0,-2.474097276E0,-6.927450737E-1,4.032985753E0
9.312301208E0,-4.130000390E0,-3.001571091E0,-5.642501709E-1,5.136604958E0
9.322286208E0,-5.934548496E0,-3.455488104E0,-2.828587648E-1,6.873083221E0
9.332272208E0,-8.344840955E0,-3.916921127E0,1.855336145E-1,9.220252946E0
9.342258208E0,-1.091629320E1,-4.170848161E0,8.190607193E-1,1.171461873E1
9.352243208E0,-1.330129061E1,-4.365974425E0,1.387240219E0,1.406806667E1
9.362229208E0,-1.480908872E1,-4.921023710E0,1.652707610E0,1.569257867E1
9.372214208E0,-1.498184353E1,-5.556440635E0,1.764555783E0,1.607617259E1
9.382200208E0,-1.386884358E1,-6.276688964E0,2.077114602E0,1.536411571E1
9.392185208E0,-1.236432224E1,-6.983662360E0,2.552813662E0,1.442791954E1
9.402171208E0,-1.115732245E1,-7.426391895E0,3.218976709E0,1.378401073E1
9.412157208E0,-1.024613095E1,-7.888421919E0,4.054107331E0,1.355161194E1
9.422142208E0,-9.631647643E0,-8.492206576E0,4.806546337E0,1.371091159E1
9.432128208E0,-9.204951174E0,-9.170299990E0,5.262223946E0,1.401843532E1
9.442113208E0,-8.905150394E0,-9.891154675E0,5.353392563E0,1.434557271E1
9.452099208E0,-8.936217821E0,-1.069744712E1,5.375541816E0,1.493947167E1
9.462085208E0,-9.149087461E0,-1.162093648E1,5.695911931E0,1.584914442E1
9.472070208E0,-9.360935592E0,-1.267534149E1,6.230743883E0,1.694442582E1
9.482056208E0,-9.578480666E0,-1.367863482E1,7.015101085E0,1.811253670E1
9.492041208E0,-9.497964506E0,-1.451846807E1,7.824271531E0,1.903198544E1
9.502027208E0,-8.605627942E0,-1.568186517E1,8.647047279E0,1.986829520E1
9.512012208E0,-7.077952806E0,-1.692205260E1,9.736781166E0,2.076675679E1
9.521998208E0,-5.512524537E0,-1.768616440E1,1.058173774E1,2.133451456E1
9.531984208E0,-3.823996006E0,-1.812478042E1,1.084473264E1,2.146482790E1
9.541969208E0,-2.655050474E0,-1.832280222E1,1.066507577E1,2.136628689E1
9.551955208E0,-1.844472018E0,-1.809833814E1,1.035653925E1,2.093346186E1
9.561940208E0,-9.361497509E-1,-1.792732345E1,1.004997558E1,2.057346134E1
9.571926208E0,-5.901010036E-1,-1.825269879E1,9.709959403E0,2.068314637E1
9.581912208E0,4.859936678E-1,-1.842604300E1,9.045012869E0,2.053210920E1
9.591897208E0,3.797601090E0,-1.803694588E1,7.552098261E0,1.991952256E1
9.601883208E0,8.313532038E0,-1.705882599E1,6.351205296E0,2.001140094E1
9.611868208E0,1.275739664E1,-1.537072080E1,6.594281652E0,2.103555983E1
9.621854208E0,1.595507983E1,-1.317577661E1,7.506160780E0,2.201154496E1
9.631839208E0,1.630772775E1,-1.149682114E1,9.001731194E0,2.188949623E1
9.641825208E0,1.478357965E1,-1.069233666E1,9.864739294E0,2.074110344E1
9.651811208E0,1.457802780E1,-1.013069873E1,8.611194491E0,1.973075320E1
9.661796208E0,1.535464914E1,-1.064383283E1,6.318701209E0,1.972263706E1
9.671782208E0,1.756308987E1,-1.088532167E1,3.669142732E0,2.098606590E1
9.681767208E0,2.147770719E1,-9.897799451E0,1.034106985E0,2.367124241E1
9.691753208E0,2.408030989E1,-8.850622185E0,2.151570708E-2,2.565531720E1
9.701739208E0,2.465654364E1,-8.017123813E0,7.168680543E-1,2.593710312E1
9.711724208E0,2.457518548E1,-6.932712062E0,1.954816579E0,2.560905203E1
9.721710208E0,2.418787060E1,-6.268924447E0,2.794644561E0,2.514284264E1
9.731695208E0,2.385693456E1,-6.169839284E0,2.526885354E0,2.477105959E1
9.741681208E0,2.368139179E1,-6.105929217E0,1.490747046E0,2.450128600E1
9.751666208E0,2.288956887E1,-6.194218665E0,5.862792635E-1,2.372012713E1
9.761652208E0,2.116900227E1,-6.264729069E0,9.884133339E-2,2.207675830E1
9.771638208E0,1.876664916E1,-6.409115535E0,1.157956275E-1,1.983122012E1
9.781623208E0,1.617729040E1,-6.718473589E0,5.082239047E-1,1.752429467E1
9.791609208E0,1.394958076E1,-6.824270185E0,1.036655787E0,1.556393659E1
9.801594208E0,1.218299658E1,-7.114957495E0,1.798864613E0,1.422265586E1
9.811580208E0,1.086830744E1,-7.446921469E0,2.555189678E0,1.342034799E1
9.821566208E0,1.008448000E1,-7.873319145E0,3.408420941E0,1.324021240E1
9.831551208E0,9.733910183E0,-8.286109182E0,4.452216763E0,1.353627892E1
9.841537208E0,9.764457207E0,-8.581029875E0,5.255031286E0,1.402120009E1
9.851522208E0,9.819349698E0,-9.207152066E0,5.863650422E0,1.468242739E1
9.861508208E0,9.278342502E0,-9.862532555E0,6.372338303E0,1.496542293E1
9.871493208E0,8.340832688E0,-1.037072459E1,7.227934472E0,1.514478310E1
9.881479208E0,6.892860364E0,-1.098821629E1,8.341033832E0,1.542158444E1
9.891465208E0,5.390844564E0,-1.146454217E1,9.361161295E0,1.575208790E1
9.901450208E0,3.948085617E0,-1.193906244E1,1.037240040E1,1.630077550E1
9.911436208E0,2.449036694E0,-1.242406792E1,1.101774473E1,1.678528950E1
9.921421208E0,1.635810619E0,-1.287067826E1,1.115668393E1,1.711145323E1
9.931407208E0,1.292977256E0,-1.310518669E1,1.106896049E1,1.720289495E1
9.941393208E0,1.148482032E0,-1.336846810E1,1.134863633E1,1.757346001E1
9.951378208E0,7.910171807E-1,-1.381488313E1,1.188603755E1,1.824156223E1
9.961364208E0,-2.103652775E-2,-1.431094570E1,1.226774846E1,1.884943664E1
9.971349208E0,-6.997713804E-1,-1.456559896E1,1.241512285E1,1.915154377E1
9.981335208E0,-1.172768442E0,-1.498704288E1,1.248957428E1,1.954421412E1
9.991320208E0,-2.189876402E0,-1.605146651E1,1.236390943E1,2.037919017E1
1.000130621E1,-3.929639698E0,-1.750987553E1,1.176427980E1,2.145777454E1
1.001129221E1,-5.711786537E0,-1.826304602E1,1.062967672E1,2.188957246E1
1.002127721E1,-6.700557720E0,-1.762744432E1,8.814358338E0,2.081627200E1
1.003126321E1,-7.403822227E0,-1.648049192E1,7.242857151E0,1.946489603E1
1.004124821E1,-8.045567009E0,-1.566959889E1,5.492665638E0,1.845093097E1
1.005123421E1,-8.741638271E0,-1.469703735E1,3.760156983E0,1.750879571E1
1.006122021E1,-9.683297853E0,-1.340270237E1,2.800439444E0,1.677024595E1
1.007120521E1,-1.018905277E1,-1.213635919E1,2.461819292E0,1.603647607E1
1.008119121E1,-1.019587530E1,-1.084825617E1,2.036518846E0,1.502624185E1
1.009117621E1,-1.074254202E1,-1.027307141E1,1.867325860E0,1.498082478E1
1.010116221E1,-1.260633265E1,-9.923620756E0,1.777998239E0,1.614184468E1
1.011114721E1,-1.420509356E1,-8.134534149E0,9.658547759E-1,1.639781096E1
1.012113321E1,-1.434404094E1,-6.298890842E0,9.601303518E-2,1.566642126E1
1.013111921E1,-1.405747592E1,-5.568346735E0,-7.753685698E-1,1.514002348E1
1.014110421E1,-1.287526481E1,-4.958673931E0,-2.047042957E0,1.394816389E1
1.015109021E1,-1.129659143E1,-4.237981798E0,-3.052631902E0,1.244556263E1
1.016107521E1,-1.015236617E1,-3.615233451E0,-3.421106476E0,1.130683074E1
1.017106121E1,-9.496230222E0,-2.865989948E0,-3.213349933E0,1.042678784E1
1.018104721E1,-8.788138254E0,-2.275891283E0,-2.417966344E0,9.394552482E0
1.019103221E1,-8.168284863E0,-1.914361448E0,-1.272640347E0,8.485591954E0
1.020101821E1,-7.559182162E0,-1.457769334E0,-2.548462164E-1,7.702679598E0
1.021100321E1,-6.862459520E0,-1.149183698E0,4.769573808E-1,6.974343136E0
1.022098921E1,-6.218472916E0,-7.789321554E-1,7.598737407E-1,6.312966720E0
1.023097421E1,-5.511336383E0,-4.228834999E-1,5.986376461E-1,5.559858470E0
1.024096021E1,-4.742633639E0,-3.638184357E-1,2.525514767E-1,4.763267779E0
1.025094621E1,-3.965267368E0,-2.606934321E-1,4.130765498E-3,3.973829818E0
1.026093121E1,-2.957432507E0,-1.745873344E-1,-2.531552017E-2,2.962689428E0
1.027091721E1,-1.763495098E0,-1.335539138E-1,1.647248358E-1,1.776199842E0
1.028090221E1,-9.935770100E-1,3.403956592E-2,6.246419683E-1,1.174108835E0
1.029088821E1,-7.385933840E-1,3.786925828E-1,1.216143088E0,1.472389985E0
1.030087321E1,-6.970664585E-1,6.543741828E-1,1.508429611E0,1.785907923E0
1.031085921E1,-6.669886735E-1,6.464798570E-1,1.411014413E0,1.689311034E0
1.032084521E1,-7.328011322E-1,6.394257760E-1,1.093707654E0,1.463577554E0
1.033083021E1,-8.848225996E-1,5.778855854E-1,7.179225996E-1,1.277605433E0
1.034081621E1,-1.037288163E0,4.992984223E-1,4.997086045E-1,1.254979815E0
1.035080121E1,-1.004775305E0,4.838687897E-1,4.649214721E-1,1.208244344E0
1.036078721E1,-5.771087828E-1,4.683701599E-1,3.842769662E-1,8.367161649E-1
1.037077321E1,8.381369680E-2,4.828215533E-1,2.990125751E-1,5.740643764E-1
1.038075821E1,7.558283445E-1,4.620206684E-1,2.667710280E-1,9.251520771E-1
1.039074421E1,1.119991181E0,5.516163844E-1,3.633696619E-1,1.300268585E0
1.040072921E1,1.149970733E0,6.578480136E-1,5.713367039E-1,1.442782841E0
1.041071521E1,1.093327439E0,6.704493481E-1,6.299822304E-1,1.428896367E0
1.042070021E1,1.011621518E0,5.807097906E-1,3.719486967E-1,1.224315233E0
1.043068621E1,7.430521783E-1,3.671490097E-1,7.968585491E-3,8.288476539E-1
1.044067221E1,2.570145102E-1,2.207581186E-1,-3.375854874E-1,4.782829358E-1
1.045065721E1,-2.938376431E-1,1.091645926E-1,-5.040314510E-1,5.935530073E-1
1.046064321E1,-8.873240384E-1,-1.338749260E-1,-4.525204048E-1,1.005008041E0
1.047062821E1,-1.498469902E0,-3.891959363E-1,-3.801277819E-1,1.594171463E0
1.048061421E1,-2.245833963E0,-6.079315031E-1,-3.578905284E-1,2.354025602E0
1.049060021E1,-3.148411049E0,-9.125094581E-1,-2.846178997E-1,3.290315029E0
1.050058521E1,-4.260815760E0,-1.283886589E0,-1.409234521E-1,4.452277522E0
1.051057121E1,-5.828232667E0,-1.749858806E0,1.557891208E-1,6.087246677E0
1.052055621E1,-8.112925179E0,-2.321637560E0,4.640274328E-1,8.451324001E0
1.053054221E1,-1.087997965E1,-3.057569876E0,6.575047821E-1,1.132055667E1
1.054052721E1,-1.377195755E1,-3.972122351E0,7.709141609E-1,1.435405446E1
1.055051321E1,-1.680223847E1,-4.890906456E0,8.010966110E-1,1.751793194E1
1.056049921E1,-1.924399714E1,-5.955003226E0,7.430115402E-1,2.015801467E1
1.057048421E1,-2.061640999E1,-7.139368451E0,7.961937207E-1,2.183210634E1
1.058047021E1,-2.065265103E1,-8.355768816E0,1.242730670E0,2.231356642E1
1.059045521E1,-1.922145963E1,-9.654811388E0,2.208744782E0,2.162309984E1
1.060044121E1,-1.700750030E1,-1.063983451E1,3.388834231E0,2.034564676E1
1.061042721E1,-1.469171522E1,-1.157756768E1,4.600982501E0,1.926280378E1
1.062041221E1,-1.261349315E1,-1.256612720E1,5.858144099E0,1.874368199E1
1.063039821E1,-1.061669123E1,-1.347297889E1,7.035394431E0,1.854001261E1
1.064038321E1,-8.886077362E0,-1.404304616E1,8.134787334E0,1.850254797E1
1.065036921E1,-7.644319961E0,-1.453384156E1,9.068653747E0,1.875922864E1
1.066035421E1,-6.713730912E0,-1.520458386E1,9.906088464E0,1.934900880E1
1.067034021E1,-6.008694114E0,-1.590557380E1,1.032225585E1,1.989071765E1
1.068032621E1,-5.159073799E0,-1.667717588E1,1.031806223E1,2.027823084E1
1.069031121E1,-3.958187267E0,-1.739635417E1,9.701238281E0,2.030798880E1
1.070029721E1,-2.558863776E0,-1.762640235E1,8.612252837E0,1.978405273E1
1.071028221E1,-1.784953794E0,-1.744979422E1,8.043409971E0,1.929709362E1
1.072026821E1,-1.616138247E0,-1.735571018E1,7.902777418E0,1.913861201E1
1.073025421E1,-1.863039266E0,-1.745392235E1,7.766420934E0,1.919446834E1
1.074023921E1,-2.416168910E0,-1.756767876E1,7.468224630E0,1.924150692E1
1.075022521E1,-1.829119568E0,-1.751582565E1,7.240520019E0,1.904140113E1
1.076021021E1,2.192413509E-2,-1.717390153E1,7.361628134E0,1.868520654E1
1.077019621E1,2.149556342E0,-1.636633205E1,7.263132371E0,1.803414842E1
1.078018121E1,4.272142401E0,-1.528709392E1,6.648095332E0,1.720882369E1
1.079016721E1,5.290529147E0,-1.453677102E1,6.218850646E0,1.667277762E1
1.080015321E1,5.374602168E0,-1.434146934E1,6.633542781E0,1.669035593E1
1.081013821E1,6.015144178E0,-1.444716712E1,7.733927372E0,1.745612299E1
1.082012421E1,8.446146889E0,-1.504175411E1,7.997310523E0,1.901443503E1
1.083010921E1,1.407040295E1,-1.501494345E1,6.413698583E0,2.155366084E1
1.084009521E1,2.188054760E1,-1.348665202E1,4.397083074E0,2.607647380E1
1.085008121E1,2.855994133E1,-1.136077749E1,3.688568645E0,3.095711634E1
1.086006621E1,3.194118500E1,-9.105598794E0,4.520360214E0,3.351991773E1
1.087005221E1,3.186523668E1,-7.362312843E0,6.074617378E0,3.326406372E1
1.088003721E1,3.005726357E1,-6.704413959E0,6.374556152E0,3.144873965E1
1.089002321E1,2.846142978E1,-6.801114042E0,4.569509570E0,2.961736914E1
1.090000821E1,2.787457983E1,-7.022993656E0,1.913706267E0,2.880931988E1
1.090999421E1,2.737608364E1,-6.920244044E0,-1.282235920E-2,2.823720768E1
1.091998021E1,2.599927953E1,-6.782328107E0,-3.791814101E-1,2.687203545E1
1.092996521E1,2.392956166E1,-6.590455234E0,3.847976607E-1,2.482349876E1
1.093995121E1,2.153731371E1,-6.205213770E0,1.390953786E0,2.245652048E1
1.094993621E1,1.864915872E1,-6.208661288E0,2.430604224E0,1.980521226E1
1.095992221E1,1.574154186E1,-6.591479082E0,3.305383646E0,1.738301751E1
1.096990721E1,1.345777145E1,-7.077807210E0,3.694128177E0,1.564779698E1
1.097989321E1,1.190823591E1,-7.581141381E0,3.792416072E0,1.461718875E1
1.098987921E1,1.095854752E1,-7.993871191E0,3.951150143E0,1.412810418E1
1.099986421E1,1.043147132E1,-8.263496245E0,4.497597296E0,1.404739639E1
1.100985021E1,9.701528302E0,-8.626496070E0,5.437052186E0,1.407471571E1
1.101983521E1,8.911775874E0,-8.970315859E0,6.420417033E0,1.418125773E1
1.102982121E1,8.157917749E0,-9.521470898E0,7.469216902E0,1.459449318E1
1.103980721E1,7.333992439E0,-1.008640490E1,8.320072734E0,1.499155159E1
1.104979221E1,7.061494063E0,-1.055878040E1,8.870299820E0,1.549305525E1
1.105977821E1,6.906707155E0,-1.107340672E1,9.483600821E0,1.613262609E1
1.106976321E1,6.465162266E0,-1.174418877E1,1.025013396E1,1.687570855E1
1.107974921E1,5.764690390E0,-1.266077491E1,1.095735235E1,1.770848517E1
1.108973421E1,4.397092722E0,-1.375294474E1,1.154831172E1,1.848895393E1
1.109972021E1,2.888812215E0,-1.439675593E1,1.181585225E1,1.884744496E1
1.110970621E1,1.908908919E0,-1.509233603E1,1.191313822E1,1.932214797E1
1.111969121E1,1.481564578E0,-1.597190110E1,1.152953865E1,1.975416209E1
1.112967721E1,7.038837272E-1,-1.656360658E1,1.106932068E1,1.993435165E1
1.113966221E1,-5.021121025E-1,-1.708275864E1,1.091727203E1,2.027953618E1
1.114964821E1,-1.560357563E0,-1.753767787E1,1.074265195E1,2.062545591E1
1.115963421E1,-2.423532894E0,-1.774345425E1,1.040438818E1,2.071122821E1
1.116961921E1,-3.028219192E0,-1.767029974E1,9.896456931E0,2.047802393E1
1.117960521E1,-3.538410100E0,-1.788819973E1,9.529953454E0,2.057493739E1
1.118959021E1,-4.426415631E0,-1.798498986E1,9.000961701E0,2.059296791E1
1.119957621E1,-5.468598499E0,-1.761180185E1,8.178927380E0,2.017364585E1
1.120956121E1,-6.376171153E0,-1.676458240E1,7.090270550E0,1.928674981E1
1.121954721E1,-7.512550033E0,-1.568618510E1,6.239817592E0,1.847782819E1
1.122953321E1,-8.905670212E0,-1.446306453E1,5.573710971E0,1.787616993E1
1.123951821E1,-9.852747824E0,-1.327836016E1,4.715710427E0,1.719387720E1
1.124950421E1,-1.038133612E1,-1.195432601E1,3.571058029E0,1.623054236E1
1.125948921E1,-1.076540229E1,-1.064892810E1,2.512312631E0,1.534943878E1
1.126947521E1,-1.137858577E1,-9.352205114E0,1.697467169E0,1.482623854E1
1.127946021E1,-1.214806999E1,-8.481876885E0,1.313234057E0,1.487422010E1
1.128944621E1,-1.308754798E1,-8.445484985E0,9.727480584E-1,1.560629256E1
1.129943221E1,-1.424509319E1,-7.420271614E0,-1.611796689E-1,1.606266135E1
1.130941721E1,-1.459966016E1,-6.079909692E0,-1.141753641E0,1.585619690E1
1.131940321E1,-1.448844378E1,-5.432822310E0,-1.636126661E0,1.555980308E1
1.132938821E1,-1.381264949E1,-4.923980062E0,-2.137214039E0,1.481899287E1
1.133937421E1,-1.241909896E1,-4.224789895E0,-2.465033799E0,1.334763126E1
1.134936021E1,-1.072635459E1,-3.641711397E0,-2.323838744E0,1.156360546E1
1.135934521E1,-9.121219631E0,-3.019945967E0,-1.859361075E0,9.786416341E0
1.136933121E1,-7.770727408E0,-2.368662622E0,-1.170780973E0,8.207648576E0
1.137931621E1,-6.329896873E0,-1.865995034E0,-4.173628512E-1,6.612391673E0
1.138930221E1,-5.180538343E0,-1.366100196E0,1.032179743E-2,5.357640694E0
1.139928721E1,-4.325862526E0,-1.011774715E0,1.850406942E-1,4.446460921E0
1.140927321E1,-3.494365948E0,-8.962325639E-1,3.283857706E-1,3.622383663E0
1.141925921E1,-2.894373502E0,-7.820083755E-1,4.528124732E-1,3.032156692E0
1.142924421E1,-2.572290738E0,-7.558637202E-1,5.900600731E-1,2.745210464E0
1.143923021E1,-2.438271093E0,-7.708097881E-1,6.815406391E-1,2.646471480E0
1.144921521E1,-2.427024851E0,-7.909435058E-1,6.769365415E-1,2.640887036E0
1.145920087E1,-2.442051026E0,-5.436723572E-1,5.320188564E-1,2.557779683E0
1.146918687E1,-2.412012125E0,-1.338930523E-1,3.362242556E-1,2.439011396E0
1.147917187E1,-2.212183237E0,6.531749189E-2,2.069092807E-1,2.222798349E0
1.148915787E1,-1.765518234E0,1.927593112E-1,2.287869304E-2,1.776157150E0
1.149914287E1,-1.015372799E0,4.194365662E-1,-7.000432760E-2,1.100822220E0
1.150912887E1,-1.084746212E-1,5.463369334E-1,-2.795524567E-2,5.577026842E-1
1.151911387E1,6.405060491E-1,6.438322377E-1,3.793410391E-2,9.089592650E-1
1.152909987E1,1.161359355E0,8.116771477E-1,-7.881257325E-2,1.419079549E0
1.153908587E1,1.482171958E0,9.014617288E-1,-1.992371491E-1,1.746185100E0
1.154907087E1,1.697853816E0,9.004063064E-1,-2.497334111E-1,1.937990164E0
1.155905687E1,1.795976673E0,9.538785088E-1,-2.680191162E-1,2.051158372E0
1.156904187E1,1.712076584E0,1.010523410E0,-1.199073896E-1,1.991668038E0
1.157902787E1,1.442694335E0,9.500000507E-1,1.774936929E-1,1.736482379E0
1.158901287E1,1.127406182E0,8.889334846E-1,3.816126823E-1,1.485555680E0
1.159899887E1,8.351148346E-1,8.772542560E-1,4.665826660E-1,1.297956548E0
1.160898487E1,7.047928230E-1,7.419964635E-1,5.188643754E-1,1.147393531E0
1.161896987E1,5.474189606E-1,5.457498729E-1,5.359043312E-1,9.405869946E-1
1.162895587E1,1.682129923E-1,3.543517935E-1,5.269241774E-1,6.568941262E-1
1.163894087E1,-4.151293610E-1,1.260770792E-1,5.212626109E-1,6.781906264E-1
1.164892687E1,-1.075870869E0,-1.280089992E-1,4.589614052E-1,1.176660530E0
1.165891287E1,-1.824940271E0,-3.543664116E-1,2.913421977E-1,1.881718051E0
1.166889787E1,-2.550754273E0,-6.590735900E-1,1.452156007E-1,2.638524764E0
1.167888387E1,-3.221542760E0,-1.014021215E0,8.758573562E-2,3.378497897E0
1.168886887E1,-3.988757972E0,-1.429884548E0,8.231359363E-2,4.238105179E0
1.169885487E1,-4.859732318E0,-1.969498937E0,1.097075066E-1,5.244803143E0
1.170883987E1,-5.881039456E0,-2.504125652E0,1.079264447E-1,6.392880296E0
1.171882587E1,-7.105445244E0,-3.018202327E0,2.155038106E-1,7.722910028E0
1.172881187E1,-8.769721863E0,-3.606059169E0,6.374426928E-1,9.503579193E0
1.173879687E1,-1.089437667E1,-4.250606521E0,1.024122280E0,1.173899166E1
1.174878287E1,-1.327880104E1,-4.912002625E0,1.108596127E0,1.420152500E1
1.175876787E1,-1.513511543E1,-5.583795079E0,9.612696818E-1,1.616089496E1
1.176875387E1,-1.591536204E1,-6.433305466E0,9.699001721E-1,1.719380337E1
1.177873888E1,-1.588646276E1,-7.509486676E0,1.300675992E0,1.761998431E1
1.178872487E1,-1.510641495E1,-8.634149491E0,1.705066795E0,1.748312223E1
1.179871087E1,-1.390771002E1,-9.628263275E0,2.123656100E0,1.704810156E1
1.180869587E1,-1.276189783E1,-1.054237779E1,2.756806937E0,1.678117249E1
1.181868187E1,-1.179418948E1,-1.148967935E1,3.512779415E0,1.683612950E1
1.182866687E1,-1.101298276E1,-1.258006462E1,4.063244483E0,1.720621315E1
1.183865287E1,-1.051597411E1,-1.370033384E1,4.667069194E0,1.789039948E1
1.184863887E1,-1.008395375E1,-1.474109495E1,5.398016174E0,1.865809696E1
1.185862387E1,-9.504781190E0,-1.571507736E1,6.228576905E0,1.939328987E1
1.186860987E1,-9.028389235E0,-1.653346770E1,7.076459427E0,2.012321158E1
1.187859487E1,-8.494960615E0,-1.726855392E1,7.622019850E0,2.069933566E1
1.188858087E1,-7.527573284E0,-1.797879649E1,8.211538471E0,2.115019733E1
1.189856587E1,-6.518207622E0,-1.825278766E1,9.043145853E0,2.138760798E1
1.190855187E1,-5.574134309E0,-1.851131412E1,1.006629633E1,2.179610161E1
1.191853787E1,-4.100896166E0,-1.898797914E1,1.082890189E1,2.224018474E1
1.192852287E1,-2.077344983E0,-1.908340219E1,1.071191313E1,2.198264507E1
1.193850887E1,-1.478760839E-3,-1.845033701E1,9.932683940E0,2.095407236E1
1.194849387E1,1.235079296E0,-1.767638552E1,9.438634563E0,2.007654971E1
1.195847988E1,1.137919621E0,-1.723355015E1,9.904596255E0,1.990957405E1
1.196846487E1,1.766722176E0,-1.707593845E1,1.039837140E1,2.007075257E1
1.197845087E1,3.939724098E0,-1.704379046E1,1.023673448E1,2.026827452E1
1.198843687E1,7.803255469E0,-1.684128267E1,9.582076703E0,2.088865223E1
1.199842187E1,1.403659201E1,-1.556653586E1,7.277064532E0,2.218780345E1
1.200840787E1,2.047682759E1,-1.301835320E1,4.750016626E0,2.472530376E1
1.201839287E1,2.399459205E1,-1.011840203E1,4.145262792E0,2.636865016E1
1.202837887E1,2.372094704E1,-8.070017726E0,5.645724694E0,2.568428940E1
1.203836487E1,2.137532946E1,-7.531848768E0,7.345517886E0,2.382414927E1
1.204834987E1,2.045879010E1,-7.359026708E0,6.927559496E0,2.281903694E1
1.205833587E1,2.151595500E1,-7.020346037E0,4.627667439E0,2.310058189E1
1.206832087E1,2.309897169E1,-6.805425194E0,2.687480594E0,2.423012293E1
1.207830687E1,2.430557739E1,-6.108104382E0,1.750237706E0,2.512236779E1
1.208829187E1,2.458469539E1,-5.277693340E0,1.914639190E0,2.521759580E1
1.209827787E1,2.396130970E1,-4.955549179E0,2.836741883E0,2.463227425E1
1.210826387E1,2.332972387E1,-4.517220552E0,3.655910191E0,2.404260753E1
1.211824887E1,2.289903200E1,-4.167928061E0,4.106737534E0,2.363477489E1
1.212823487E1,2.205351760E1,-4.042024352E0,4.193945832E0,2.280975188E1
1.213821987E1,2.045767679E1,-4.153872524E0,4.052133311E0,2.126478265E1
1.214820587E1,1.804017589E1,-4.551907989E0,3.619590796E0,1.895439922E1
1.215819187E1,1.536092788E1,-5.085215864E0,3.144246662E0,1.648344056E1
1.216817687E1,1.284098843E1,-5.693809272E0,3.051817970E0,1.437442315E1
1.217816287E1,1.097622950E1,-6.045852585E0,2.771756220E0,1.283403990E1
1.218814787E1,1.003688834E1,-6.243506600E0,2.555582319E0,1.209344877E1
1.219813387E1,9.458264251E0,-6.392109493E0,2.916561054E0,1.178236626E1
1.220811887E1,9.019979185E0,-6.418029031E0,3.641628367E0,1.165386538E1
1.221810487E1,8.447779432E0,-6.605316517E0,4.565667365E0,1.165506337E1
1.222809087E1,7.694234717E0,-6.880239733E0,5.523989173E0,1.170698095E1
1.223807587E1,7.373614342E0,-7.211486254E0,6.327438118E0,1.210009073E1
1.224806187E1,7.140876448E0,-7.623095738E0,6.873082157E0,1.250371798E1
1.225804687E1,6.799376249E0,-8.106668658E0,7.262963387E0,1.283355879E1
1.226803287E1,6.161339772E0,-8.906312236E0,7.706212154E0,1.329173469E1
1.227801887E1,4.988278384E0,-9.791676580E0,8.249124958E0,1.374073921E1
1.228800387E1,3.949127591E0,-1.027160259E1,8.658145879E0,1.400231833E1
1.229798987E1,3.178917142E0,-1.050478955E1,9.034428824E0,1.421537977E1
1.230797487E1,2.608695502E0,-1.101740910E1,9.483268114E0,1.476891904E1
1.231796087E1,2.339175698E0,-1.157373542E1,9.590106100E0,1.521161495E1
1.232794587E1,2.189650699E0,-1.214877867E1,9.594365212E0,1.563455267E1
1.233793187E1,1.702046124E0,-1.303145330E1,9.880615654E0,1.644208934E1
1.234791787E1,1.206982255E0,-1.377543431E1,1.004536914E1,1.709177690E1
1.235790287E1,5.668290854E-1,-1.450983991E1,9.928622464E0,1.759074454E1
1.236788887E1,-3.192953968E-1,-1.509605369E1,9.725694845E0,1.796056588E1
1.237787387E1,-8.677408361E-1,-1.576356715E1,9.498857961E0,1.842474765E1
1.238785987E1,-1.569798478E0,-1.650043561E1,8.959914247E0,1.884167471E1
1.239784487E1,-2.899993553E0,-1.697715559E1,8.309742458E0,1.912290758E1
1.240783087E1,-4.163473068E0,-1.705782027E1,7.373233688E0,1.904385243E1
1.241781687E1,-4.843603066E0,-1.662528301E1,6.256478648E0,1.841206265E1
1.242780187E1,-4.801870319E0,-1.586379544E1,5.116293815E0,1.734630874E1
1.243778787E1,-4.659182469E0,-1.510516716E1,4.088762316E0,1.632764629E1
1.244777287E1,-5.045532566E0,-1.437444413E1,3.579080409E0,1.564902104E1
1.245775883E1,-5.780943895E0,-1.328307185E1,3.706053281E0,1.495306460E1
1.246774483E1,-7.212200784E0,-1.228431947E1,4.210249039E0,1.485417591E1
1.247772983E1,-9.647402381E0,-1.129164352E1,4.225442736E0,1.544111241E1
1.248771583E1,-1.315013306E1,-1.038778443E1,4.185556247E0,1.727283839E1
1.249770083E1,-1.719420423E1,-8.987409024E0,3.876829108E0,1.978494337E1
1.250768683E1,-1.973340792E1,-7.007392116E0,2.090149508E0,2.104470616E1
1.251767183E1,-1.921472247E1,-5.591542640E0,-4.378418469E-1,2.001655850E1
1.252765783E1,-1.591546378E1,-5.008839533E0,-2.447602957E0,1.686360641E1
1.253764383E1,-1.172018829E1,-4.661067612E0,-3.315968276E0,1.304162607E1
1.254762883E1,-8.725734429E0,-4.285845351E0,-3.066127276E0,1.019352972E1
1.255761483E1,-7.085883969E0,-3.828668516E0,-2.036338459E0,8.307534445E0
1.256759983E1,-6.357694536E0,-2.914579141E0,-8.077235529E-1,7.040416800E0
1.257758583E1,-5.832694677E0,-2.040212240E0,4.990113240E-1,6.199339116E0
1.258757083E1,-5.345056188E0,-1.427714061E0,1.472991391E0,5.725180934E0
1.259755683E1,-4.925492737E0,-1.003911379E0,1.712708814E0,5.310526173E0
1.260754283E1,-4.438948846E0,-7.093578905E-1,1.438719398E0,4.719890780E0
1.261752783E1,-3.848381234E0,-5.598223668E-1,9.359559157E-1,3.999931585E0
1.262751383E1,-3.205497707E0,-4.910585260E-1,6.101397040E-1,3.299791582E0
1.263749883E1,-2.493442789E0,-4.250855613E-1,5.357631209E-1,2.585536075E0
1.264748483E1,-1.764802535E0,-4.647209126E-1,4.204414102E-1,1.872769205E0
1.265747083E1,-1.198965722E0,-4.871046388E-1,2.927832440E-1,1.326842779E0
1.266745583E1,-9.416668913E-1,-2.634094638E-1,2.948821020E-1,1.021311184E0
1.267744183E1,-8.438520366E-1,-1.857601941E-2,5.862760475E-1,1.027692041E0
1.268742683E1,-7.993550178E-1,1.384152889E-1,8.842554197E-1,1.200014535E0
1.269741283E1,-8.227886117E-1,2.103676164E-1,1.032085311E0,1.336576119E0
1.270739783E1,-7.332741719E-1,2.965894890E-1,9.610261452E-1,1.244679713E0
1.271738383E1,-7.490002584E-1,3.092627442E-1,6.405905414E-1,1.032957440E0
1.272736983E1,-6.857041490E-1,2.522716874E-1,2.362672734E-1,7.678889299E-1
1.273735483E1,-5.559971184E-1,1.953443652E-1,-1.104843092E-1,5.995823540E-1
1.274734083E1,-4.915157783E-1,2.361731333E-1,-4.666189188E-1,7.177037861E-1
1.275732583E1,-4.113732558E-1,1.945240009E-1,-7.151483881E-1,8.476466007E-1
1.276731183E1,-4.239055932E-1,5.681856394E-2,-8.978200829E-1,9.944874068E-1
1.277729683E1,-3.917014682E-1,-1.068064106E-1,-1.116364446E0,1.187900343E0
1.278728283E1,-4.056850845E-1,-2.434412223E-1,-1.179949992E0,1.271269445E0
1.279726883E1,-5.469713563E-1,-3.604410839E-1,-1.108513974E0,1.287594140E0
1.280725383E1,-8.059193945E-1,-4.908772624E-1,-1.025827328E0,1.393839397E0
1.281723983E1,-1.244789767E0,-6.893066186E-1,-1.002220657E0,1.740428517E0
1.282722483E1,-1.908048501E0,-1.019851474E0,-9.234937450E-1,2.352357713E0
1.283721083E1,-2.681865220E0,-1.419418032E0,-7.917191389E-1,3.135915784E0
1.284719683E1,-3.659231994E0,-1.859513980E0,-5.722088161E-1,4.144296558E0
1.285718183E1,-4.882230065E0,-2.426168234E0,-2.810560682E-1,5.459070912E0
1.286716783E1,-6.372403207E0,-3.090160502E0,-7.611086726E-2,7.082542440E0
1.287715283E1,-8.129484494E0,-3.732750791E0,1.320503023E-1,8.946473265E0
1.288713883E1,-9.864719414E0,-4.197639518E0,4.063238928E-1,1.072837200E1
1.289712383E1,-1.127741490E1,-4.542534025E0,7.616498324E-1,1.218174095E1
1.290710983E1,-1.229623376E1,-5.091265978E0,1.180105528E0,1.336080098E1
1.291709583E1,-1.263105000E1,-5.707353178E0,1.629281910E0,1.395606907E1
1.292708083E1,-1.241087076E1,-6.323394184E0,2.191835804E0,1.410032522E1
1.293706683E1,-1.196577486E1,-6.977673057E0,2.783036377E0,1.412844580E1
1.294705183E1,-1.134882812E1,-7.722391400E0,3.234253729E0,1.410289423E1
1.295703783E1,-1.099992710E1,-8.476120886E0,3.614706616E0,1.434953398E1
1.296702283E1,-1.081391313E1,-9.130151837E0,3.871323370E0,1.467267987E1
1.297700883E1,-1.060662583E1,-9.822529414E0,3.950428011E0,1.498627629E1
1.298699483E1,-1.028020502E1,-1.059647156E1,3.910943811E0,1.527295996E1
1.299697983E1,-9.683346385E0,-1.134724235E1,4.013440239E0,1.544780919E1
1.300696583E1,-9.112224274E0,-1.228743253E1,4.207924186E0,1.586569429E1
1.301695083E1,-8.824827778E0,-1.318679744E1,4.251508162E0,1.642694536E1
1.302693683E1,-8.554829671E0,-1.388141392E1,4.517472274E0,1.691999760E1
1.303692183E1,-8.403120153E0,-1.452471523E1,5.128924971E0,1.754667069E1
1.304690783E1,-7.848646819E0,-1.505505769E1,6.111183525E0,1.804446128E1
1.305689383E1,-6.886057128E0,-1.566854990E1,7.205837259E0,1.857001156E1
1.306687883E1,-5.936069942E0,-1.627277777E1,8.121422938E0,1.913106723E1
1.307686483E1,-4.990399754E0,-1.662431822E1,8.964628272E0,1.953552165E1
1.308684983E1,-4.191078942E0,-1.659026287E1,1.001174765E1,1.982516219E1
1.309683583E1,-3.071462275E0,-1.640485000E1,1.126524451E1,2.013600551E1
1.310682183E1,-1.589966109E0,-1.653813377E1,1.203282488E1,2.051406190E1
1.311680683E1,7.662255710E-1,-1.678603116E1,1.116931859E1,2.017700725E1
1.312679283E1,3.492349536E0,-1.630161975E1,9.428886670E0,1.915315158E1
1.313677783E1,6.515305064E0,-1.572537197E1,8.248957143E0,1.891512140E1
1.314676383E1,9.043410732E0,-1.485947067E1,7.552830917E0,1.896397640E1
1.315674883E1,1.049430433E1,-1.388536313E1,7.440460296E0,1.892866033E1
1.316673483E1,1.257174871E1,-1.277128611E1,7.348722160E0,1.936900442E1
1.317672083E1,1.634877754E1,-1.124725145E1,6.785447012E0,2.097201668E1
1.318670583E1,2.015673697E1,-1.006104436E1,5.987472814E0,2.331026576E1
1.319669183E1,2.242317156E1,-9.029555755E0,5.129894439E0,2.471127914E1
1.320667683E1,2.324986260E1,-7.776859968E0,4.919587634E0,2.500475963E1
1.321666283E1,2.299955499E1,-6.857135046E0,5.204696115E0,2.455786417E1
1.322664883E1,2.192892045E1,-6.382116601E0,4.528654490E0,2.328342062E1
1.323663383E1,2.086319289E1,-6.072712939E0,3.006651737E0,2.193605741E1
1.324661983E1,2.010931372E1,-6.204850073E0,2.170962706E0,2.115650589E1
1.325660483E1,1.999137304E1,-6.330422537E0,1.572859203E0,2.102862648E1
1.326659083E1,2.094464461E1,-5.869498222E0,1.032835508E0,2.177603950E1
1.327657583E1,2.210114200E1,-5.221648947E0,1.230232246E0,2.274290146E1
1.328656183E1,2.226393784E1,-4.688114200E0,1.903908380E0,2.283169310E1
1.329654783E1,2.158322604E1,-4.280888959E0,2.701449299E0,2.216888552E1
1.330653283E1,2.012171215E1,-4.296592534E0,3.513648019E0,2.087318207E1
1.331651883E1,1.801736239E1,-4.836093487E0,4.070796454E0,1.909409677E1
1.332650383E1,1.620241940E1,-5.597986856E0,4.111872559E0,1.762848113E1
1.333648983E1,1.510436843E1,-6.091205344E0,3.543460633E0,1.666735856E1
1.334647483E1,1.406710746E1,-6.694057370E0,3.261331600E0,1.591635009E1
1.335646083E1,1.288689375E1,-7.341434190E0,3.310050893E0,1.519622070E1
1.336644683E1,1.159283944E1,-7.980215018E0,3.569682179E0,1.451965526E1
1.337643183E1,1.028238954E1,-8.628941376E0,4.159487313E0,1.405302453E1
1.338641783E1,9.345949763E0,-9.028855258E0,5.061805952E0,1.394592714E1
1.339640283E1,8.682804757E0,-9.236163611E0,6.138403484E0,1.408466592E1
1.340638883E1,8.195512422E0,-9.450021431E0,7.177344947E0,1.442163685E1
1.341637383E1,7.962799671E0,-9.828773071E0,8.323545980E0,1.514240326E1
1.342635983E1,7.437319756E0,-1.078415665E1,9.442320063E0,1.614834877E1
1.343634583E1,6.332342763E0,-1.207201292E1,1.021106988E1,1.703226376E1
1.344633083E1,4.884358744E0,-1.329022066E1,1.071154008E1,1.775454917E1
1.345631725E1,3.486880635E0,-1.422242003E1,1.104462087E1,1.834173433E1
1.346630225E1,2.215566144E0,-1.500227955E1,1.134497363E1,1.893899553E1
1.347628825E1,1.089363173E0,-1.569684574E1,1.159625655E1,1.954612096E1
1.348627425E1,3.533916807E-1,-1.625139801E1,1.158626015E1,1.996181974E1
1.349625925E1,-6.018597543E-2,-1.678135222E1,1.142698317E1,2.030254538E1
1.350624525E1,-5.554468954E-1,-1.729637380E1,1.120158353E1,2.061428004E1
1.351623025E1,-1.145878851E0,-1.811238432E1,1.068568837E1,2.106075593E1
1.352621625E1,-2.450010840E0,-1.928581058E1,9.938097292E0,2.183370835E1
1.353620125E1,-4.736510727E0,-2.012024567E1,8.779017767E0,2.245729219E1
1.354618725E1,-6.982433860E0,-2.006998768E1,6.995593604E0,2.237179291E1
1.355617325E1,-1.018453287E1,-1.895321159E1,5.269375091E0,2.215209366E1
1.356615825E1,-1.394748629E1,-1.739525841E1,3.739722426E0,2.260780645E1
1.357614425E1,-1.695706339E1,-1.549787669E1,2.304643797E0,2.308760628E1
1.358612925E1,-1.833593039E1,-1.299294938E1,8.343611285E-1,2.248820214E1
1.359611525E1,-1.751986257E1,-1.063550172E1,-4.090954730E-1,2.049943512E1
1.360610025E1,-1.498275102E1,-9.076670280E0,-1.490622500E0,1.758097628E1
1.361608625E1,-1.219683109E1,-7.876898811E0,-2.386971424E0,1.471413797E1
1.362607225E1,-1.012390309E1,-6.733216174E0,-2.806301278E0,1.247817858E1
1.363605725E1,-8.880388606E0,-5.831563241E0,-2.653048972E0,1.095021006E1
1.364604325E1,-8.343021301E0,-5.084785509E0,-2.249347555E0,1.002599683E1
1.365602825E1,-8.152525447E0,-4.407772661E0,-1.965326949E0,9.473892601E0
1.366601425E1,-8.358064433E0,-4.124521841E0,-1.761099201E0,9.485272367E0
1.367600025E1,-9.313533384E0,-4.192336679E0,-1.810916601E0,1.037289785E1
1.368598525E1,-1.042873365E1,-3.620646218E0,-2.500205094E0,1.131894828E1
1.369597125E1,-1.073600483E1,-2.835593197E0,-3.088573275E0,1.152569622E1
1.370595625E1,-1.035137966E1,-2.498219379E0,-3.008585119E0,1.106543020E1
1.371594225E1,-9.203135614E0,-2.177872653E0,-2.801680808E0,9.863581995E0
1.372592725E1,-7.427011115E0,-1.604873001E0,-2.425962996E0,7.976302897E0
1.373591325E1,-5.499839587E0,-1.141663594E0,-1.512556576E0,5.817169298E0
1.374589925E1,-3.659222639E0,-5.921878749E-1,-5.172598994E-1,3.742746933E0
1.375588425E1,-2.179774752E0,-3.579022229E-2,3.694270849E-1,2.211147956E0
1.376587025E1,-1.239855740E0,3.173225462E-1,1.295762577E0,1.821245867E0
1.377585525E1,-6.433460417E-1,6.947883832E-1,1.932724921E0,2.152219934E0
1.378584125E1,-2.690214752E-1,8.839767998E-1,2.138731099E0,2.329797899E0
1.379582625E1,-4.212334156E-3,8.253175324E-1,1.913718839E0,2.084103300E0
1.380581225E1,6.827896044E-2,7.831240243E-1,1.481636792E0,1.677257534E0
1.381579825E1,-2.148679259E-1,7.706004578E-1,9.757111350E-1,1.261747007E0
1.382578325E1,-5.288619447E-1,7.125978327E-1,4.325474855E-1,9.872122137E-1
1.383576925E1,-5.072167218E-1,5.955196184E-1,5.968691558E-2,7.845221135E-1
1.384575425E1,-3.418947391E-1,5.208261162E-1,-7.094309807E-2,6.270444794E-1
1.385574025E1,-2.235621509E-1,5.573770612E-1,3.825628549E-2,6.017580636E-1
1.386572525E1,-1.555964550E-1,5.774949914E-1,2.819606325E-1,6.612204778E-1
1.387571125E1,-5.356298044E-2,5.866634256E-1,5.683438066E-1,8.185704919E-1
1.388569725E1,8.631001934E-2,6.384510452E-1,6.277956641E-1,8.995535294E-1
1.389568225E1,2.777152616E-1,6.474879169E-1,4.879223719E-1,8.569916045E-1
1.390566825E1,2.835977067E-1,6.013943160E-1,2.526391849E-1,7.112871011E-1
1.391565325E1,2.226457460E-1,5.183889967E-1,-2.881010860E-2,5.649144205E-1
1.392563925E1,5.904927671E-2,3.617602158E-1,-3.275151202E-1,4.915520570E-1
1.393562525E1,-1.361303432E-1,1.418891197E-1,-5.283845195E-1,5.637855914E-1
1.394561025E1,-3.920544939E-1,-1.203473926E-2,-5.702801120E-1,6.921495267E-1
1.395559625E1,-7.053525478E-1,-1.629958141E-1,-4.782610175E-1,8.676539938E-1
1.396558125E1,-9.505302469E-1,-3.167863566E-1,-3.372945884E-1,1.057179732E0
1.397556725E1,-1.270559615E0,-4.800517273E-1,-1.964138210E-1,1.372351918E0
1.398555225E1,-1.846465626E0,-7.000029302E-1,-7.904295355E-2,1.976281154E0
1.399553825E1,-2.613203121E0,-1.083276806E0,8.124998510E-3,2.828848742E0
1.400552425E1,-3.566741906E0,-1.515639228E0,5.490710914E-2,3.875799903E0
1.401550925E1,-4.945180897E0,-1.982325389E0,5.970971972E-2,5.328038410E0
1.402549525E1,-6.583976519E0,-2.506021904E0,-4.114013225E-2,7.044897806E0
1.403548025E1,-8.473173305E0,-3.190958313E0,-3.013499996E-1,9.059122067E0
1.404546625E1,-1.039347728E1,-3.871463118E0,-7.855105653E-1,1.111888589E1
1.405545125E1,-1.195207483E1,-4.460386493E0,-1.434834508E0,1.283767465E1
1.406543725E1,-1.282864028E1,-4.992467330E0,-1.821072630E0,1.388578579E1
1.407542325E1,-1.289465418E1,-5.585412419E0,-1.715996118E0,1.415675037E1
1.408540825E1,-1.252908158E1,-6.217312828E0,-1.292904750E0,1.404651084E1
1.409539425E1,-1.214685143E1,-6.690740830E0,-6.791084898E-1,1.388427891E1
1.410537925E1,-1.181159781E1,-7.214733213E0,-4.053874612E-2,1.384080423E1
1.411536525E1,-1.152288803E1,-7.981238866E0,5.060493252E-1,1.402616157E1
1.412535025E1,-1.127135602E1,-8.778430706E0,7.340886891E-1,1.430535558E1
1.413533625E1,-1.104057460E1,-9.610658478E0,6.902496283E-1,1.465385575E1
1.414532225E1,-1.092890448E1,-1.062015746E1,7.718159477E-1,1.525858438E1
1.415530725E1,-1.085607390E1,-1.179031161E1,1.114625338E0,1.606574548E1
1.416529325E1,-1.084389766E1,-1.293656234E1,1.654650933E0,1.696120961E1
1.417527825E1,-1.067286426E1,-1.386808695E1,2.403223175E0,1.766378636E1
1.418526425E1,-1.013796916E1,-1.475656669E1,3.383632840E0,1.822041850E1
1.419525025E1,-9.625567124E0,-1.563638787E1,4.503273481E0,1.890575680E1
1.420523525E1,-9.217283537E0,-1.639458931E1,5.598749918E0,1.962363053E1
1.421522125E1,-8.687904698E0,-1.690829059E1,6.681485272E0,2.014974502E1
1.422520625E1,-7.983314627E0,-1.724598016E1,7.702675173E0,2.050581256E1
1.423519225E1,-7.118875129E0,-1.759042911E1,8.769116676E0,2.090452072E1
1.424517725E1,-5.950616060E0,-1.797837199E1,9.833691748E0,2.133853754E1
1.425516325E1,-4.689635938E0,-1.839081821E1,1.078270771E1,2.182845998E1
1.426514925E1,-3.044042342E0,-1.886023736E1,1.151455692E1,2.230604779E1
1.427513425E1,-2.408889127E-1,-1.885349318E1,1.190820083E1,2.230061612E1
1.428512025E1,4.217552211E0,-1.824012026E1,1.139685247E1,2.191752677E1
1.429510525E1,1.065832457E1,-1.692350037E1,8.951701248E0,2.191204469E1
1.430509125E1,1.734776147E1,-1.484341070E1,6.780931208E0,2.381706736E1
1.431507625E1,2.083839602E1,-1.274275755E1,7.358928475E0,2.551020280E1
1.432506225E1,2.107228231E1,-1.113459315E1,9.801066624E0,2.576977208E1
1.433504825E1,1.999505912E1,-9.783902707E0,1.159187816E1,2.509778438E1
1.434503325E1,1.937308612E1,-8.931852289E0,1.118863663E1,2.408900248E1
1.435501925E1,2.019236757E1,-8.137037342E0,8.904893117E0,2.352105878E1
1.436500425E1,2.117391159E1,-7.263480281E0,6.780839991E0,2.338958035E1
1.437499025E1,2.125878042E1,-6.835492746E0,5.702326326E0,2.304726083E1
1.438497525E1,2.119167076E1,-6.171352544E0,4.876672579E0,2.260430130E1
1.439496125E1,2.100728466E1,-5.486684521E0,4.569913613E0,2.218769538E1
1.440494725E1,2.085597509E1,-5.298655023E0,4.752055550E0,2.203700238E1
1.441493225E1,2.132948261E1,-5.091230895E0,5.070596656E0,2.250729684E1
1.442491825E1,2.199317199E1,-4.711819105E0,5.312596539E0,2.311113445E1
1.443490325E1,2.231161838E1,-4.648382077E0,5.403796147E0,2.342256995E1
1.444488925E1,2.213930561E1,-4.756344190E0,5.332633778E0,2.326389146E1
1.445487433E1,2.071367023E1,-5.093970315E0,5.015804152E0,2.191262101E1
1.446486033E1,1.806733503E1,-5.681569296E0,4.407150518E0,1.944561134E1
1.447484633E1,1.520114453E1,-6.637291431E0,3.878486209E0,1.703440893E1
1.448483133E1,1.282014194E1,-7.312599816E0,3.351705288E0,1.513486319E1
1.449481733E1,1.097010864E1,-7.672112362E0,3.047469980E0,1.372922667E1
1.450480233E1,9.546579427E0,-8.312652617E0,3.305921005E0,1.308306103E1
1.451478833E1,8.329920030E0,-8.764269335E0,4.110025424E0,1.277075932E1
1.452477433E1,7.909139189E0,-9.080938162E0,5.391436887E0,1.319414690E1
1.453475933E1,8.443138497E0,-9.074151299E0,6.839285835E0,1.415636395E1
1.454474533E1,9.012226362E0,-9.115751899E0,8.464042878E0,1.536089771E1
1.455473033E1,8.921669363E0,-9.933339998E0,1.030167833E1,1.686392612E1
1.456471633E1,7.976809600E0,-1.131918156E1,1.159928307E1,1.806368541E1
1.457470133E1,6.699918619E0,-1.216554849E1,1.182150884E1,1.823835384E1
1.458468733E1,4.890486041E0,-1.324314355E1,1.216699041E1,1.863688173E1
1.459467333E1,2.722098157E0,-1.474741813E1,1.250090735E1,1.952354590E1
1.460465833E1,1.037188468E0,-1.560743480E1,1.207062596E1,1.975772740E1
1.461464433E1,-6.163666964E-2,-1.602179306E1,1.156702866E1,1.976101728E1
1.462462933E1,-7.469607496E-1,-1.630806104E1,1.137963709E1,1.989992326E1
1.463461533E1,-1.240989076E0,-1.650161440E1,1.135735102E1,2.007069391E1
1.464460033E1,-1.788094334E0,-1.682323348E1,1.152006149E1,2.046778647E1
1.465458633E1,-2.401930940E0,-1.703358005E1,1.137180183E1,2.062110565E1
1.466457233E1,-2.932864553E0,-1.700284358E1,1.086966049E1,2.039234914E1
1.467455733E1,-3.729690358E0,-1.695314107E1,1.019610919E1,2.013157284E1
1.468454333E1,-4.786880689E0,-1.701819018E1,9.531864908E0,2.008455806E1
1.469452833E1,-5.777552510E0,-1.699741853E1,8.713665776E0,1.995545842E1
1.470451433E1,-6.590266954E0,-1.681932871E1,7.665328422E0,1.962342215E1
1.471449933E1,-7.015370057E0,-1.617231793E1,6.357108060E0,1.873958663E1
1.472448533E1,-7.028515182E0,-1.524285622E1,5.118518096E0,1.754833095E1
1.473447133E1,-7.616137551E0,-1.439442289E1,4.266986619E0,1.683484887E1
1.474445633E1,-9.193584772E0,-1.359339996E1,3.585531057E0,1.679757591E1
1.475444233E1,-1.108348966E1,-1.280774818E1,2.854741659E0,1.717648702E1
1.476442733E1,-1.284966570E1,-1.162410100E1,1.922530593E0,1.743358129E1
1.477441333E1,-1.437785188E1,-1.009401798E1,9.529102099E-1,1.759317656E1
1.478439933E1,-1.515274361E1,-8.666168259E0,-1.992321789E-2,1.745590182E1
1.479438433E1,-1.538686613E1,-7.427681206E0,-1.135271710E0,1.712352006E1
1.480437033E1,-1.498814683E1,-6.375553687E0,-2.198274758E0,1.643546903E1
1.481435533E1,-1.402420760E1,-5.662388674E0,-3.183899555E0,1.545568700E1
1.482434133E1,-1.274251197E1,-5.215991766E0,-4.040289191E0,1.434928981E1
1.483432633E1,-1.134292711E1,-4.665359468E0,-4.387411487E0,1.302601066E1
1.484431233E1,-1.004335302E1,-4.096663367E0,-4.165593268E0,1.161911175E1
1.485429833E1,-8.808560824E0,-3.329889911E0,-3.592177002E0,1.007882167E1
1.486428333E1,-7.607558516E0,-2.717426232E0,-2.752875561E0,8.534499151E0
1.487426933E1,-6.631650038E0,-2.445046554E0,-1.860252776E0,7.308732808E0
1.488425433E1,-5.960069838E0,-2.264662290E0,-1.074725838E0,6.465768585E0
1.489424033E1,-5.345266687E0,-1.727368661E0,-5.662464103E-1,5.645911215E0
1.490422533E1,-4.636212267E0,-1.154979458E0,-1.781576443E-1,4.781232256E0
1.491421133E1,-3.915228358E0,-1.045932394E0,2.753430462E-1,4.061871670E0
1.492419733E1,-3.208899910E0,-1.093060952E0,6.786424667E-1,3.457220918E0
1.493418233E1,-2.579199808E0,-9.629376000E-1,9.595251650E-1,2.915511792E0
1.494416833E1,-2.062158009E0,-6.372745854E-1,9.838677084E-1,2.372047685E0
1.495415333E1,-1.628092587E0,-2.927858752E-1,9.430278307E-1,1.904129861E0
1.496413933E1,-1.214840620E0,-1.114198637E-1,8.687985975E-1,1.497685922E0
1.497412533E1,-8.589898932E-1,6.789728343E-2,6.853334355E-1,1.100979380E0
1.498411033E1,-6.316153577E-1,2.434932625E-1,3.183621812E-1,7.480517411E-1
1.499409633E1,-4.788688356E-1,2.391078508E-1,-1.397797367E-1,5.531964396E-1
1.500408133E1,-3.628352264E-1,2.210949183E-1,-6.219291526E-1,7.532119458E-1
1.501406733E1,-2.641310102E-1,3.454149091E-1,-9.477523810E-1,1.042742166E0
1.502405233E1,-1.613492382E-1,3.429181480E-1,-1.119348280E0,1.181764361E0
1.503403833E1,7.107349098E-2,2.489387745E-1,-1.238843148E0,1.265604322E0
1.504402433E1,3.175213516E-1,2.765814865E-1,-1.191766046E0,1.263971295E0
1.505400933E1,5.494306952E-1,2.319625533E-1,-8.456404075E-1,1.034789067E0
1.506399533E1,7.270840171E-1,2.545678890E-1,-3.759326971E-1,8.571938933E-1
1.507398033E1,8.003291640E-1,4.082444108E-1,6.573059767E-2,9.008389318E-1
1.508396633E1,8.159079006E-1,4.608091253E-1,3.166542095E-1,9.891009254E-1
1.509395133E1,7.615796658E-1,4.406993812E-1,2.301882157E-1,9.095087392E-1
1.510393733E1,7.227915761E-1,4.092103708E-1,-7.282970220E-2,8.337775216E-1
1.511392333E1,6.201980844E-1,3.093557149E-1,-3.566482875E-1,7.794514887E-1
1.512390833E1,2.374565971E-1,7.646345437E-2,-5.123839062E-1,5.698855699E-1
1.513389433E1,-3.257065764E-1,-1.698370564E-1,-5.908652347E-1,6.957378280E-1
1.514387933E1,-9.193451455E-1,-4.391557163E-1,-5.942194900E-1,1.179470238E0
1.515386533E1,-1.724604682E0,-8.065842229E-1,-4.994171208E-1,1.968313206E0
1.516385033E1,-2.718224084E0,-1.251585401E0,-3.987578881E-1,3.018975992E0
1.517383633E1,-3.892231843E0,-1.739053736E0,-3.417776486E-1,4.276749768E0
1.518382233E1,-5.486407948E0,-2.251784382E0,-3.800985458E-1,5.942699722E0
1.519380733E1,-7.717422436E0,-2.859412415E0,-4.896724436E-1,8.244672675E0
1.520379333E1,-1.071667160E1,-3.612437897E0,-7.279768869E-1,1.133255082E1
1.521377833E1,-1.382782419E1,-4.341945877E0,-1.130232579E0,1.453749089E1
1.522376433E1,-1.602646030E1,-4.954006099E0,-1.597577138E0,1.685057444E1
1.523374933E1,-1.656799550E1,-5.681322543E0,-1.776665074E0,1.760489817E1
1.524373533E1,-1.566650103E1,-6.448962556E0,-1.493220710E0,1.700758891E1
1.525372133E1,-1.375854287E1,-6.935397688E0,-5.701184365E-1,1.541824497E1
1.526370633E1,-1.180718316E1,-7.270018637E0,7.630172038E-1,1.388686216E1
1.527369233E1,-1.016668132E1,-7.798820940E0,2.358900403E0,1.302871553E1
1.528367733E1,-8.865298111E0,-8.204598995E0,4.029556919E0,1.273366735E1
1.529366333E1,-8.156927816E0,-8.404323510E0,5.483353363E0,1.293194839E1
1.530364933E1,-7.941549135E0,-8.662043633E0,6.376529002E0,1.337009068E1
1.531363433E1,-8.288362699E0,-9.117321292E0,6.596448630E0,1.397625266E1
1.532362033E1,-9.024171054E0,-9.819790578E0,6.516417789E0,1.484343798E1
1.533360533E1,-9.550247970E0,-1.071514664E1,6.449570081E0,1.573590030E1
1.534359133E1,-9.680331561E0,-1.173862456E1,6.504264936E0,1.654719276E1
1.535357633E1,-9.735963725E0,-1.272207712E1,6.629630409E0,1.733759600E1
1.536356233E1,-9.796373649E0,-1.360586271E1,6.934028270E0,1.814302028E1
1.537354833E1,-9.442333512E0,-1.455793209E1,7.461269367E0,1.888813356E1
1.538353333E1,-8.474999975E0,-1.537090791E1,8.461647273E0,1.948563340E1
1.539351933E1,-7.060909926E0,-1.582789705E1,9.870995815E0,1.994530853E1
1.540350433E1,-5.566813595E0,-1.629267468E1,1.082207935E1,2.033612705E1
1.541349033E1,-4.403712940E0,-1.680884816E1,1.113283548E1,2.063662012E1
1.542347533E1,-3.883352847E0,-1.727961451E1,1.079569555E1,2.074156574E1
1.543346133E1,-3.680201864E0,-1.803076655E1,1.007241017E1,2.097870050E1
1.544344733E1,-3.520143106E0,-1.887367075E1,9.545656736E0,2.144123172E1
1.545343463E1,-1.889616031E0,-1.948312838E1,9.096426267E0,2.158490007E1
1.546342062E1,2.837995818E0,-1.999686007E1,7.574277919E0,2.157077464E1
1.547340562E1,1.077878774E1,-1.888283451E1,4.762816181E0,2.225821471E1
1.548339162E1,1.836401457E1,-1.560286344E1,2.933825251E0,2.427537249E1
1.549337662E1,2.138397398E1,-1.212535005E1,4.516937839E0,2.499402298E1
1.550336262E1,1.930628168E1,-1.063457903E1,8.707579994E0,2.369912937E1
1.551334862E1,1.642621807E1,-1.044437729E1,1.096595127E1,2.234183842E1
1.552333362E1,1.626483725E1,-9.884060833E0,8.625562270E0,2.089593056E1
1.553331962E1,1.799056343E1,-1.007543202E1,4.485432748E0,2.110198592E1
1.554330462E1,1.974444512E1,-9.875859529E0,8.151787528E-1,2.209163260E1
1.555329062E1,2.094981822E1,-9.162899169E0,-1.630418024E0,2.292404562E1
1.556327562E1,2.129565530E1,-8.671748841E0,-2.144782967E0,2.309338123E1
1.557326162E1,2.142435486E1,-8.280733252E0,-1.402215523E0,2.301173033E1
1.558324762E1,2.228129939E1,-7.480256445E0,-3.509346807E-1,2.350603527E1
1.559323262E1,2.296842442E1,-6.921800573E0,1.179524315E0,2.401772514E1
1.560321862E1,2.383427543E1,-6.315356601E0,2.459880356E0,2.477917323E1
1.561320362E1,2.499599322E1,-5.600162020E0,2.797362347E0,2.576793992E1
1.562318962E1,2.465577415E1,-5.491936491E0,2.910193144E0,2.542710737E1
1.563317462E1,2.210846739E1,-6.048151710E0,2.979334130E0,2.311365184E1
1.564316062E1,1.891203316E1,-6.930226411E0,2.757805641E0,2.032974492E1
1.565314662E1,1.617003868E1,-7.617380669E0,2.626876835E0,1.806640864E1
1.566313162E1,1.419049072E1,-8.019572042E0,2.695389245E0,1.652115873E1
1.567311762E1,1.291140879E1,-8.237115362E0,2.975168866E0,1.560147994E1
1.568310262E1,1.177112806E1,-8.549836149E0,3.476200403E0,1.495804544E1
1.569308862E1,1.061663042E1,-9.006322428E0,4.419170639E0,1.460670237E1
1.570307462E1,1.002303278E1,-9.280975503E0,5.509273485E0,1.472921541E1
1.571305962E1,9.902711112E0,-9.530739319E0,6.495295308E0,1.520156375E1
1.572304562E1,9.425384772E0,-9.856621020E0,7.470836581E0,1.555005644E1
1.573303062E1,8.394958025E0,-1.033024315E1,8.782577552E0,1.594750489E1
1.574301662E1,6.912246222E0,-1.090633305E1,1.028678196E1,1.650894096E1
1.575300162E1,5.219811752E0,-1.181761577E1,1.139528307E1,1.722657695E1
1.576298762E1,3.703501264E0,-1.251349758E1,1.168686852E1,1.751817453E1
1.577297362E1,2.567817033E0,-1.301787840E1,1.160165120E1,1.762546887E1
1.578295862E1,1.709298425E0,-1.362249921E1,1.150248593E1,1.791092874E1
1.579294462E1,7.788157958E-1,-1.419643149E1,1.131877226E1,1.817305221E1
1.580292962E1,4.391200483E-2,-1.463130062E1,1.112341795E1,1.837953517E1
1.581291562E1,-5.230919123E-1,-1.488405470E1,1.098473954E1,1.850603178E1
1.582290062E1,-7.118651766E-1,-1.526958735E1,1.074786065E1,1.868645388E1
1.583288662E1,-9.379208726E-1,-1.579930767E1,1.036998550E1,1.892179742E1
1.584287262E1,-1.211985717E0,-1.632089568E1,9.929552171E0,1.914253252E1
1.585285762E1,-1.406465864E0,-1.680019779E1,9.391721767E0,1.929842558E1
1.586284362E1,-2.095867500E0,-1.734264048E1,9.026563150E0,1.966313001E1
1.587282862E1,-2.988224822E0,-1.800266132E1,9.005840617E0,2.035019576E1
1.588281462E1,-3.642284132E0,-1.813825708E1,8.603802441E0,2.040313751E1
1.589279962E1,-3.646839405E0,-1.733987358E1,7.432939607E0,1.921507857E1
1.590278562E1,-4.188129022E0,-1.666683567E1,6.861364921E0,1.850411210E1
1.591277162E1,-5.575868009E0,-1.631041162E1,6.398799877E0,1.838652961E1
1.592275662E1,-7.278973063E0,-1.558257828E1,5.284117091E0,1.799227857E1
1.593274262E1,-9.167977476E0,-1.454292463E1,3.703048397E0,1.758581915E1
1.594272762E1,-1.111339933E1,-1.344993735E1,2.140898077E0,1.757816555E1
1.595271362E1,-1.285912533E1,-1.238146511E1,7.560692498E-1,1.786699256E1
1.596269862E1,-1.528894515E1,-1.155519974E1,1.055890203E-2,1.916440963E1
1.597268462E1,-1.766129619E1,-1.022757540E1,-6.311540124E-1,2.041869332E1
1.598267062E1,-1.772311763E1,-8.251364442E0,-1.557697665E0,1.961173975E1
1.599265562E1,-1.636234659E1,-6.750708704E0,-2.176519607E0,1.783355521E1
1.600264162E1,-1.451350729E1,-6.079892735E0,-2.540997609E0,1.593937446E1
1.601262662E1,-1.237709607E1,-5.496730038E0,-2.896572348E0,1.384906783E1
1.602261262E1,-1.040488870E1,-4.710794088E0,-3.221840383E0,1.186733101E1
1.603259862E1,-8.849456835E0,-4.028213521E0,-3.129410229E0,1.021433301E1
1.604258362E1,-7.950486020E0,-3.249800014E0,-2.579456793E0,8.968000080E0
1.605256962E1,-7.276430694E0,-2.528738337E0,-1.943934033E0,7.944799604E0
1.606255462E1,-6.385776958E0,-2.051781541E0,-1.529435441E0,6.879471464E0
1.607254062E1,-5.484002988E0,-1.689420816E0,-1.201552823E0,5.862777555E0
1.608252562E1,-4.909793547E0,-1.453341238E0,-6.657581270E-1,5.163478219E0
1.609251162E1,-4.552733031E0,-1.195137550E0,6.377441168E-2,4.707419568E0
1.610249762E1,-4.299205947E0,-6.411822796E-1,7.013805342E-1,4.402978667E0
1.611248262E1,-3.809399602E0,-3.474006236E-2,1.136515120E0,3.975474666E0
1.612246862E1,-2.941328690E0,2.462806302E-1,1.529148050E0,3.324208533E0
1.613245362E1,-1.942935914E0,5.225697559E-1,1.817465775E0,2.711320888E0
1.614243962E1,-1.059014077E0,7.426548600E-1,1.820585557E0,2.233288792E0
1.615242462E1,-4.455043307E-1,7.728329247E-1,1.474878872E0,1.723662532E0
1.616241062E1,-1.134131795E-1,8.242200100E-1,9.662289977E-1,1.275068488E0
1.617239662E1,7.280631334E-2,7.856014895E-1,4.754789123E-1,9.211680931E-1
1.618238162E1,1.265167898E-1,7.470461190E-1,1.757936150E-1,7.778096149E-1
1.619236762E1,-1.889945814E-1,8.399513590E-1,1.225938928E-1,8.696358433E-1
1.620235262E1,-5.759136119E-1,9.285717595E-1,3.198953211E-1,1.138531957E0
1.621233862E1,-8.263346556E-1,8.825869167E-1,5.430300406E-1,1.325394377E0
1.622232362E1,-1.009870569E0,6.743745840E-1,7.218867195E-1,1.412706651E0
1.623230962E1,-1.129496123E0,4.813240814E-1,9.312611863E-1,1.541000246E0
1.624229562E1,-1.373012189E0,2.946026051E-1,1.199987523E0,1.847139200E0
1.625228062E1,-1.656983972E0,9.139841259E-2,1.342168419E0,2.134330250E0
1.626226662E1,-1.986861367E0,-1.316447979E-1,1.272537729E0,2.363112506E0
1.627225162E1,-2.404679424E0,-3.610053402E-1,1.055927625E0,2.650998140E0
1.628223762E1,-2.898796921E0,-6.722374266E-1,7.110784337E-1,3.059503111E0
1.629222262E1,-3.495588893E0,-1.073906643E0,3.112195149E-1,3.670051059E0
1.630220862E1,-4.152819441E0,-1.567412814E0,2.256206632E-2,4.438828819E0
1.631219462E1,-5.127729800E0,-2.104171423E0,-7.779925078E-2,5.543212336E0
1.632217962E1,-6.313864392E0,-2.597122693E0,-6.814462066E-2,6.827486619E0
1.633216562E1,-7.585618594E0,-2.945766435E0,-3.722980678E-2,8.137600100E0
1.634215062E1,-9.043970895E0,-3.207702400E0,-1.292556256E-2,9.595985166E0
1.635213662E1,-1.039515192E1,-3.640555403E0,1.308446065E-1,1.101498740E1
1.636212162E1,-1.129514717E1,-4.182111652E0,3.703132305E-1,1.205020910E1
1.637210762E1,-1.179309371E1,-4.691770756E0,7.313527769E-1,1.271316833E1
1.638209362E1,-1.190662442E1,-5.242750379E0,1.103715456E0,1.305650506E1
1.639207862E1,-1.164143682E1,-5.933448050E0,1.406881309E0,1.314184812E1
1.640206462E1,-1.122554776E1,-6.681458960E0,1.617028778E0,1.316319104E1
1.641204962E1,-1.064661143E1,-7.554998479E0,1.732106367E0,1.316922661E1
1.642203562E1,-9.963092970E0,-8.530453214E0,1.844724325E0,1.324518257E1
1.643202062E1,-9.254561291E0,-9.375032060E0,2.076319673E0,1.333601268E1
1.644200662E1,-8.642772964E0,-1.008881395E1,2.566801664E0,1.353034228E1
1.645199262E1,-8.205670790E0,-1.085787952E1,3.238273690E0,1.398974615E1
1.646197533E1,-7.978195975E0,-1.173115650E1,3.930938072E0,1.472154604E1
1.647196133E1,-7.816795866E0,-1.250961737E1,4.435545766E0,1.540347008E1
1.648194633E1,-7.619662253E0,-1.325179042E1,4.951076059E0,1.606805390E1
1.649193233E1,-7.570290703E0,-1.406483874E1,5.747439934E0,1.697533669E1
1.650191733E1,-7.710179490E0,-1.481946168E1,6.449781750E0,1.790706556E1
1.651190333E1,-7.546800683E0,-1.565179762E1,7.017224793E0,1.873964816E1
1.652188933E1,-6.814039897E0,-1.656834049E1,7.709310594E0,1.950319246E1
1.653187433E1,-6.054476058E0,-1.725268458E1,8.468434721E0,2.015009161E1
1.654186033E1,-5.517817436E0,-1.776553801E1,8.818548453E0,2.058706990E1
