"Time (s)","Linear Acceleration x (m/s^2)","Linear Acceleration y (m/s^2)","Linear Acceleration z (m/s^2)","Absolute acceleration (m/s^2)"
7.557541656E-3,1.181615572E-1,4.172479534E-1,2.731759950E-1,5.125262261E-1
1.754354167E-2,1.190804471E-1,4.595788711E-1,-5.294244468E-2,4.776984343E-1
2.752854163E-2,2.117965297E-1,4.123205048E-1,-4.227251865E-2,4.654599172E-1
3.751454165E-2,2.030262910E-1,4.731175143E-1,3.325951081E-2,5.159128339E-1
4.749954166E-2,1.217017539E-1,6.489041126E-1,2.401398844E-1,7.025347168E-1
5.748454167E-2,5.579325467E-2,8.341263628E-1,5.014034931E-1,9.748256969E-1
6.747054163E-2,6.945907474E-3,9.472658926E-1,7.769101882E-1,1.225132792E0
7.745554164E-2,-5.567704126E-2,9.577329934E-1,9.945160729E-1,1.381815704E0
8.744154166E-2,-2.929162681E-3,1.052469581E0,1.001042808E0,1.452510758E0
9.742654167E-2,-8.467557639E-2,1.127621505E0,1.073828875E0,1.559425749E0
1.074125416E-1,-1.996493778E-1,9.557081026E-1,1.124416646E0,1.489144266E0
1.173975416E-1,-1.276840402E-1,8.598675603E-1,1.038090109E0,1.353996495E0
1.273825417E-1,1.592433634E-1,1.012228459E0,9.054887062E-1,1.367433617E0
1.373685417E-1,6.281235467E-1,1.154283639E0,9.344745237E-1,1.612498851E0
1.473535416E-1,9.434269032E-1,1.248005151E0,1.092155219E0,1.907976467E0
1.573395416E-1,1.129939195E0,1.444341788E0,1.237031096E0,2.212042432E0
1.673245417E-1,1.374141140E0,1.645895312E0,1.310597255E0,2.512946561E0
1.773095417E-1,1.683143684E0,1.835350361E0,1.487480206E0,2.900703531E0
1.872955416E-1,1.837204952E0,1.979709930E0,1.874855905E0,3.287804451E0
1.972805416E-1,1.953417048E0,1.999328508E0,2.327504071E0,3.637365509E0
2.072665417E-1,2.044480999E0,1.992673207E0,2.565091646E0,3.838013056E0
2.172515417E-1,2.175653635E0,1.947770684E0,2.615719178E0,3.920365569E0
2.272375416E-1,2.240336996E0,1.703610254E0,2.676246046E0,3.883772734E0
2.372225416E-1,2.222410748E0,1.472206694E0,2.511579098E0,3.662585378E0
2.472075417E-1,2.035819373E0,1.233329809E0,2.295145433E0,3.306562489E0
2.571935417E-1,1.534137041E0,1.033121729E0,2.293796188E0,2.946594292E0
2.671785416E-1,1.134209709E0,8.429375321E-1,2.417162937E0,2.799937858E0
2.771645417E-1,9.338035557E-1,4.724135095E-1,2.577364951E0,2.781721355E0
2.871495417E-1,6.232287694E-1,3.742218018E-4,2.509869372E0,2.586089423E0
2.971355417E-1,6.521063402E-2,-4.613932621E-1,2.330777635E0,2.376901460E0
3.071205416E-1,-7.218452773E-1,-9.430383557E-1,2.169588026E0,2.473356858E0
3.171055416E-1,-1.544010210E0,-1.386435642E0,1.715442387E0,2.692380713E0
3.270915417E-1,-2.278685668E0,-1.922464519E0,9.579256591E-1,3.131437332E0
3.370765417E-1,-3.544349117E0,-2.321983715E0,5.546648303E-1,4.273367771E0
3.470625416E-1,-4.902150652E0,-2.524672768E0,-3.778269026E-1,5.527007035E0
3.570475416E-1,-6.407754303E0,-2.611516784E0,-2.296928980E0,7.290762502E0
3.670325417E-1,-6.760199904E0,-2.601458403E0,-2.378649374E0,7.624031835E0
3.770185417E-1,-7.563045418E0,-2.952429922E0,-2.530861753E0,8.504220108E0
3.870035416E-1,-8.620186340E0,-3.656243482E0,-2.691631532E0,9.742720833E0
3.969895417E-1,-9.744886576E0,-4.351317210E0,-2.672991778E0,1.100189351E1
4.069745417E-1,-1.063995613E1,-4.839462653E0,-2.523393104E0,1.195811766E1
4.169605417E-1,-1.149683635E1,-5.338128991E0,-2.050069183E0,1.284039138E1
4.269455416E-1,-1.224809480E1,-5.890082760E0,-1.628955928E0,1.368803852E1
4.369305416E-1,-1.281760542E1,-6.100234614E0,-1.575216800E0,1.428233801E1
4.469165417E-1,-1.328671584E1,-6.061874540E0,-1.048427694E0,1.464180116E1
4.569015417E-1,-1.327617798E1,-6.128921639E0,2.241036031E-1,1.462432237E1
4.668875416E-1,-1.257810580E1,-6.388267288E0,1.453688270E0,1.418209837E1
4.768725417E-1,-1.165320610E1,-6.978980495E0,2.073465063E0,1.374054724E1
4.868575417E-1,-1.044553270E1,-7.595651246E0,2.295490565E0,1.311763501E1
4.968435417E-1,-9.040343868E0,-8.018888503E0,2.476969720E0,1.233554900E1
5.068285416E-1,-7.604063051E0,-8.548021173E0,2.718932182E0,1.175938064E1
5.168145417E-1,-6.275946368E0,-8.989158511E0,3.185271896E0,1.141658577E1
5.267995417E-1,-5.024818804E0,-9.083154257E0,3.644576825E0,1.100161059E1
5.367855416E-1,-4.124172177E0,-9.110839069E0,4.278268529E0,1.087748897E1
5.467705416E-1,-3.312328969E0,-9.018416809E0,4.561716986E0,1.063544201E1
5.567555416E-1,-2.843999739E0,-8.811633536E0,4.099512130E0,1.012616511E1
5.667415417E-1,-2.625053673E0,-8.629062413E0,3.599226698E0,9.711130610E0
5.767265417E-1,-2.108314176E0,-8.431335892E0,3.680322901E0,9.438071320E0
5.867125416E-1,-9.582873094E-1,-8.038049244E0,3.963543316E0,9.013225052E0
5.966975417E-1,9.715113723E-1,-7.395382941E0,4.457436572E0,8.689318960E0
6.066835417E-1,3.006105022E0,-6.599899072E0,4.851586854E0,8.725435816E0
6.166685417E-1,5.491945846E0,-5.926926066E0,4.726670448E0,9.361161001E0
6.266535416E-1,8.124047168E0,-5.262582965E0,4.337476265E0,1.060700816E1
6.366395417E-1,1.073549145E1,-4.599498477E0,4.148110678E0,1.239407056E1
6.466245417E-1,1.293573438E1,-3.810748847E0,4.126018728E0,1.410244877E1
6.566105416E-1,1.448236736E1,-3.271401967E0,4.188327827E0,1.542670169E1
6.665955416E-1,1.659628083E1,-2.725174669E0,3.950706924E0,1.727631904E1
6.765815417E-1,1.931256042E1,-2.109081038E0,3.223158345E0,1.969294194E1
6.865665417E-1,2.117443083E1,-1.844861004E0,2.630367622E0,2.141678937E1
6.965515417E-1,2.195556738E1,-1.946803408E0,2.155336314E0,2.214683854E1
7.065375416E-1,2.182501777E1,-2.503534498E0,1.514343485E0,2.202027070E1
7.165225417E-1,2.154456659E1,-2.459239501E0,4.951918862E-1,2.169012272E1
7.265076250E-1,2.129508929E1,-2.599121271E0,-2.691906424E-1,2.145480652E1
7.364926250E-1,2.065048522E1,-3.362289918E0,-5.806799332E-1,2.093047354E1
7.464776250E-1,1.975252597E1,-4.024705777E0,-8.012708580E-1,2.017430479E1
7.564636250E-1,1.862096578E1,-4.583543472E0,-4.539029789E-1,1.918216008E1
7.664486250E-1,1.722773802E1,-5.025618119E0,2.961649811E-1,1.794824527E1
7.764346250E-1,1.597765126E1,-5.279866750E0,1.159609356E0,1.686733608E1
7.864196250E-1,1.486278487E1,-5.768770577E0,2.062033464E0,1.607585363E1
7.964056250E-1,1.381374058E1,-6.443637496E0,3.048231872E0,1.554450420E1
8.063906250E-1,1.270716204E1,-7.217570282E0,3.858489901E0,1.511466944E1
8.163756250E-1,1.154056299E1,-8.137429690E0,4.609403368E0,1.485425715E1
8.263616250E-1,1.077474848E1,-8.863828121E0,5.378563657E0,1.495297966E1
8.363466250E-1,9.807688596E0,-9.417861745E0,5.897340324E0,1.482111664E1
8.463326250E-1,8.614053195E0,-1.061294901E1,6.754103597E0,1.524645908E1
8.563176250E-1,7.772617813E0,-1.210010528E1,7.416372106E0,1.618112205E1
8.663036250E-1,7.270494601E0,-1.257755032E1,7.212918237E0,1.621977353E1
8.762886250E-1,6.435879411E0,-1.306109049E1,7.370319436E0,1.631974991E1
8.862736250E-1,5.282174646E0,-1.404423081E1,8.266432132E0,1.713113213E1
8.962596250E-1,4.753594829E0,-1.439917317E1,8.838838291E0,1.755157868E1
9.062446250E-1,4.106766478E0,-1.463603335E1,9.398729070E0,1.787218821E1
9.162306250E-1,2.486722584E0,-1.523728032E1,1.021000335E1,1.850952914E1
9.262156250E-1,5.537854090E-1,-1.526100481E1,1.078754570E1,1.869695399E1
9.362006250E-1,-6.191242433E-1,-1.488730458E1,1.067053239E1,1.832690410E1
9.461866250E-1,-1.592052542E0,-1.502400196E1,9.973151350E0,1.810301119E1
9.561716250E-1,-4.176468212E0,-1.581706450E1,9.003988804E0,1.867335616E1
9.661576250E-1,-7.734574658E0,-1.582068509E1,7.200533250E0,1.902538833E1
9.761426250E-1,-1.075932353E1,-1.490389313E1,4.668668992E0,1.896537749E1
9.861286250E-1,-1.376832175E1,-1.344225762E1,2.016438338E0,1.934753207E1
9.961136250E-1,-1.603198241E1,-1.170846930E1,-3.595371044E-1,1.985552770E1
1.006098625E0,-1.774762565E1,-1.016274615E1,-2.312732835E0,2.058174820E1
1.016084625E0,-1.885221848E1,-9.041002264E0,-3.728016885E0,2.123779588E1
1.026069625E0,-1.922632334E1,-8.206808658E0,-4.051613201E0,2.129363255E1
1.036055625E0,-1.838094811E1,-7.492032153E0,-3.450047562E0,2.014677709E1
1.046040625E0,-1.698416874E1,-6.554708866E0,-2.683517058E0,1.840183306E1
1.056026625E0,-1.544705737E1,-5.502476097E0,-1.876395476E0,1.650483821E1
1.066011625E0,-1.336771497E1,-4.267692670E0,-1.461646331E0,1.410834556E1
1.075996625E0,-1.116199086E1,-3.181763567E0,-1.245163111E0,1.167322109E1
1.085982625E0,-9.434046253E0,-2.252025872E0,-8.224699384E-1,9.733925520E0
1.095967625E0,-7.995625355E0,-1.312349666E0,-2.863741109E-1,8.107668999E0
1.105953625E0,-6.483514338E0,-4.867122906E-1,3.199494079E-1,6.509624770E0
1.115938625E0,-4.901687260E0,8.755562246E-2,1.016735492E0,5.006790893E0
1.125924625E0,-3.394423292E0,6.323541534E-1,1.667969720E0,3.834593101E0
1.135909625E0,-2.186892568E0,1.295408528E0,2.124061604E0,3.312434159E0
1.145894625E0,-1.392265024E0,1.729595280E0,2.409173301E0,3.276281082E0
1.155880625E0,-1.178900709E0,2.010404888E0,2.498814333E0,3.416958848E0
1.165865625E0,-1.465348788E0,2.273685713E0,2.372691646E0,3.598132771E0
1.175851625E0,-2.030151813E0,2.119672392E0,2.048184041E0,3.579048099E0
1.185836625E0,-2.664536996E0,1.688307506E0,1.656597178E0,3.562927708E0
1.195821625E0,-3.381592162E0,1.346210307E0,1.169685205E0,3.823036910E0
1.205807625E0,-4.081226133E0,1.013987301E0,5.836839768E-1,4.245617031E0
1.215792625E0,-4.603366118E0,4.963952798E-1,1.233645558E-1,4.631695878E0
1.225778625E0,-5.083159983E0,-9.653811514E-2,-1.030910897E-1,5.085121709E0
1.235763625E0,-5.779411340E0,-7.556415260E-1,-1.629697940E-1,5.830878896E0
1.245749625E0,-6.666684800E0,-1.611673313E0,-3.317920661E-1,6.866750546E0
1.255734625E0,-7.963521802E0,-2.607243639E0,-8.523050639E-1,8.422696885E0
1.265719625E0,-9.820344894E0,-3.481663164E0,-1.708345622E0,1.055838989E1
1.275705625E0,-1.159184775E1,-4.337564558E0,-2.377504489E0,1.260309201E1
1.285690625E0,-1.304784421E1,-5.136860812E0,-2.377712650E0,1.422276679E1
1.295676625E0,-1.375522867E1,-5.440764583E0,-1.414044440E0,1.485960150E1
1.305661625E0,-1.334466642E1,-5.484994091E0,2.184247872E-1,1.442958736E1
1.315646625E0,-1.213682346E1,-5.595943254E0,2.173037006E0,1.354027896E1
1.325632625E0,-1.059791114E1,-5.803317681E0,4.226036521E0,1.280053129E1
1.335617625E0,-9.140572160E0,-6.233934708E0,5.775272681E0,1.248061601E1
1.345603625E0,-8.172442818E0,-7.047211069E0,6.321786200E0,1.250667767E1
1.355588625E0,-7.886229798E0,-7.861660967E0,6.097586410E0,1.269562498E1
1.365574625E0,-8.508333782E0,-8.644876208E0,5.311075094E0,1.324134234E1
1.375559625E0,-9.632573258E0,-9.790398379E0,4.465510700E0,1.444226969E1
1.385544625E0,-1.042484408E1,-1.094401602E1,3.951324974E0,1.562247835E1
1.395530625E0,-1.070251432E1,-1.200002434E1,3.930165070E0,1.655266125E1
1.405515625E0,-1.060730060E1,-1.311828796E1,4.460442041E0,1.744992402E1
1.415501625E0,-9.975998944E0,-1.422020510E1,5.609508795E0,1.825380445E1
1.425486625E0,-8.923480246E0,-1.521785821E1,7.062497445E0,1.900238349E1
1.435472625E0,-8.108139818E0,-1.615832905E1,8.335694740E0,1.990772051E1
1.445457625E0,-7.283401160E0,-1.710027807E1,8.930024450E0,2.062068814E1
1.455442625E0,-6.050722731E0,-1.798333861E1,9.008271890E0,2.100382526E1
1.465428625E0,-4.846147190E0,-1.853907904E1,8.965538099E0,2.115569586E1
1.475413625E0,-3.139133272E0,-1.893693996E1,9.043044112E0,2.121882418E1
1.485399625E0,-3.432900310E-3,-1.904543739E1,8.426878560E0,2.082644903E1
1.495384625E0,4.438526677E0,-1.779433789E1,6.083259562E0,1.932213826E1
1.505370625E0,9.506791463E0,-1.593782353E1,3.044531754E0,1.880591600E1
1.515355625E0,1.295933140E1,-1.356042634E1,2.061030666E0,1.887001008E1
1.525340625E0,1.332627108E1,-1.158814296E1,4.712484518E0,1.827791204E1
1.535326625E0,1.288319364E1,-1.030649761E1,8.147769907E0,1.840072623E1
1.545311625E0,1.357625592E1,-9.085867950E0,9.758170865E0,1.902865260E1
1.555297625E0,1.504383337E1,-8.828581105E0,8.908612531E0,1.958632544E1
1.565282625E0,1.745997773E1,-8.993338101E0,5.763656017E0,2.046828481E1
1.575267625E0,2.049415406E1,-8.968882121E0,2.135240019E0,2.247243750E1
1.585253625E0,2.348178422E1,-8.709716567E0,-6.556933147E-1,2.505360826E1
1.595238625E0,2.562441688E1,-8.022361164E0,-1.928364652E0,2.692002246E1
1.605224625E0,2.660326416E1,-7.187437826E0,-1.684828120E0,2.760854166E1
1.615209625E0,2.656365279E1,-6.556515656E0,-6.722802575E-1,2.736909768E1
1.625195625E0,2.628756364E1,-5.986187012E0,4.519902085E-1,2.696432332E1
1.635180625E0,2.585748221E1,-5.759047242E0,1.281570507E0,2.652203677E1
1.645165625E0,2.561028299E1,-5.752355688E0,1.597603742E0,2.629693002E1
1.655151625E0,2.516770957E1,-6.017053878E0,1.590387109E0,2.592581481E1
1.665136625E0,2.366370280E1,-6.531679022E0,1.918530366E0,2.462345263E1
1.675122625E0,2.137004826E1,-7.323431198E0,2.809116420E0,2.276406690E1
1.685107625E0,1.910544502E1,-8.092436535E0,3.789997371E0,2.109193302E1
1.695093625E0,1.710028509E1,-8.745792133E0,4.574454560E0,1.974422104E1
1.705078625E0,1.545909094E1,-9.213551844E0,5.324268166E0,1.876754810E1
1.715063625E0,1.372017344E1,-9.835175772E0,6.525263457E0,1.809842272E1
1.725049875E0,1.238654517E1,-1.036090829E1,7.973517033E0,1.800977223E1
1.735034875E0,1.154000751E1,-1.084846784E1,9.551523832E0,1.849574641E1
1.745020875E0,1.047545758E1,-1.163848281E1,1.119095914E1,1.924648176E1
1.755005875E0,9.318364938E0,-1.267666062E1,1.245822502E1,2.006830886E1
1.764990875E0,8.315115464E0,-1.411750812E1,1.297248413E1,2.089809860E1
1.774976875E0,7.458180867E0,-1.564489206E1,1.272399033E1,2.150086136E1
1.784961875E0,6.172090462E0,-1.723242164E1,1.230210436E1,2.205431540E1
1.794947875E0,4.424811448E0,-1.876356768E1,1.209580875E1,2.275871300E1
1.804932875E0,2.567396033E0,-1.995452155E1,1.185631732E1,2.335265965E1
1.814918875E0,9.354299587E-1,-2.093461312E1,1.182706136E1,2.406267724E1
1.824903875E0,-3.572815409E-1,-2.182506221E1,1.202915400E1,2.492311249E1
1.834888875E0,-2.520462772E0,-2.199892799E1,1.160315276E1,2.499877436E1
1.844874875E0,-5.682140568E0,-2.134152788E1,1.103218852E1,2.468717718E1
1.854859875E0,-9.141611211E0,-2.024432827E1,1.052828717E1,2.458143025E1
1.864845875E0,-1.189617311E1,-1.842197451E1,9.421618581E0,2.386744595E1
1.874830875E0,-1.461612358E1,-1.596324489E1,7.712204965E0,2.297682226E1
1.884816875E0,-1.750667008E1,-1.380313841E1,6.049641581E0,2.309996300E1
1.894801875E0,-1.921658071E1,-1.182745429E1,4.073384432E0,2.292941582E1
1.904786875E0,-1.986255420E1,-1.017572931E1,2.077673596E0,2.241390760E1
1.914772875E0,-2.005388445E1,-9.136707151E0,1.642938960E-1,2.203780142E1
1.924757875E0,-1.940278529E1,-8.275378956E0,-1.054669596E0,2.112018707E1
1.934743875E0,-1.819265841E1,-7.239906646E0,-1.376791245E0,1.962866838E1
1.944728875E0,-1.809382058E1,-6.406115329E0,-1.382451349E0,1.924411153E1
1.954714875E0,-1.802760203E1,-5.744548486E0,-1.236422255E0,1.896109207E1
1.964699875E0,-1.691366535E1,-5.025815170E0,-1.248306867E0,1.768867332E1
1.974684875E0,-1.490633493E1,-4.278654445E0,-1.310383247E0,1.556350890E1
1.984670875E0,-1.217934441E1,-3.696412684E0,-1.340580315E0,1.279832225E1
1.994655875E0,-9.403374683E0,-3.045594193E0,-1.305940387E0,9.970184538E0
2.004641875E0,-7.157782502E0,-2.039570215E0,-8.581721601E-1,7.492006171E0
2.014626875E0,-5.373820395E0,-1.019177874E0,-9.750802204E-2,5.470482337E0
2.024611875E0,-3.648258232E0,-2.511998928E-1,7.990139790E-1,3.743168825E0
2.034597875E0,-1.798123478E0,3.888100201E-1,1.623081815E0,2.453327506E0
2.044582875E0,-4.357576069E-1,8.539501780E-1,2.179308729E0,2.380861637E0
2.054568875E0,1.995049515E-1,1.039595182E0,2.333947995E0,2.562786298E0
2.064553875E0,2.003586450E-1,1.102179101E0,1.917591011E0,2.220832646E0
2.074539875E0,-3.648925692E-2,1.146774645E0,1.079042838E0,1.575041903E0
2.084524875E0,8.471446037E-3,1.157737005E0,2.521353011E-1,1.184904615E0
2.094509875E0,1.929756582E-1,1.115525370E0,-1.153013916E-1,1.137950292E0
2.104495875E0,2.291515043E-1,1.085102307E0,2.142639086E-2,1.109241416E0
2.114480875E0,2.433874279E-1,1.064693770E0,3.098590140E-1,1.135263350E0
2.124466875E0,1.267957020E-1,1.016350746E0,4.100545625E-1,1.103263673E0
2.134451875E0,-1.308027989E-1,8.740090513E-1,4.354981367E-1,9.852206966E-1
2.144437875E0,-4.679716721E-1,7.610186255E-1,2.802019362E-1,9.363012119E-1
2.154422875E0,-8.185941115E-1,5.710180306E-1,1.881806490E-1,1.015662280E0
2.164407875E0,-1.210141506E0,3.315125692E-1,2.421163894E-1,1.277874561E0
2.174393875E0,-1.629501473E0,1.136295265E-1,2.908624336E-1,1.659152698E0
2.184378875E0,-2.093086272E0,-1.731611985E-1,2.931174123E-1,2.120592549E0
2.194364875E0,-2.748768769E0,-5.681242436E-1,3.412354656E-1,2.827531882E0
2.204349875E0,-3.742249885E0,-9.771287924E-1,2.624348791E-1,3.876607659E0
2.214334875E0,-5.232787308E0,-9.452597129E-1,5.760676861E-2,5.317790657E0
2.224320875E0,-6.301079455E0,-8.402998531E-1,1.072379351E-3,6.356863007E0
2.234305875E0,-6.682451817E0,-1.053834906E0,3.511761707E-1,6.774146071E0
2.244291875E0,-6.885958895E0,-1.175743505E0,9.802146605E-1,7.054050147E0
2.254276875E0,-6.772826382E0,-1.216476964E0,1.661720655E0,7.079004799E0
2.264262875E0,-6.437687370E0,-1.495659876E0,2.296179513E0,6.996660453E0
2.274247875E0,-6.540909437E0,-1.911552445E0,2.750247238E0,7.348563729E0
2.284232875E0,-7.105942842E0,-2.564896933E0,2.944641430E0,8.108269428E0
2.294218875E0,-8.023231815E0,-3.339584010E0,2.946507862E0,9.176436056E0
2.304203875E0,-9.239594758E0,-4.047668377E0,3.007081215E0,1.052598062E1
2.314189875E0,-1.073678602E1,-4.808463054E0,2.895495583E0,1.211543584E1
2.324174875E0,-1.203395924E1,-5.842679967E0,2.440647694E0,1.359815595E1
2.334160875E0,-1.283330402E1,-7.108918490E0,1.919867917E0,1.479582059E1
2.344145875E0,-1.304857628E1,-8.482737595E0,1.448766084E0,1.563077424E1
2.354130875E0,-1.262801881E1,-9.760917887E0,1.159218835E0,1.600269244E1
2.364116875E0,-1.190307282E1,-1.099119136E1,1.312158462E0,1.625457443E1
2.374101875E0,-1.116086469E1,-1.219991959E1,1.744459341E0,1.662666765E1
2.384087875E0,-1.055295892E1,-1.323919084E1,2.497786685E0,1.711373876E1
2.394072875E0,-9.910279748E0,-1.409060157E1,3.448494834E0,1.756846077E1
2.404058875E0,-9.261317164E0,-1.495601638E1,4.428624125E0,1.814020764E1
2.414043875E0,-8.582728491E0,-1.574802057E1,5.429915074E0,1.873892628E1
2.424028875E0,-7.785295161E0,-1.658996115E1,6.320014493E0,1.938505133E1
2.434014875E0,-7.096755112E0,-1.736486458E1,6.669838203E0,1.990952527E1
2.443999875E0,-6.255713832E0,-1.813661752E1,6.753226515E0,2.033904912E1
2.453985875E0,-5.097218444E0,-1.839475338E1,6.888715273E0,2.029292946E1
2.463970875E0,-3.628657488E0,-1.827254190E1,6.714130277E0,1.980233542E1
2.473955875E0,-4.920917290E-1,-1.790163547E1,5.967256651E0,1.887641011E1
2.483941875E0,4.515903466E0,-1.689513903E1,4.420528362E0,1.803829754E1
2.493926875E0,1.025688866E1,-1.484459301E1,2.887714108E0,1.827305665E1
2.503912875E0,1.406534627E1,-1.246731042E1,4.027538168E0,1.922209298E1
2.513897875E0,1.445817509E1,-1.050431242E1,7.310334020E0,1.930855742E1
2.523883875E0,1.364911808E1,-9.092464778E0,1.050124029E1,1.947427502E1
2.533868875E0,1.335684149E1,-8.095163092E0,1.197651151E1,1.968181161E1
2.543853875E0,1.468950380E1,-7.368288698E0,1.053162476E1,1.951892211E1
2.553839875E0,1.691187961E1,-7.342412429E0,7.272441139E0,1.981946247E1
2.563824875E0,1.820091935E1,-8.190210167E0,3.908602293E0,2.033790008E1
2.573810875E0,1.982463618E1,-8.617467384E0,1.074079136E0,2.164325737E1
2.583795875E0,2.173746390E1,-8.722586288E0,-5.351029703E-1,2.342834146E1
2.593780875E0,2.419575264E1,-8.452922643E0,-4.019545609E-1,2.563294588E1
2.603766875E0,2.703433026E1,-7.394432768E0,5.710534063E-1,2.803317232E1
2.613751875E0,2.901819931E1,-6.740732185E0,1.978117733E0,2.985642831E1
2.623737875E0,2.969895789E1,-6.392730467E0,2.943081393E0,3.052141593E1
2.633722875E0,2.952140835E1,-6.228345355E0,3.125323902E0,3.033271314E1
2.643708875E0,2.781390444E1,-6.557496234E0,3.003687199E0,2.873388546E1
2.653693875E0,2.517471454E1,-7.309672115E0,3.041166682E0,2.639026815E1
2.663678875E0,2.248792596E1,-8.199261657E0,2.913908465E0,2.411276774E1
2.673664875E0,1.987777801E1,-9.084850534E0,3.018677998E0,2.206293237E1
2.683649875E0,1.731304655E1,-9.905682667E0,3.646089208E0,2.027703372E1
2.693635875E0,1.510367378E1,-1.050915391E1,4.711540192E0,1.899373288E1
2.703620875E0,1.328061017E1,-1.106920725E1,6.074844834E0,1.832500192E1
2.713606875E0,1.156714210E1,-1.172658748E1,7.593959062E0,1.813780154E1
2.723592292E0,1.019689389E1,-1.238406361E1,9.175527400E0,1.848058385E1
2.733577292E0,8.909777881E0,-1.303172929E1,1.060145806E1,1.901580982E1
2.743563292E0,7.412974289E0,-1.393544219E1,1.178719504E1,1.969991634E1
2.753548292E0,6.393549662E0,-1.498483263E1,1.245980844E1,2.051022947E1
2.763534292E0,5.694609756E0,-1.618111097E1,1.243854914E1,2.118901690E1
2.773519292E0,4.639621194E0,-1.767347360E1,1.220652227E1,2.197446108E1
2.783505292E0,3.252333612E0,-1.943195822E1,1.195239877E1,2.304427284E1
2.793490292E0,1.373100482E0,-2.090252828E1,1.170475632E1,2.399588327E1
2.803475292E0,-1.213531721E0,-2.217196815E1,1.162932841E1,2.506611478E1
2.813461292E0,-5.008188154E0,-2.331492574E1,1.151899495E1,2.648310698E1
2.823446292E0,-8.608832216E0,-2.254796049E1,1.062836110E1,2.637204153E1
2.833432292E0,-1.153319316E1,-2.040250013E1,9.864701872E0,2.542811238E1
2.843417292E0,-1.426720151E1,-1.820136725E1,9.181716678E0,2.488265922E1
2.853403292E0,-1.616830674E1,-1.610615084E1,8.428259672E0,2.432812773E1
2.863388292E0,-1.724115270E1,-1.331705704E1,7.946686499E0,2.318946271E1
2.873373292E0,-1.750946505E1,-1.071987938E1,7.545756955E0,2.187317143E1
2.883359292E0,-1.674738457E1,-9.067132886E0,6.748959802E0,2.020485702E1
2.893344292E0,-1.584259578E1,-7.744919552E0,5.570174575E0,1.849320050E1
2.903330292E0,-1.568010165E1,-6.598258928E0,4.670280777E0,1.764126218E1
2.913315292E0,-1.615499731E1,-5.747721185E0,3.925109860E0,1.759052939E1
2.923300292E0,-1.629873941E1,-4.661414351E0,2.317304188E0,1.710986817E1
2.933286292E0,-1.530980684E1,-3.740200728E0,4.155113304E-1,1.576553002E1
2.943271292E0,-1.396588748E1,-3.077130566E0,-1.326433854E0,1.436224816E1
2.953257292E0,-1.214808987E1,-2.590585506E0,-2.383457247E0,1.264784919E1
2.963242292E0,-1.077714350E1,-1.925392805E0,-2.289662061E0,1.118465520E1
2.973228292E0,-1.019974265E1,-1.245131244E0,-8.576634523E-1,1.031119239E1
2.983213292E0,-9.190120296E0,-6.564750874E-1,9.027975252E-1,9.257662447E0
2.993198292E0,-7.433604435E0,-2.225894666E-1,2.122705343E0,7.733944591E0
3.003184292E0,-5.588714926E0,-1.489344299E-2,2.410789472E0,6.086531214E0
3.013169292E0,-4.049451778E0,2.503894687E-1,2.113491008E0,4.574669259E0
3.023155292E0,-3.119524342E0,4.792068046E-1,1.524523195E0,3.505030991E0
3.033140292E0,-2.680656016E0,4.382914978E-1,9.246628958E-1,2.869323541E0
3.043126292E0,-2.568908123E0,2.661646718E-1,3.851806533E-1,2.611225137E0
3.053111292E0,-2.560560931E0,1.200889456E-1,-1.612714702E-1,2.568443521E0
3.063096292E0,-2.564784082E0,1.285387570E-1,-5.081777117E-1,2.617801403E0
3.073082292E0,-2.590259231E0,7.323696077E-2,-4.829086769E-1,2.635907306E0
3.083067292E0,-2.674531642E0,1.551775020E-1,-3.239430562E-1,2.698543805E0
3.093053292E0,-2.414099288E0,2.429518104E-1,-2.438122281E-1,2.438512940E0
3.103038292E0,-1.988989607E0,1.659679538E-1,-1.632884672E-1,2.002570384E0
3.113023292E0,-1.884086173E0,2.667499781E-3,2.106342494E-2,1.884205798E0
3.123009292E0,-2.230645821E0,-3.051755404E-1,2.521562049E-1,2.265501190E0
3.132994292E0,-3.006784469E0,-8.393438333E-1,4.318376336E-1,3.151465477E0
3.142980292E0,-4.434666930E0,-1.229175362E0,4.095965794E-1,4.620055433E0
3.152965292E0,-5.912207454E0,-1.235808443E0,1.933817473E-1,6.043080009E0
3.162951292E0,-6.593349021E0,-1.535941345E0,1.814677531E-1,6.772318486E0
3.172936292E0,-7.275246048E0,-1.839359213E0,4.487404722E-1,7.517567119E0
3.182921292E0,-7.891053751E0,-2.146362593E0,9.735546818E-1,8.235496973E0
3.192907292E0,-8.286768748E0,-2.579178758E0,1.549521796E0,8.816105554E0
3.202892292E0,-9.051512049E0,-3.187633587E0,1.961925916E0,9.794898242E0
3.212878292E0,-1.049339684E1,-3.903532172E0,2.347503010E0,1.143939295E1
3.222863292E0,-1.221855350E1,-4.725039659E0,2.556009166E0,1.334736799E1
3.232849292E0,-1.393727120E1,-5.758612209E0,2.328900386E0,1.525886366E1
3.242834292E0,-1.539311680E1,-7.021496769E0,1.658467118E0,1.699999926E1
3.252819292E0,-1.685767592E1,-8.035491087E0,9.937932108E-1,1.870128283E1
3.262805292E0,-1.748790871E1,-9.215506568E0,6.893987122E-1,1.977947883E1
3.272790292E0,-1.701412519E1,-1.080348170E1,8.828244598E-1,2.017362268E1
3.282776292E0,-1.595132709E1,-1.236987944E1,1.838974027E0,2.026920272E1
3.292761292E0,-1.454594296E1,-1.374270978E1,3.487655976E0,2.031281056E1
3.302746292E0,-1.285574681E1,-1.500796655E1,5.711633924E0,2.057017375E1
3.312732292E0,-1.145795470E1,-1.604028078E1,8.324984980E0,2.139814731E1
3.322717292E0,-9.832588964E0,-1.648493113E1,1.030649994E1,2.178661748E1
3.332703292E0,-8.095275943E0,-1.676402575E1,1.095566367E1,2.160075504E1
3.342688292E0,-6.480175577E0,-1.706853237E1,1.045882693E1,2.104078262E1
3.352674292E0,-4.739551279E0,-1.733637928E1,9.722644937E0,2.043387427E1
3.362659292E0,-2.268392814E0,-1.713605134E1,9.872448263E0,1.990615724E1
3.372644292E0,1.097613595E0,-1.637051749E1,1.057653606E1,1.952080207E1
3.382630292E0,4.829115420E0,-1.547089763E1,1.095277398E1,1.956098891E1
3.392615292E0,9.413878621E0,-1.400655135E1,1.041765785E1,1.983260413E1
3.402601292E0,1.364828543E1,-1.261257046E1,9.171921422E0,2.072382135E1
3.412586292E0,1.558324837E1,-1.186830177E1,8.459920591E0,2.133692745E1
3.422572292E0,1.644717449E1,-1.073433370E1,8.326542678E0,2.133229433E1
3.432557292E0,1.800921371E1,-9.602655979E0,8.351177582E0,2.205186947E1
3.442542292E0,2.064898365E1,-9.028730713E0,7.784026900E0,2.384301950E1
3.452528292E0,2.443072885E1,-8.141769494E0,6.171059014E0,2.648076457E1
3.462513292E0,2.767197146E1,-7.397690837E0,4.291276830E0,2.896340607E1
3.472499292E0,2.917349434E1,-7.545911322E0,2.670885611E0,3.025173020E1
3.482484292E0,2.891329559E1,-7.870566861E0,8.414868379E-1,2.997720108E1
3.492470292E0,2.819561068E1,-8.044684079E0,-7.146706706E-1,2.932951001E1
3.502455292E0,2.714798610E1,-8.041700830E0,-1.659125807E0,2.836255982E1
3.512440292E0,2.580240144E1,-7.735443555E0,-1.915558957E0,2.700500645E1
3.522426292E0,2.436798355E1,-7.423147275E0,-1.179403862E0,2.550083785E1
3.532411292E0,2.284093406E1,-7.172493512E0,7.287092507E-2,2.394072351E1
3.542397292E0,2.120464690E1,-7.163564814E0,1.430570134E0,2.242766688E1
3.552382292E0,1.969044725E1,-7.386822617E0,2.411653106E0,2.116825293E1
3.562367292E0,1.855892215E1,-7.698479796E0,2.862162945E0,2.029512649E1
3.572353292E0,1.740701014E1,-8.297938099E0,3.415236163E0,1.958375900E1
3.582338292E0,1.621398285E1,-9.111743048E0,4.467680017E0,1.912791849E1
3.592324292E0,1.527787052E1,-9.898910422E0,5.446675533E0,1.900179017E1
3.602309292E0,1.444606667E1,-1.078276385E1,6.379106455E0,1.912197264E1
3.612295292E0,1.313176462E1,-1.175473598E1,7.552794664E0,1.917450827E1
3.622280292E0,1.163357582E1,-1.245727777E1,8.942916391E0,1.924836641E1
3.632265292E0,9.756576914E0,-1.340271875E1,1.058036248E1,1.966641129E1
3.642251292E0,7.466588579E0,-1.473682532E1,1.242399542E1,2.067074328E1
3.652236292E0,5.353156920E0,-1.573019241E1,1.358145410E1,2.146045521E1
3.662222292E0,4.383861058E0,-1.617457963E1,1.397324795E1,2.181941618E1
3.672207292E0,3.798521442E0,-1.697902202E1,1.456028969E1,2.268739716E1
3.682192292E0,2.934425175E0,-1.836045946E1,1.499539621E1,2.388680034E1
3.692178292E0,1.669713360E0,-1.935741090E1,1.437728003E1,2.417030162E1
3.702163292E0,-1.632327140E0,-2.029135859E1,1.346372859E1,2.440646867E1
3.712149292E0,-5.904843471E0,-2.090083727E1,1.237761647E1,2.499835123E1
3.722134292E0,-1.022442141E1,-2.072469106E1,1.070051457E1,2.546669639E1
3.732120500E0,-1.530166869E1,-1.921660761E1,8.296825958E0,2.592790762E1
3.742105500E0,-2.008766031E1,-1.709431157E1,6.290928104E0,2.711651455E1
3.752090500E0,-2.300840534E1,-1.477952286E1,4.581833746E0,2.772749921E1
3.762076500E0,-2.264658899E1,-1.212274336E1,2.987836274E0,2.586031835E1
3.772061500E0,-1.977133764E1,-1.005648353E1,2.000282189E0,2.227195056E1
3.782047500E0,-1.627096981E1,-8.799877124E0,1.170860496E0,1.853518844E1
3.792032500E0,-1.385097332E1,-7.715937828E0,3.978039148E-1,1.586012000E1
3.802018500E0,-1.304273725E1,-6.539119020E0,-4.416723579E-2,1.459023726E1
3.812003500E0,-1.349225833E1,-5.710402501E0,-3.965450093E-1,1.465629488E1
3.821988500E0,-1.440061626E1,-5.303395945E0,-9.381997848E-1,1.537478378E1
3.831974500E0,-1.467096228E1,-4.701682371E0,-1.565659819E0,1.548529115E1
3.841959500E0,-1.360943536E1,-3.982147987E0,-1.794123106E0,1.429311412E1
3.851945500E0,-1.190160049E1,-3.200947112E0,-1.466037297E0,1.241142305E1
3.861930500E0,-9.856785911E0,-2.376620098E0,-8.222246477E-1,1.017254172E1
3.871916500E0,-7.456129664E0,-1.555962796E0,-3.259409036E-1,7.623721353E0
3.881901500E0,-5.216151980E0,-8.124513191E-1,4.322905004E-2,5.279222232E0
3.891886500E0,-3.412560185E0,-3.083885854E-1,3.225555119E-1,3.441614824E0
3.901872500E0,-1.885079907E0,7.011279345E-2,4.057777628E-1,1.929533014E0
3.911857500E0,-9.806420919E-1,5.602076983E-1,3.631541920E-1,1.186327335E0
3.921843500E0,-6.565728821E-1,9.862475252E-1,3.098085818E-1,1.224644229E0
3.931828500E0,-1.625723295E-1,1.098471966E0,2.183312318E-1,1.131697375E0
3.941813500E0,1.164306352E-1,1.153063910E0,2.062178475E-1,1.177131375E0
3.951799500E0,-1.988893859E-1,1.204848606E0,4.142541790E-1,1.289505206E0
3.961784500E0,-5.813529843E-1,1.193431333E0,5.120617247E-1,1.422834090E0
3.971770500E0,-9.243999173E-1,1.044399254E0,2.970654523E-1,1.426019948E0
3.981755500E0,-1.377895199E0,6.308239371E-1,-1.211893916E-2,1.515480415E0
3.991741500E0,-1.922052437E0,3.220324785E-1,-4.482462363E-1,1.999728775E0
4.001726500E0,-2.065605966E0,-5.267171860E-3,-8.314155936E-1,2.226658402E0
4.011711500E0,-2.298173999E0,-2.043321204E-1,-9.442839588E-1,2.492995696E0
4.021697500E0,-2.832784195E0,-2.895798469E-1,-7.963520341E-1,2.956805598E0
4.031682500E0,-3.427459183E0,-3.688628286E-1,-6.878839910E-1,3.515212742E0
4.041668500E0,-3.846019544E0,-4.892417961E-1,-6.314153829E-1,3.928092317E0
4.051653500E0,-4.282205752E0,-7.498714936E-1,-5.389421059E-1,4.380645152E0
4.061639500E0,-4.817711595E0,-1.109854741E0,-3.949957895E-1,4.959651624E0
4.071624500E0,-5.543049926E0,-1.503431411E0,-2.325121915E-1,5.748023174E0
4.081609500E0,-6.456485583E0,-1.919169613E0,-1.119202392E-1,6.736612222E0
4.091595500E0,-7.373161182E0,-2.394810201E0,-5.638937831E-2,7.752535165E0
4.101580500E0,-8.350412766E0,-2.814118128E0,-2.852067143E-2,8.811893533E0
4.111566500E0,-9.296644871E0,-3.211237042E0,-4.611698985E-2,9.835739727E0
4.121551500E0,-1.012724653E1,-3.614693753E0,3.148184761E-2,1.075305186E1
4.131536500E0,-1.082095201E1,-4.052750777E0,3.019000764E-1,1.155893312E1
4.141522500E0,-1.119367225E1,-4.472324168E0,6.532345605E-1,1.207173133E1
4.151507500E0,-1.130296606E1,-4.945559796E0,1.028161244E0,1.238033598E1
4.161493500E0,-1.124926290E1,-5.445984392E0,1.337293595E0,1.256952727E1
4.171478500E0,-1.116777376E1,-6.008318723E0,1.658008696E0,1.278937283E1
4.181464500E0,-1.105660767E1,-6.705169419E0,1.998689699E0,1.308444231E1
4.191449500E0,-1.086921961E1,-7.435228792E0,2.250447417E0,1.335990552E1
4.201434500E0,-1.068173448E1,-8.163959677E0,2.464015507E0,1.366825013E1
4.211420500E0,-1.064041221E1,-9.105967754E0,2.738013693E0,1.427002942E1
4.221405500E0,-1.066811632E1,-1.013908948E1,3.233492714E0,1.506868662E1
4.231391500E0,-1.073226963E1,-1.096112497E1,3.744162802E0,1.579071332E1
4.241376500E0,-1.054065520E1,-1.190644316E1,4.427078998E0,1.650659957E1
4.251362500E0,-1.022277366E1,-1.298101755E1,5.562138162E0,1.743414176E1
4.261347500E0,-9.495801621E0,-1.381171043E1,7.148961977E0,1.822199909E1
4.271332500E0,-8.356261736E0,-1.467044422E1,8.665909227E0,1.897754005E1
4.281318500E0,-7.403248031E0,-1.534536961E1,9.869753866E0,1.969011151E1
4.291303500E0,-6.376321426E0,-1.580250844E1,1.057647642E1,2.005588695E1
4.301289500E0,-4.496344530E0,-1.663023678E1,1.041650361E1,2.013170228E1
4.311274500E0,-1.863004183E0,-1.717312034E1,1.005139528E1,1.998542954E1
4.321260500E0,2.015055764E0,-1.686892480E1,9.561698572E0,1.949479810E1
4.331245500E0,7.178727229E0,-1.582780232E1,8.640908287E0,1.940924385E1
4.341230500E0,1.242198281E1,-1.414059526E1,7.015073018E0,2.008664583E1
4.351216500E0,1.678088912E1,-1.223138930E1,4.746275869E0,2.130099196E1
4.361201500E0,1.930008012E1,-1.039731071E1,3.666016226E0,2.222693946E1
4.371187500E0,1.878369029E1,-9.271252753E0,5.040104595E0,2.154497163E1
4.381172500E0,1.821423346E1,-8.419515746E0,7.038604553E0,2.126472431E1
4.391157500E0,1.958585460E1,-7.061261929E0,7.638335921E0,2.217681889E1
4.401143500E0,2.143010150E1,-6.014338431E0,6.869596632E0,2.329405235E1
4.411128500E0,2.261852937E1,-5.762828051E0,5.287646470E0,2.393255655E1
4.421114500E0,2.308941968E1,-5.973395643E0,3.484102331E0,2.410273274E1
4.431099500E0,2.308933782E1,-6.136082724E0,2.051329551E0,2.397867772E1
4.441085500E0,2.272535332E1,-6.408510933E0,1.114555902E0,2.363795530E1
4.451070500E0,2.231106172E1,-6.734193243E0,8.123668268E-1,2.331936478E1
4.461055500E0,2.250692006E1,-6.679076219E0,8.530649096E-1,2.349253561E1
4.471041500E0,2.284131530E1,-6.466149276E0,1.180108452E0,2.376824409E1
4.481026500E0,2.271021137E1,-6.080167555E0,2.010569488E0,2.359585828E1
4.491012500E0,2.168846189E1,-5.892166123E0,3.203281613E0,2.270171830E1
4.500997500E0,1.982440229E1,-6.163810220E0,4.271859688E0,2.119547753E1
4.510983500E0,1.771062330E1,-6.578560828E0,4.948654143E0,1.953030512E1
4.520968500E0,1.583669594E1,-7.202323083E0,5.176556974E0,1.815133984E1
4.530953500E0,1.425497382E1,-8.052101272E0,5.170241396E0,1.716892569E1
4.540939500E0,1.306877958E1,-8.865758287E0,5.131363260E0,1.660498596E1
4.550924500E0,1.194779116E1,-9.430782337E0,5.834556431E0,1.630127044E1
4.560910500E0,1.066149610E1,-9.909949965E0,7.401064095E0,1.632943224E1
4.570895500E0,9.625679975E0,-1.020063026E1,9.395247054E0,1.688126891E1
4.580880500E0,8.772775864E0,-1.063348911E1,1.125420496E1,1.779578086E1
4.590866500E0,7.629282677E0,-1.149198667E1,1.260117658E1,1.868318396E1
4.600851500E0,6.579010479E0,-1.244999799E1,1.343145781E1,1.945995600E1
4.610837500E0,5.313659563E0,-1.373786945E1,1.380284371E1,2.018619651E1
4.620822500E0,3.829780657E0,-1.530339362E1,1.366561775E1,2.087127654E1
4.630808500E0,2.673924701E0,-1.662392763E1,1.323857337E1,2.141879240E1
4.640793500E0,1.574946951E0,-1.789680216E1,1.296864601E1,2.215765703E1
4.650778500E0,4.856375724E-1,-1.912610207E1,1.296560429E1,2.311169658E1
4.660764500E0,-1.493947227E0,-2.022446644E1,1.331934447E1,2.426243719E1
4.670749500E0,-4.013181792E0,-2.087655495E1,1.314346958E1,2.499373856E1
4.680735500E0,-6.713350843E0,-2.074488501E1,1.203700213E1,2.490599835E1
4.690720500E0,-9.288992035E0,-1.998325243E1,1.031854404E1,2.433286053E1
4.700706500E0,-1.193419404E1,-1.853510644E1,8.169787012E0,2.351001017E1
4.710691500E0,-1.511865552E1,-1.650282361E1,6.032306925E0,2.317985458E1
4.720676500E0,-1.800659650E1,-1.447360706E1,4.242162557E0,2.348869434E1
4.730662500E0,-1.934833017E1,-1.250372571E1,2.523221196E0,2.317472076E1
4.740647500E0,-1.903843125E1,-1.043374354E1,7.080101073E-1,2.172155950E1
4.750633500E0,-1.781027740E1,-8.737967974E0,-7.888972726E-1,1.985397754E1
4.760618500E0,-1.671059389E1,-7.770007616E0,-1.731806405E0,1.850989249E1
4.770604500E0,-1.563737956E1,-6.910827103E0,-2.586593027E0,1.729096973E1
4.780589500E0,-1.438717118E1,-5.829270548E0,-3.344554728E0,1.587945641E1
4.790574500E0,-1.333541846E1,-4.885986024E0,-3.736534524E0,1.468563704E1
4.800560500E0,-1.239114225E1,-4.089414573E0,-3.653070198E0,1.355022656E1
4.810545500E0,-1.136920683E1,-3.341220061E0,-3.396506070E0,1.232715981E1
4.820531500E0,-1.032770312E1,-2.708727329E0,-3.035116568E0,1.110002649E1
4.830516500E0,-9.256042975E0,-2.084324804E0,-2.411525344E0,9.789494161E0
4.840501500E0,-8.081285310E0,-1.422210077E0,-1.733403279E0,8.386569066E0
4.850487500E0,-6.732734363E0,-1.029371910E0,-9.889395833E-1,6.882392028E0
4.860472500E0,-5.506347538E0,-6.522440422E-1,-2.671244922E-1,5.551273817E0
4.870458500E0,-4.443975697E0,-1.805251819E-1,3.121255410E-1,4.458579560E0
4.880443500E0,-3.366985232E0,6.347269535E-2,8.377726865E-1,3.470227862E0
4.890429500E0,-2.513504586E0,1.001744986E-1,1.250191717E0,2.809042463E0
4.900414500E0,-2.082652793E0,5.288046420E-2,1.358838246E0,2.487303837E0
4.910399500E0,-2.101691765E0,-9.009039044E-2,1.056241328E0,2.353905329E0
4.920385500E0,-2.532864132E0,-2.800564867E-1,5.736361215E-1,2.612066375E0
4.930370500E0,-3.290087914E0,-6.367144221E-1,2.054474768E-1,3.357423477E0
4.940356500E0,-4.243506247E0,-9.862118572E-1,-1.898590922E-1,4.360734522E0
4.950341500E0,-5.170096385E0,-1.151427274E0,-6.258763155E-1,5.333610650E0
4.960326500E0,-5.832042128E0,-1.421821237E0,-8.865972295E-1,6.067977065E0
4.970312500E0,-6.288588048E0,-1.667301968E0,-9.558051664E-1,6.575697606E0
4.980297500E0,-6.569088339E0,-1.912694991E0,-8.287109640E-1,6.891885489E0
4.990283500E0,-6.945155522E0,-2.070204948E0,-6.342989373E-1,7.274838066E0
5.000268500E0,-7.200518047E0,-2.404922960E0,-3.598914456E-1,7.600041871E0
5.010254500E0,-7.414843644E0,-2.844844662E0,-1.496284944E-1,7.943263567E0
5.020239500E0,-7.785289899E0,-3.213250823E0,7.423332632E-3,8.422337844E0
5.030224500E0,-8.406928445E0,-3.622360037E0,2.306866908E-1,9.157027599E0
5.040210500E0,-9.165522814E0,-4.128825392E0,4.053304508E-1,1.006073061E1
5.050195500E0,-9.987529653E0,-4.670326093E0,5.102233601E-1,1.103734670E1
5.060181500E0,-1.087979020E1,-5.344393113E0,6.289572135E-1,1.213787295E1
5.070166500E0,-1.199467764E1,-6.091720483E0,8.299681154E-1,1.347850872E1
5.080152500E0,-1.293884743E1,-6.927736666E0,1.012626946E0,1.471165258E1
5.090137500E0,-1.357248914E1,-7.919419178E0,1.425049485E0,1.577847989E1
5.100122500E0,-1.379375948E1,-9.032102802E0,2.109104719E0,1.662212394E1
5.110108500E0,-1.351749608E1,-1.024763486E1,2.936171154E0,1.721504637E1
5.120093500E0,-1.284828693E1,-1.143503245E1,3.784208043E0,1.761132234E1
5.130079500E0,-1.202482706E1,-1.256475076E1,4.701070168E0,1.801581217E1
5.140064500E0,-1.126286235E1,-1.366019387E1,5.862448819E0,1.864996705E1
5.150049500E0,-1.040478813E1,-1.479872043E1,7.012026619E0,1.940181074E1
5.160035500E0,-9.457821617E0,-1.596193979E1,8.127930889E0,2.025579354E1
5.170020500E0,-8.394489663E0,-1.666116855E1,9.509381779E0,2.094016084E1
5.180006500E0,-6.885622680E0,-1.711663858E1,1.099456520E1,2.147723399E1
5.189991500E0,-4.513420154E0,-1.746707391E1,1.196996614E1,2.165062867E1
5.199977500E0,-1.744714426E0,-1.734928409E1,1.226684799E1,2.131941009E1
5.209962500E0,5.777762425E-1,-1.662308563E1,1.162760582E1,2.029438391E1
5.219947500E0,1.942660802E0,-1.586489121E1,1.077569924E1,1.927652454E1
5.229933500E0,3.064644422E0,-1.545769462E1,1.069317281E1,1.904406241E1
5.239918500E0,5.926678144E0,-1.546442360E1,1.009271755E1,1.939424808E1
5.249904500E0,1.034693227E1,-1.448622886E1,8.004358757E0,1.951869855E1
5.259889500E0,1.492249079E1,-1.254821835E1,5.653538328E0,2.030027119E1
5.269875500E0,1.884363945E1,-1.053840169E1,4.680509019E0,2.209180442E1
5.279860500E0,2.123108333E1,-8.732658702E0,5.501159889E0,2.360679960E1
5.289845500E0,2.195355126E1,-7.371300014E0,7.491905268E0,2.433974366E1
5.299831500E0,2.213869282E1,-6.622393895E0,8.781905122E0,2.472043038E1
5.309816500E0,2.277722748E1,-5.993144614E0,8.035477638E0,2.488551335E1
5.319802500E0,2.329325128E1,-5.919259197E0,5.859656773E0,2.473759815E1
5.329787500E0,2.323089657E1,-6.510408021E0,3.514297060E0,2.438053018E1
5.339772500E0,2.318145485E1,-6.763502412E0,1.585357334E0,2.419996223E1
5.349758500E0,2.296498859E1,-6.779503317E0,3.585091639E-1,2.394746114E1
5.359743500E0,2.285385875E1,-6.529303883E0,2.296201587E-2,2.376828131E1
5.369729500E0,2.259969432E1,-6.029346480E0,7.499609560E-1,2.340217177E1
5.379714500E0,2.192685755E1,-5.592068889E0,2.122346324E0,2.272801510E1
5.389700500E0,2.079217963E1,-5.273100936E0,3.308318656E0,2.170403878E1
5.399685500E0,1.929034100E1,-5.351430237E0,4.176128489E0,2.044981933E1
5.409670500E0,1.744386982E1,-6.039611852E0,4.813081770E0,1.907698251E1
5.419656500E0,1.568712065E1,-6.836431809E0,5.118508156E0,1.786117801E1
5.429641500E0,1.422063195E1,-7.547927442E0,5.258736666E0,1.693670254E1
5.439627500E0,1.304049543E1,-8.183965341E0,5.513227372E0,1.635321026E1
5.449612500E0,1.212508575E1,-8.708449475E0,6.088793367E0,1.612228897E1
5.459598500E0,1.109149449E1,-9.227803262E0,6.985318877E0,1.603023028E1
5.469583500E0,9.704332627E0,-9.881717269E0,8.318363593E0,1.615603852E1
5.479568500E0,8.204661561E0,-1.054715614E1,9.758273776E0,1.654638574E1
5.489554500E0,7.581380532E0,-1.084575473E1,1.097343453E1,1.719081126E1
5.499539500E0,7.540454700E0,-1.121093674E1,1.204259324E1,1.809882901E1
5.509525500E0,7.324970185E0,-1.214377579E1,1.318789555E1,1.936613198E1
5.519510500E0,6.708046249E0,-1.352570206E1,1.414012865E1,2.068539918E1
5.529496500E0,6.256312003E0,-1.472996069E1,1.464615956E1,2.169385101E1
5.539481500E0,6.194938458E0,-1.571083228E1,1.494555104E1,2.255165203E1
5.549466500E0,5.698132703E0,-1.713743829E1,1.497315106E1,2.345966241E1
5.559452500E0,4.542104840E0,-1.915232800E1,1.449544173E1,2.444504480E1
5.569437500E0,2.813466164E0,-2.095515790E1,1.343251148E1,2.504928341E1
5.579423500E0,8.020324579E-1,-2.235023339E1,1.221399150E1,2.548249942E1
5.589408500E0,-1.534569881E0,-2.334612180E1,1.055944582E1,2.566901252E1
5.599393500E0,-3.828439013E0,-2.389841237E1,8.625151795E0,2.569405189E1
5.609379500E0,-6.129468938E0,-2.368288868E1,6.773897592E0,2.538376044E1
5.619364500E0,-9.177242389E0,-2.271271398E1,5.096096363E0,2.502117808E1
5.629350500E0,-1.362942348E1,-2.115795337E1,3.468416005E0,2.540570969E1
5.639335500E0,-1.900374557E1,-1.887319946E1,1.889319285E0,2.684975849E1
5.649321500E0,-2.404481963E1,-1.585741145E1,4.029468334E-1,2.880578441E1
5.659306500E0,-2.624537013E1,-1.280332301E1,-1.226804316E0,2.922754834E1
5.669291500E0,-2.443915352E1,-1.066526989E1,-2.638086824E0,2.679514338E1
5.679277500E0,-2.024654553E1,-9.679834548E0,-3.538042603E0,2.271870481E1
5.689262500E0,-1.574964493E1,-9.156395311E0,-3.972334312E0,1.864591994E1
5.699248500E0,-1.221043873E1,-8.091959987E0,-3.880629506E0,1.515367664E1
5.709233500E0,-1.005750562E1,-6.563491969E0,-3.325683132E0,1.246166179E1
5.719219500E0,-9.065212076E0,-5.178584788E0,-2.886493210E0,1.083178902E1
5.729204375E0,-8.565113754E0,-4.370148752E0,-2.830199433E0,1.002344265E1
5.739189375E0,-8.062180703E0,-3.895740173E0,-2.947376465E0,9.426694925E0
5.749175375E0,-7.356286118E0,-3.239147556E0,-2.946914535E0,8.561035429E0
5.759160375E0,-6.426763601E0,-2.346177154E0,-2.477788038E0,7.276487558E0
5.769146375E0,-5.272731392E0,-1.602160478E0,-1.398837879E0,5.685539723E0
5.779131375E0,-3.796837444E0,-9.918620217E-1,9.369549125E-2,3.925371790E0
5.789116375E0,-2.254583737E0,-5.047936356E-1,1.419164262E0,2.711455632E0
5.799102375E0,-8.838130778E-1,-9.543766916E-2,2.187712055E0,2.361422864E0
5.809087375E0,6.589285791E-2,3.615649188E-1,2.276650836E0,2.306124474E0
5.819073375E0,4.305822363E-1,6.796435100E-1,1.820598129E0,1.990450680E0
5.829058375E0,3.123682004E-1,5.942548656E-1,1.056944163E0,1.252135656E0
5.839044375E0,-2.042844656E-1,4.703371632E-1,1.597368684E-1,5.370894312E-1
5.849029375E0,-7.856011972E-1,4.167111790E-1,-6.649857098E-1,1.110415887E0
5.859014375E0,-1.205159093E0,2.476459551E-1,-1.207675735E0,1.724012076E0
5.869000375E0,-1.265778055E0,1.437643218E-1,-1.375910654E0,1.875097969E0
5.878985375E0,-9.963307562E-1,7.402925849E-2,-1.438333189E0,1.751273157E0
5.888971375E0,-7.222802371E-1,-5.986087024E-2,-1.304019138E0,1.491890739E0
5.898956375E0,-5.210541576E-1,-9.550198853E-2,-8.765753943E-1,1.024208224E0
5.908942375E0,-4.430192640E-1,-7.668097079E-2,-3.305682439E-1,5.580514344E-1
5.918927375E0,-6.267557368E-1,1.719081402E-3,1.384459868E-1,6.418668087E-1
5.928912375E0,-9.509923232E-1,-9.064704537E-2,4.132800329E-1,1.040866788E0
5.938898375E0,-1.319967418E0,-2.779918349E-1,3.617169464E-1,1.396578890E0
5.948883375E0,-1.605261841E0,-4.544485241E-1,1.074756244E-1,1.671807420E0
5.958869375E0,-1.902923417E0,-7.485623020E-1,-1.126702908E-1,2.047964268E0
5.968854375E0,-2.287214709E0,-1.204511222E0,-2.980664957E-1,2.602122603E0
5.978840375E0,-3.042871145E0,-1.825831094E0,-4.546140003E-1,3.577624614E0
5.988825375E0,-4.186576294E0,-2.415483617E0,-5.237552789E-1,4.861717984E0
5.998810375E0,-5.659770291E0,-2.900366313E0,-7.102680096E-1,6.399187850E0
6.008796375E0,-7.446661268E0,-3.432494513E0,-9.339859888E-1,8.252703342E0
6.018781375E0,-9.238179731E0,-3.992285305E0,-1.248060114E0,1.014100393E1
6.028767375E0,-1.067001549E1,-4.474572423E0,-1.498235283E0,1.166686496E1
6.038752375E0,-1.162700589E1,-4.935518957E0,-1.409525127E0,1.270957806E1
6.048737375E0,-1.206871158E1,-5.416821404E0,-7.959672873E-1,1.325252116E1
6.058723375E0,-1.181822388E1,-5.943418137E0,3.863571131E-1,1.323419460E1
6.068708375E0,-1.122779309E1,-6.254942585E0,1.475268589E0,1.293692629E1
6.078694375E0,-1.080578550E1,-6.488088614E0,2.053212062E0,1.277012036E1
6.088679375E0,-1.044881416E1,-6.986281913E0,2.538272806E0,1.282297474E1
6.098665375E0,-1.018921532E1,-7.445533925E0,3.003603584E0,1.297219021E1
6.108650375E0,-1.003831740E1,-7.896368870E0,3.345697274E0,1.320280833E1
6.118635375E0,-9.882512491E0,-8.603407170E0,3.521883530E0,1.356784182E1
6.128621375E0,-9.750575917E0,-9.254073048E0,3.446787447E0,1.387774990E1
6.138606375E0,-9.630490479E0,-9.781307128E0,3.346023549E0,1.412855936E1
6.148592375E0,-9.539231815E0,-1.046689258E1,3.436737252E0,1.457271240E1
6.158577375E0,-9.159894869E0,-1.116236392E1,3.960169473E0,1.497280817E1
6.168562375E0,-8.506534594E0,-1.165937374E1,5.113812257E0,1.531186476E1
6.178548375E0,-7.940644571E0,-1.206062605E1,7.042987041E0,1.606599525E1
6.188533375E0,-6.971471500E0,-1.262103021E1,9.046233768E0,1.702134436E1
6.198519375E0,-5.701234651E0,-1.304213148E1,1.046938349E1,1.766944427E1
6.208504375E0,-4.383218449E0,-1.306199214E1,1.119665784E1,1.775368664E1
6.218490375E0,-2.676229674E0,-1.319777852E1,1.090357785E1,1.732719172E1
6.228475375E0,-1.068252971E0,-1.346069740E1,9.765799727E0,1.666440467E1
6.238460375E0,8.057112336E-1,-1.357053617E1,8.080762569E0,1.581478253E1
6.248446375E0,2.681774004E0,-1.326018234E1,6.951255922E0,1.521000678E1
6.258431375E0,3.833112400E0,-1.309223510E1,7.268756808E0,1.545749644E1
6.268417375E0,5.290282980E0,-1.309282216E1,8.066130497E0,1.626258120E1
6.278402375E0,7.972365716E0,-1.266419904E1,8.027632429E0,1.698185605E1
6.288388375E0,1.161668906E1,-1.235755351E1,6.311302142E0,1.809666069E1
6.298373375E0,1.704050081E1,-1.134871468E1,3.204740201E0,2.072299092E1
6.308358375E0,2.209866980E1,-9.419328226E0,1.519069789E0,2.407036610E1
6.318344375E0,2.419233085E1,-7.862197157E0,2.152428494E0,2.552872822E1
6.328329375E0,2.400119707E1,-6.520468156E0,4.389594837E0,2.525554411E1
6.338315375E0,2.242450706E1,-5.641156849E0,6.252572708E0,2.395361837E1
6.348300375E0,2.037613620E1,-5.709475132E0,5.900223001E0,2.196810561E1
6.358286375E0,1.914234914E1,-5.964375728E0,3.307286038E0,2.032096084E1
6.368271375E0,1.852618593E1,-6.333969458E0,5.525957930E-1,1.958683477E1
6.378256375E0,1.778455784E1,-6.507915353E0,-1.240103223E0,1.897844345E1
6.388242375E0,1.659055757E1,-6.405585571E0,-2.068136787E0,1.790405867E1
6.398227375E0,1.542841878E1,-6.344535377E0,-2.011701216E0,1.680286217E1
6.408213375E0,1.478269906E1,-5.989807023E0,-1.076567419E0,1.598639976E1
6.418198375E0,1.461577275E1,-5.518172947E0,1.677343976E-1,1.562367372E1
6.428183375E0,1.452652436E1,-5.217926025E0,1.202308576E0,1.548199625E1
6.438169375E0,1.437746831E1,-5.051493802E0,2.171935683E0,1.539306627E1
6.448154375E0,1.428388596E1,-5.036227307E0,3.067193808E0,1.545317642E1
6.458140375E0,1.452543795E1,-5.524709550E0,3.507054406E0,1.593142159E1
6.468125375E0,1.498481743E1,-6.089168758E0,3.248630571E0,1.649776743E1
6.478111375E0,1.502827276E1,-6.737718530E0,2.837990263E0,1.671227160E1
6.488096375E0,1.433728975E1,-7.792488990E0,2.724169825E0,1.654393736E1
6.498081375E0,1.294615645E1,-8.826426991E0,2.755654450E0,1.590919268E1
6.508067375E0,1.118924824E1,-9.805279543E0,3.222080119E0,1.522250254E1
6.518052375E0,9.533517331E0,-1.067182696E1,4.195555571E0,1.491236165E1
6.528038375E0,8.512295271E0,-1.103689202E1,5.394466329E0,1.494564898E1
6.538023375E0,7.904892356E0,-1.117863438E1,7.019081869E0,1.538560041E1
6.548008375E0,7.521491010E0,-1.126026853E1,8.691149318E0,1.609044905E1
6.557994375E0,7.878622570E0,-1.109565888E1,9.981829787E0,1.687670778E1
6.567979375E0,8.399909447E0,-1.125874942E1,1.101102277E1,1.784826433E1
6.577965375E0,8.232729365E0,-1.203226004E1,1.189231161E1,1.881436126E1
6.587950375E0,7.326484614E0,-1.339251419E1,1.253653444E1,1.975351890E1
6.597936375E0,6.167293407E0,-1.518658028E1,1.291725250E1,2.086919118E1
6.607921375E0,4.754809588E0,-1.649704773E1,1.276074358E1,2.139152577E1
6.617906375E0,3.012298978E0,-1.785044426E1,1.261211438E1,2.206304001E1
6.627892375E0,7.221805421E-1,-1.899129919E1,1.236392814E1,2.267284077E1
6.637877375E0,-1.365949045E0,-1.964309650E1,1.171161276E1,2.291023637E1
6.647863375E0,-4.015988163E0,-1.967197005E1,1.087651576E1,2.283447310E1
6.657848375E0,-6.542280024E0,-1.929362479E1,1.016327006E1,2.276702536E1
6.667834375E0,-8.249227869E0,-1.848632663E1,9.568731018E0,2.239095009E1
6.677819375E0,-1.066040384E1,-1.750595555E1,8.638264761E0,2.224235392E1
6.687804375E0,-1.392552999E1,-1.655523688E1,7.778072680E0,2.298901190E1
6.697790375E0,-1.758400302E1,-1.540065854E1,7.243858194E0,2.447143084E1
6.707775375E0,-2.041213634E1,-1.336529189E1,5.928268002E0,2.510837905E1
6.717761375E0,-2.063618995E1,-1.072790995E1,4.038227463E0,2.360609388E1
6.727745792E0,-1.921081770E1,-9.082257879E0,2.601251997E0,2.140816285E1
6.737730792E0,-1.683642012E1,-8.517548409E0,1.228525444E0,1.890827724E1
6.747716792E0,-1.452892055E1,-7.825532191E0,7.949874401E-2,1.650256969E1
6.757701792E0,-1.339630669E1,-6.694177238E0,-7.732752666E-1,1.499569927E1
6.767687792E0,-1.301336318E1,-5.821799560E0,-1.110684753E0,1.429946125E1
6.777672792E0,-1.287112966E1,-5.294719847E0,-1.243314514E0,1.397304076E1
6.787658792E0,-1.256628741E1,-4.669270086E0,-1.645349474E0,1.350632583E1
6.797643792E0,-1.163966979E1,-4.005913995E0,-2.180225573E0,1.250130567E1
6.807628792E0,-1.002788012E1,-3.342185436E0,-2.399170470E0,1.083903142E1
6.817614792E0,-7.994392762E0,-2.686886224E0,-2.088575730E0,8.688602983E0
6.827599792E0,-6.151434004E0,-1.936514209E0,-1.554284061E0,6.633703832E0
6.837585792E0,-4.723543649E0,-1.302750292E0,-1.148532318E0,5.032707960E0
6.847570792E0,-3.617287870E0,-1.068002125E0,-9.415098935E-1,3.887395137E0
6.857556792E0,-2.852169469E0,-9.062675554E-1,-9.848710907E-1,3.150581316E0
6.867541792E0,-2.410564939E0,-6.462880683E-1,-1.130332274E0,2.739737696E0
6.877526792E0,-2.091829998E0,-5.820792085E-1,-1.162191414E0,2.462774416E0
6.887512792E0,-2.062932765E0,-4.847207290E-1,-1.244400634E0,2.457474053E0
6.897497792E0,-2.156684098E0,-3.033517939E-1,-1.382631444E0,2.579724465E0
6.907483792E0,-2.124008979E0,-3.041458458E-1,-1.430198543E0,2.578640478E0
6.917468792E0,-2.067739469E0,-2.614909923E-1,-1.286555551E0,2.449316075E0
6.927453792E0,-1.871111932E0,-1.805251819E-1,-9.390520164E-1,2.101301476E0
6.937439792E0,-1.617063276E0,-1.574818897E-1,-5.802057606E-1,1.725205179E0
6.947424792E0,-1.460773341E0,-2.494012892E-1,-2.917447785E-1,1.510355843E0
6.957410792E0,-1.564250347E0,-4.240973818E-1,-1.116619384E-1,1.624563365E0
6.967395792E0,-1.841625593E0,-6.253199530E-1,5.782077670E-2,1.945752582E0
6.977381792E0,-2.384408297E0,-8.267992169E-1,7.090947658E-2,2.524683747E0
6.987366792E0,-3.159370777E0,-1.097869118E0,-1.278572640E-1,3.347131277E0
6.997351792E0,-4.012286583E0,-1.423273686E0,-3.918999812E-1,4.275247034E0
7.007337792E0,-4.846683087E0,-1.527399732E0,-6.516344699E-1,5.123271842E0
7.017322792E0,-5.375049480E0,-1.779645692E0,-8.104220429E-1,5.719709747E0
7.027308792E0,-5.790998182E0,-2.184116310E0,-8.544638559E-1,6.247890243E0
7.037293792E0,-6.116704466E0,-2.605706990E0,-7.656402647E-1,6.692532216E0
7.047279792E0,-6.593583494E0,-2.903799798E0,-6.857412788E-1,7.237239644E0
7.057264792E0,-7.234293319E0,-3.003987746E0,-5.862710774E-1,7.855103817E0
7.067249792E0,-7.595230247E0,-3.375716879E0,-3.638178509E-1,8.319576334E0
7.077235792E0,-8.018037733E0,-3.564104227E0,-2.271467865E-1,8.777434915E0
7.087220792E0,-8.222644088E0,-3.538143759E0,-1.263045359E-1,8.952446028E0
7.097206792E0,-8.085240367E0,-3.943745813E0,2.893047354E-1,9.000441104E0
7.107191792E0,-7.870009037E0,-4.462911905E0,9.509946620E-1,9.097198237E0
7.117176792E0,-7.683865850E0,-4.985400969E0,1.699951943E0,9.315892541E0
7.127162792E0,-7.702004498E0,-5.728445254E0,2.244336784E0,9.857636933E0
7.137147792E0,-8.063176484E0,-6.494626386E0,2.403267760E0,1.062876676E1
7.147133792E0,-8.922952242E0,-7.259897692E0,2.513905120E0,1.177475733E1
7.157118792E0,-1.025394049E1,-8.251545120E0,2.363017574E0,1.337217800E1
7.167104792E0,-1.135579800E1,-9.332904040E0,1.927045813E0,1.482466700E1
7.177089792E0,-1.178059120E1,-1.042557732E1,1.589368232E0,1.581142254E1
7.187074792E0,-1.184496670E1,-1.157856522E1,1.741133591E0,1.665526808E1
7.197060792E0,-1.158673027E1,-1.286806221E1,2.333997989E0,1.747246090E1
7.207045792E0,-1.099279934E1,-1.406580470E1,3.530900813E0,1.819768556E1
7.217031792E0,-1.028654223E1,-1.483428320E1,5.172360427E0,1.877823798E1
7.227016792E0,-9.426215662E0,-1.553415281E1,7.168699839E0,1.953339967E1
7.237002792E0,-8.433316929E0,-1.609502709E1,9.078080043E0,2.031212123E1
7.246987792E0,-7.627578213E0,-1.660730400E1,1.014123190E1,2.090040861E1
7.256972792E0,-6.827803073E0,-1.706338565E1,1.037340262E1,2.110415851E1
7.266958792E0,-5.369852475E0,-1.753520566E1,1.013523851E1,2.095332463E1
7.276943792E0,-4.062364184E0,-1.783791836E1,9.874728677E0,2.078952622E1
7.286929792E0,-2.567377907E0,-1.790068939E1,9.476924470E0,2.041661596E1
7.296914792E0,2.375368794E0,-1.791089512E1,7.314225342E0,1.949206077E1
7.306900792E0,1.099190706E1,-1.676150092E1,3.479628918E0,2.034398563E1
7.316885792E0,1.891187412E1,-1.378642005E1,9.288091564E-1,2.342193517E1
7.326870792E0,2.128591150E1,-1.032836268E1,3.081162514E0,2.385914220E1
7.336856792E0,1.898674888E1,-8.466041456E0,9.020486138E0,2.266141349E1
7.346841792E0,1.671470098E1,-7.334609320E0,1.402725751E1,2.302046211E1
7.356827792E0,1.639100847E1,-6.324980534E0,1.423143293E1,2.260982575E1
7.366812792E0,1.712089769E1,-6.678656974E0,1.007801181E1,2.095938736E1
7.376797792E0,1.794532937E1,-8.331268398E0,4.846881892E0,2.037000597E1
7.386783792E0,1.904610865E1,-8.884619651E0,3.303121358E-1,2.101903487E1
7.396768792E0,1.964331168E1,-8.627749128E0,-2.467324446E0,2.159595885E1
7.406754792E0,1.946397874E1,-8.183915055E0,-2.678159255E0,2.128369026E1
7.416739792E0,1.921835710E1,-7.668170754E0,-1.089102387E0,2.072033388E1
7.426725792E0,1.946446640E1,-7.093881791E0,6.159147066E-1,2.072602138E1
7.436710792E0,2.059982494E1,-6.364574370E0,1.452146067E0,2.160947299E1
7.446695792E0,2.186362342E1,-5.729446882E0,1.900100673E0,2.268159989E1
7.456681792E0,2.202677010E1,-5.591282439E0,2.547483925E0,2.286767838E1
7.466666792E0,2.071077469E1,-5.761132359E0,2.897818682E0,2.169156950E1
7.476652792E0,1.833152393E1,-6.076784356E0,2.840265123E0,1.952022499E1
7.486637792E0,1.570190241E1,-6.647871968E0,2.695755281E0,1.726299620E1
7.496622792E0,1.352898352E1,-7.087985458E0,2.348724201E0,1.545281328E1
7.506608792E0,1.193953957E1,-7.596880331E0,2.146814875E0,1.431342062E1
7.516593792E0,1.078953960E1,-8.040686338E0,2.227367287E0,1.363920696E1
7.526579792E0,1.017336586E1,-8.270474312E0,2.694469770E0,1.338500226E1
7.536564792E0,9.797710907E0,-8.630622450E0,3.611539180E0,1.354717676E1
7.546550792E0,9.702466196E0,-9.001043562E0,4.648444058E0,1.402728297E1
7.556535792E0,9.900124304E0,-9.428460993E0,5.539950317E0,1.475125037E1
7.566520792E0,1.026667924E1,-9.966271516E0,6.456749293E0,1.569779863E1
7.576506792E0,9.909220233E0,-1.061505284E1,7.847318332E0,1.650613211E1
7.586491792E0,8.799039803E0,-1.172723652E1,9.562080980E0,1.750384445E1
7.596477792E0,7.549158865E0,-1.288104888E1,1.068170759E1,1.835783475E1
7.606462792E0,6.112716081E0,-1.386412955E1,1.136351398E1,1.893961024E1
7.616448792E0,4.912918884E0,-1.458864050E1,1.189245779E1,1.945239717E1
7.626433792E0,4.025196358E0,-1.530795795E1,1.255428425E1,2.020261952E1
7.636418792E0,3.189470197E0,-1.609952477E1,1.313150033E1,2.101912745E1
7.646404792E0,2.310910258E0,-1.676676108E1,1.323964341E1,2.148843272E1
7.656389792E0,1.545999141E0,-1.752358140E1,1.319906139E1,2.199275426E1
7.666375792E0,7.207658082E-1,-1.852606080E1,1.314568450E1,2.272759233E1
7.676360792E0,-8.850702292E-1,-1.961462407E1,1.294666399E1,2.351877835E1
7.686345792E0,-3.105169427E0,-2.030430433E1,1.187255504E1,2.372476374E1
7.696331792E0,-5.546299224E0,-2.012918022E1,1.051438133E1,2.337728697E1
7.706316792E0,-8.231380413E0,-1.924773351E1,9.344507840E0,2.292489248E1
7.716302792E0,-1.071955661E1,-1.804904027E1,8.166729503E0,2.252492440E1
7.726287792E0,-1.331236406E1,-1.659590193E1,6.336047559E0,2.219883998E1
7.736274292E0,-1.576298243E1,-1.505457588E1,4.136883732E0,2.218615958E1
7.746259292E0,-1.712442590E1,-1.323283959E1,2.052629972E0,2.173861302E1
7.756244292E0,-1.742836534E1,-1.156729646E1,3.801131639E-1,2.092115561E1
7.766230292E0,-1.759617458E1,-1.031387562E1,-6.934210119E-1,2.040789609E1
7.776215292E0,-1.759725164E1,-8.887868949E0,-1.084410874E0,1.974419982E1
7.786201292E0,-1.703857474E1,-7.522327747E0,-9.292614385E-1,1.864837716E1
7.796186292E0,-1.613931858E1,-6.416464316E0,-8.051121864E-1,1.738668526E1
7.806172292E0,-1.489884932E1,-5.616179883E0,-9.428050518E-1,1.595011188E1
7.816157292E0,-1.360098847E1,-5.080197784E0,-1.452798032E0,1.459129601E1
7.826142292E0,-1.264300171E1,-4.526606795E0,-2.273070002E0,1.361993056E1
7.836128292E0,-1.180457765E1,-4.018952701E0,-2.957057116E0,1.281578015E1
7.846113292E0,-1.097056355E1,-3.645101028E0,-3.288097522E0,1.201880241E1
7.856099292E0,-1.013923332E1,-2.983407301E0,-3.181790756E0,1.103759774E1
7.866084292E0,-9.037954111E0,-2.441817137E0,-2.279984042E0,9.635632448E0
7.876070292E0,-7.567674658E0,-1.843086812E0,-1.155090555E0,7.874065209E0
7.886055292E0,-5.837767721E0,-1.179982152E0,-2.733532387E-1,5.962097940E0
7.896040292E0,-4.354733738E0,-6.635110420E-1,5.046720135E-1,4.433807243E0
7.906026292E0,-3.107338744E0,-2.622195554E-1,1.176754489E0,3.333026296E0
7.916011292E0,-2.216363119E0,2.001963848E-1,1.587854095E0,2.733793097E0
7.925997292E0,-1.667198473E0,6.009464192E-1,1.560250852E0,2.361158628E0
7.935982292E0,-1.323439056E0,8.055995518E-1,1.210662785E0,1.966261924E0
7.945967292E0,-1.220890588E0,8.443712693E-1,7.975572914E-1,1.685121450E0
7.955953292E0,-1.123619525E0,7.447171730E-1,4.414405158E-1,1.418447825E0
7.965938292E0,-1.116062583E0,6.805387187E-1,7.106179655E-2,1.309113599E0
7.975924292E0,-1.269745098E0,5.146742606E-1,-4.176344544E-2,1.370724770E0
7.985909292E0,-1.502591166E0,3.610632277E-1,-6.296427995E-2,1.546645197E0
7.995895292E0,-1.833339650E0,1.894427705E-1,-3.115513444E-2,1.843364717E0
8.005880292E0,-2.352082696E0,3.728360116E-2,-2.155137509E-2,2.352476894E0
8.015865292E0,-2.778567642E0,-2.234180170E-1,-1.696508226E-1,2.792693172E0
8.025851292E0,-3.138896459E0,-6.518253815E-1,-4.175259885E-1,3.232936013E0
8.035836292E0,-3.508530536E0,-1.104377654E0,-6.577880797E-1,3.736592255E0
8.045822292E0,-4.166743708E0,-1.374980362E0,-8.569758198E-1,4.470652266E0
8.055807292E0,-5.004561710E0,-1.579403114E0,-9.869047523E-1,5.339862648E0
8.065792292E0,-5.743978382E0,-1.917573323E0,-1.036601700E0,6.143689298E0
8.075778292E0,-6.613958117E0,-2.175755961E0,-1.136470389E0,7.054780005E0
8.085763292E0,-7.496231623E0,-2.465742774E0,-1.235782131E0,7.987523612E0
8.095749292E0,-8.239073009E0,-2.907615691E0,-1.225878409E0,8.822660083E0
8.105734292E0,-8.871690288E0,-3.464498663E0,-1.093132581E0,9.586687561E0
8.115720292E0,-9.615097684E0,-3.996701707E0,-8.344830430E-1,1.044605619E1
8.125705292E0,-1.013928361E1,-4.490935856E0,-4.263392043E-1,1.109753766E1
8.135690292E0,-1.046599094E1,-5.083923045E0,1.370496717E-1,1.163623747E1
8.145676292E0,-1.078675749E1,-5.622347526E0,7.880565892E-1,1.218958417E1
8.155661292E0,-1.091407009E1,-6.210133617E0,1.278251774E0,1.262206849E1
8.165647292E0,-1.092626972E1,-6.946913195E0,1.592475442E0,1.304526546E1
8.175632292E0,-1.093547675E1,-7.790831890E0,1.861606552E0,1.355534183E1
8.185618292E0,-1.098344029E1,-8.767743165E0,2.118750286E0,1.421261354E1
8.195603292E0,-1.083988763E1,-9.801257828E0,2.441453733E0,1.481649470E1
8.205588292E0,-1.075519189E1,-1.092411678E1,2.732371130E0,1.557165154E1
8.215574292E0,-1.060500030E1,-1.214148836E1,3.187105583E0,1.643287598E1
8.225559292E0,-1.031691033E1,-1.338603898E1,4.034841925E0,1.737540295E1
8.235545292E0,-9.873041171E0,-1.444786878E1,4.912153484E0,1.817545340E1
8.245530292E0,-9.415283707E0,-1.548772007E1,5.561575660E0,1.895911823E1
8.255515292E0,-8.949152446E0,-1.648867568E1,5.968699744E0,1.968728351E1
8.265501292E0,-8.387012243E0,-1.720922456E1,6.716306611E0,2.028812852E1
8.275486292E0,-7.200510446E0,-1.773547280E1,7.766132666E0,2.065689141E1
8.285472292E0,-5.321206564E0,-1.768657137E1,9.285857343E0,2.067261939E1
8.295457292E0,-3.966306710E0,-1.759814159E1,1.021259483E1,2.072976771E1
8.305443292E0,-2.883196549E0,-1.777357560E1,1.007498412E1,2.063293767E1
8.315428292E0,-1.907402676E0,-1.827587247E1,9.242825929E0,2.056879993E1
8.325413292E0,-2.841811126E-1,-1.863045465E1,8.847172912E0,2.062636826E1
8.335399292E0,2.923858672E0,-1.817845903E1,9.245001093E0,2.060279999E1
8.345384292E0,7.855391582E0,-1.700143557E1,8.989323403E0,2.077411667E1
8.355370292E0,1.403482381E1,-1.487754090E1,6.696369359E0,2.152112602E1
8.365355292E0,2.013095777E1,-1.205056299E1,4.281082502E0,2.384951145E1
8.375341292E0,2.143461555E1,-9.639469464E0,4.658515887E0,2.395963033E1
8.385326292E0,1.876875884E1,-9.084419594E0,7.688534267E0,2.222400834E1
8.395311292E0,1.753637043E1,-8.726567658E0,9.618052867E0,2.182164549E1
8.405297292E0,1.848576997E1,-8.663815924E0,8.470912187E0,2.210298059E1
8.415282292E0,2.111945764E1,-8.744745482E0,5.583296896E0,2.353030533E1
8.425268292E0,2.396053553E1,-8.318004574E0,2.419136372E0,2.547839641E1
8.435253292E0,2.523284054E1,-7.905370658E0,4.944879180E-1,2.644684566E1
8.445238292E0,2.494918743E1,-7.702789194E0,1.698785716E-1,2.611175546E1
8.455224292E0,2.442532135E1,-7.243503853E0,5.315393847E-1,2.548229199E1
8.465209292E0,2.421623661E1,-6.612224418E0,1.050969771E0,2.512473213E1
8.475195292E0,2.387544217E1,-6.281035784E0,1.890191982E0,2.476006815E1
8.485180292E0,2.309649715E1,-5.954002767E0,2.838900967E0,2.401994355E1
8.495166292E0,2.142702119E1,-6.021297787E0,3.893242242E0,2.259492419E1
8.505151292E0,1.913339588E1,-6.455786841E0,4.838876177E0,2.076484395E1
8.515136292E0,1.702132195E1,-6.932979864E0,5.304803370E0,1.912936354E1
8.525122292E0,1.512833734E1,-7.511983438E0,5.483717644E0,1.775859355E1
8.535107292E0,1.352695805E1,-8.202085862E0,5.739229274E0,1.682829638E1
8.545093292E0,1.214173862E1,-8.883933188E0,6.110508757E0,1.623836208E1
8.555078292E0,1.088348097E1,-9.334069390E0,6.798693879E0,1.586812049E1
8.565064292E0,9.884923882E0,-9.899799199E0,7.869972784E0,1.605161101E1
8.575049292E0,9.416497589E0,-1.042937217E1,8.987403177E0,1.667979756E1
8.585034292E0,9.368860908E0,-1.117652003E1,9.939870168E0,1.764911254E1
8.595020292E0,9.221252627E0,-1.216901238E1,1.081285596E1,1.870920138E1
8.605005292E0,8.506288426E0,-1.317654377E1,1.172244882E1,1.958045083E1
8.614991292E0,7.379318885E0,-1.426793008E1,1.259835354E1,2.041437454E1
8.624976292E0,6.254554330E0,-1.516639569E1,1.373010786E1,2.139286961E1
8.634961292E0,4.879396797E0,-1.641900026E1,1.448480448E1,2.243215646E1
8.644947292E0,2.961589585E0,-1.772071209E1,1.434843337E1,2.299287259E1
8.654932292E0,9.586819965E-1,-1.870273559E1,1.413456444E1,2.346267891E1
8.664918292E0,-8.040810299E-1,-1.957612834E1,1.371588392E1,2.391645498E1
8.674903292E0,-2.855467299E0,-2.004788287E1,1.276618734E1,2.393839678E1
8.684889292E0,-4.735709366E0,-2.017553694E1,1.219575052E1,2.404611330E1
8.694874292E0,-5.941886752E0,-2.000298561E1,1.148794390E1,2.382012398E1
8.704859292E0,-7.267717758E0,-1.962096362E1,1.009630658E1,2.323224787E1
8.714845292E0,-9.269766390E0,-1.947919905E1,8.862444670E0,2.332189293E1
8.724830292E0,-1.210507190E1,-1.875719655E1,6.863515527E0,2.335536413E1
8.734816500E0,-1.468790634E1,-1.722383208E1,4.340860634E0,2.304860202E1
8.744801500E0,-1.642286644E1,-1.577259525E1,1.743032182E0,2.283688824E1
8.754787500E0,-1.693487320E1,-1.412365939E1,-1.087052061E0,2.207825553E1
8.764772500E0,-1.574522911E1,-1.218846022E1,-3.295690717E0,2.018247704E1
8.774757500E0,-1.357105892E1,-1.039377432E1,-4.367164041E0,1.764302430E1
8.784743500E0,-1.212245685E1,-8.915660765E0,-4.407099939E0,1.568009875E1
8.794728500E0,-1.139349383E1,-7.854410419E0,-3.865243435E0,1.436814433E1
8.804714500E0,-1.151146608E1,-7.003136512E0,-3.482766534E0,1.391716333E1
8.814699500E0,-1.212689137E1,-6.433239393E0,-3.561860358E0,1.418220408E1
8.824684500E0,-1.286711145E1,-6.063176715E0,-4.008826785E0,1.477820562E1
8.834670500E0,-1.416565526E1,-5.762898803E0,-4.552009438E0,1.595611423E1
8.844655500E0,-1.507072238E1,-5.207246670E0,-4.978699476E0,1.670417730E1
8.854641500E0,-1.442357594E1,-4.361136439E0,-4.899701253E0,1.584506631E1
8.864626500E0,-1.197257634E1,-3.645060098E0,-4.062209525E0,1.315790992E1
8.874612500E0,-8.958982201E0,-2.926993364E0,-2.964191011E0,9.880135656E0
8.884597500E0,-6.348957626E0,-2.018595668E0,-1.529051279E0,6.835348508E0
8.894582500E0,-4.215950367E0,-1.251384841E0,-1.594863153E-1,4.400640567E0
8.904568500E0,-2.865401718E0,-5.718752325E-1,8.082942411E-1,3.031651013E0
8.914553500E0,-2.291553927E0,3.775664091E-2,1.490698222E0,2.734012830E0
8.924539500E0,-1.909008760E0,4.038385338E-1,1.514585267E0,2.470094844E0
8.934524500E0,-1.476631283E0,6.843850172E-1,1.151059192E0,1.993429221E0
8.944510500E0,-1.141956832E0,8.766753817E-1,8.300400361E-1,1.661803716E0
8.954495500E0,-6.762451082E-1,1.053055472E0,6.450388107E-1,1.407944722E0
8.964480500E0,-2.897646920E-1,1.231124239E0,7.468756726E-1,1.468827335E0
8.974466500E0,-1.931276858E-2,1.283109494E0,7.946295905E-1,1.509363821E0
8.984451500E0,3.117505883E-1,1.267192789E0,6.414573911E-1,1.454109204E0
8.994437500E0,5.579463608E-1,1.246502416E0,6.165096608E-1,1.498384656E0
9.004422500E0,7.704004830E-1,1.270216969E0,7.768929389E-1,1.676463746E0
9.014407500E0,8.800267133E-1,1.246010665E0,8.768709710E-1,1.759514789E0
9.024393500E0,5.610073782E-1,1.157325945E0,8.954680404E-1,1.567161649E0
9.034378500E0,-7.885869317E-2,9.258913958E-1,7.274477139E-1,1.180115989E0
9.044364500E0,-7.570506319E-1,5.353693110E-1,4.380345127E-1,1.025485345E0
9.054349500E0,-1.597777112E0,1.149556750E-1,1.475299287E-1,1.608686293E0
9.064335500E0,-2.512144816E0,-3.771869248E-1,-1.733129337E-1,2.546208735E0
9.074320500E0,-3.701059759E0,-9.207943779E-1,-4.931170383E-1,3.845629993E0
9.084305500E0,-5.001291363E0,-1.508054804E0,-7.744949958E-1,5.280813108E0
9.094291500E0,-6.273517435E0,-2.061613634E0,-1.087949317E0,6.692600802E0
9.104276500E0,-7.488731984E0,-2.545305837E0,-1.435973253E0,8.038762823E0
9.114262500E0,-8.552972011E0,-3.106102935E0,-1.708069925E0,9.258439854E0
9.124247500E0,-9.280466795E0,-3.697279826E0,-1.867456546E0,1.016289014E1
9.134233500E0,-9.673673921E0,-4.239097447E0,-1.932303921E0,1.073702532E1
9.144218500E0,-9.886942341E0,-4.783013633E0,-1.834474741E0,1.113526586E1
9.154203500E0,-1.000540459E1,-5.323388160E0,-1.505829939E0,1.143302700E1
9.164189500E0,-1.007351530E1,-5.765423630E0,-1.193656012E0,1.166793190E1
9.174174500E0,-1.014648036E1,-6.215242329E0,-8.598025100E-1,1.192977625E1
9.184160500E0,-1.021986526E1,-6.743074579E0,-4.864137903E-1,1.225362392E1
9.194145500E0,-1.024791318E1,-7.364855797E0,-9.172088653E-2,1.262019169E1
9.204130500E0,-1.030800736E1,-8.089295411E0,2.918881814E-1,1.310636924E1
9.214116500E0,-1.049539425E1,-8.700554565E0,7.495661227E-1,1.365338052E1
9.224101500E0,-1.050650279E1,-9.304646201E0,1.227980776E0,1.408797283E1
9.234087500E0,-1.030103397E1,-1.007485197E1,1.707990403E0,1.450969243E1
9.244072500E0,-1.011188590E1,-1.097717207E1,2.157834245E0,1.507994667E1
9.254058500E0,-1.004310276E1,-1.192698209E1,2.589250002E0,1.580572777E1
9.264043500E0,-1.010554401E1,-1.287296569E1,3.017293085E0,1.664149401E1
9.274028500E0,-1.009057981E1,-1.381410779E1,3.470288576E0,1.745543691E1
9.284014500E0,-9.884436225E0,-1.480461209E1,3.962090283E0,1.823668769E1
9.293999500E0,-9.408668752E0,-1.556073893E1,4.675189222E0,1.877543709E1
9.303985500E0,-8.049105159E0,-1.617276466E1,6.057407268E0,1.905357167E1
9.313970500E0,-5.678565581E0,-1.616281153E1,8.185603731E0,1.898648709E1
9.323956500E0,-2.596222222E0,-1.566166538E1,9.790379083E0,1.865153224E1
9.333941500E0,6.596828699E-1,-1.497214300E1,1.032427197E1,1.819864938E1
9.343926500E0,3.679001430E0,-1.365261588E1,1.020158102E1,1.743563096E1
9.353912500E0,5.646501204E0,-1.223499236E1,9.977116932E0,1.676665966E1
9.363897500E0,6.270171073E0,-1.157898739E1,1.007665876E1,1.658092416E1
9.373883500E0,6.674168651E0,-1.106736303E1,9.950156590E0,1.631063052E1
9.383868500E0,8.526640829E0,-1.038580573E1,9.459068828E0,1.643297136E1
9.393854500E0,1.107172155E1,-9.957432865E0,9.209022006E0,1.750827158E1
9.403839500E0,1.244399640E1,-9.466724587E0,9.893969525E0,1.850304175E1
9.413824500E0,1.298396455E1,-8.917802600E0,1.105327709E1,1.924280315E1
9.423810500E0,1.337531636E1,-8.845519904E0,1.151756823E1,1.974326944E1
9.433795500E0,1.412882365E1,-9.353083951E0,1.089234184E1,2.014316131E1
9.443781500E0,1.703300118E1,-9.756262919E0,8.299190573E0,2.131160152E1
9.453766500E0,2.297607491E1,-9.653830225E0,3.160679092E0,2.512143206E1
9.463751500E0,3.319576592E1,-8.127727405E0,-4.558113639E0,3.447890990E1
9.473737500E0,3.825204977E1,-6.389005791E0,-6.966487918E0,3.940267326E1
9.483722500E0,3.187520735E1,-6.397032849E0,-3.840948254E-1,3.251304972E1
9.493708500E0,2.349615434E1,-6.508066796E0,6.639221597E0,2.526862611E1
9.503693500E0,2.000528239E1,-6.429382569E0,7.908964357E0,2.245217141E1
9.513679500E0,2.042358752E1,-6.576319005E0,4.042674270E0,2.183378378E1
9.523664500E0,2.130147679E1,-6.791804690E0,-1.739558351E-1,2.235870714E1
9.533649500E0,1.993809789E1,-6.916543926E0,-1.560762776E0,2.116133993E1
9.543635500E0,1.668535614E1,-7.278518150E0,-3.187220773E-1,1.820657902E1
9.553620500E0,1.362903406E1,-7.491859660E0,1.412519487E0,1.561645740E1
9.563606500E0,1.200852970E1,-7.347829290E0,2.364781240E0,1.427541842E1
9.573591500E0,1.132848214E1,-7.347116514E0,2.843262990E0,1.379850619E1
9.583577500E0,1.070098469E1,-7.670366968E0,3.721349305E0,1.368188742E1
9.593562500E0,1.010886990E1,-8.024358573E0,5.026791655E0,1.385092833E1
9.603547500E0,9.972728012E0,-8.224540340E0,6.169061605E0,1.432325692E1
9.613533500E0,9.788438977E0,-8.595473667E0,7.404695801E0,1.498416581E1
9.623518500E0,9.253435117E0,-9.189657197E0,8.800095810E0,1.573269040E1
9.633504500E0,8.783148825E0,-9.973309225E0,1.003936288E1,1.665531168E1
9.643489500E0,8.355213330E0,-1.071622370E1,1.089653897E1,1.741785296E1
9.653474500E0,7.696968291E0,-1.167391109E1,1.172454330E1,1.824797075E1
9.663460500E0,6.770064157E0,-1.288451160E1,1.277314085E1,1.936485309E1
9.673445500E0,5.635656958E0,-1.437069723E1,1.391154345E1,2.078000504E1
9.683431500E0,4.448592659E0,-1.590461602E1,1.493113648E1,2.226399839E1
9.693416500E0,3.217680674E0,-1.696071205E1,1.584024987E1,2.342931365E1
9.703402500E0,2.012242668E0,-1.754144347E1,1.655202091E1,2.420166845E1
9.713387500E0,8.896158546E-1,-1.810504022E1,1.620322397E1,2.431313153E1
9.723372500E0,-3.399805069E-1,-1.921423130E1,1.475382668E1,2.422762211E1
9.733358000E0,-2.266074978E0,-2.020248325E1,1.229312421E1,2.375702692E1
9.743343000E0,-4.865808452E0,-2.065598628E1,1.004682393E1,2.347944915E1
9.753329000E0,-7.739520818E0,-2.080050138E1,8.460353869E0,2.375160264E1
9.763314000E0,-1.099654624E1,-1.964915890E1,6.924171034E0,2.355753847E1
9.773300000E0,-1.437103988E1,-1.778193945E1,5.731589302E0,2.357064432E1
9.783285000E0,-1.645810761E1,-1.582141599E1,4.849310826E0,2.333885870E1
9.793270000E0,-1.693299742E1,-1.369342009E1,3.666511485E0,2.208346580E1
9.803256000E0,-1.654684613E1,-1.195952769E1,2.301994131E0,2.054574399E1
9.813241000E0,-1.527235309E1,-1.049162864E1,5.262698740E-1,1.853634269E1
9.823227000E0,-1.393775886E1,-9.367572182E0,-1.395782709E0,1.685113468E1
9.833212000E0,-1.299721668E1,-8.360821980E0,-3.347910445E0,1.581263703E1
9.843198000E0,-1.247224664E1,-7.539146678E0,-4.700988892E0,1.531322845E1
9.853183000E0,-1.243282471E1,-6.556842515E0,-5.251302516E0,1.500478231E1
9.863168000E0,-1.258069144E1,-5.825088034E0,-5.111052956E0,1.477593686E1
9.873154000E0,-1.297588370E1,-5.381517670E0,-4.925430171E0,1.488603885E1
9.883139000E0,-1.297973467E1,-4.782155262E0,-4.748305730E0,1.462494200E1
9.893125000E0,-1.242431468E1,-4.177336816E0,-3.925904789E0,1.368307226E1
9.903110000E0,-1.142272757E1,-3.447078053E0,-2.574072384E0,1.220601904E1
9.913095000E0,-9.724430677E0,-2.867121384E0,-1.590998728E0,1.026236883E1
9.923081000E0,-7.776654146E0,-2.361047793E0,-1.192087935E0,8.214132336E0
9.933066000E0,-5.958730241E0,-2.033772116E0,-9.289120674E-1,6.364398851E0
9.943052000E0,-4.406491536E0,-1.658652767E0,-7.342635208E-1,4.765232374E0
9.953037000E0,-2.936330198E0,-1.223012981E0,-5.756265137E-1,3.232513212E0
9.963023000E0,-1.826703645E0,-7.452609640E-1,-2.217308030E-1,1.985302159E0
9.973008000E0,-1.095069179E0,-3.501447219E-1,4.414007547E-1,1.231508205E0
9.982993000E0,-5.928432016E-1,1.532970375E-1,8.228155088E-1,1.025664860E0
9.992979000E0,-3.037969132E-1,4.649384290E-1,9.995666054E-1,1.143500637E0
1.000296400E1,-3.111234744E-1,6.004149073E-1,1.280937839E0,1.448481144E0
1.001295000E1,-3.578257705E-1,7.231000167E-1,1.658396951E0,1.844232459E0
1.002293500E1,-3.693944867E-1,7.730749995E-1,1.893658504E0,2.078470536E0
1.003292100E1,-4.811086115E-1,8.803848553E-1,1.847433925E0,2.102273792E0
1.004290600E1,-4.120031472E-1,8.581011164E-1,1.593715052E0,1.856343660E0
1.005289100E1,-1.358109391E-1,6.185868841E-1,1.167654175E0,1.328348831E0
1.006287700E1,1.351449412E-1,3.507709587E-1,4.530922624E-1,5.887249093E-1
1.007286200E1,3.877968438E-1,1.916881013E-1,-3.063309503E-1,5.300654406E-1
1.008284800E1,5.370230497E-1,-4.338984847E-2,-7.023532185E-1,8.851985531E-1
1.009283300E1,3.696010396E-1,-2.121510172E-1,-7.838639894E-1,8.922195562E-1
1.010281800E1,8.811593190E-2,-3.139393473E-1,-8.621833500E-1,9.217822196E-1
1.011280400E1,-1.766164644E-1,-5.194561136E-1,-1.196528603E0,1.316323944E0
1.012278900E1,-5.911457549E-1,-7.154313934E-1,-1.416861337E0,1.693750699E0
1.013277500E1,-1.184677174E0,-9.074019152E-1,-1.395653485E0,2.043205054E0
1.014276000E1,-1.690658671E0,-1.154340942E0,-1.364572611E0,2.460261808E0
1.015274600E1,-2.193752375E0,-1.424182343E0,-1.359905363E0,2.947912384E0
1.016273100E1,-2.740108750E0,-1.617707639E0,-1.336289628E0,3.451209055E0
1.017271600E1,-3.310401434E0,-1.964084415E0,-1.349997548E0,4.079078159E0
1.018270200E1,-4.223332769E0,-2.331502982E0,-1.394120345E0,5.021555274E0
1.019268700E1,-5.440992624E0,-2.667324949E0,-1.427613197E0,6.225520264E0
1.020267300E1,-6.841987249E0,-3.065096996E0,-1.459108639E0,7.637840475E0
1.021265800E1,-8.200449226E0,-3.463499374E0,-1.464620225E0,9.021546865E0
1.022264400E1,-9.425451431E0,-3.899106415E0,-1.331775870E0,1.028668034E1
1.023262900E1,-1.044011350E1,-4.399164975E0,-1.081599240E0,1.138061858E1
1.024261400E1,-1.117111135E1,-4.790684595E0,-7.236639807E-1,1.217653798E1
1.025260000E1,-1.162877760E1,-5.169976518E0,-2.114046201E-1,1.272799346E1
1.026258500E1,-1.186478993E1,-5.589120138E0,2.411894596E-1,1.311753317E1
1.027257100E1,-1.187917291E1,-6.059070216E0,5.331806982E-1,1.334583690E1
1.028255600E1,-1.163082997E1,-6.719365874E0,7.668608710E-1,1.345415026E1
1.029254100E1,-1.121237515E1,-7.235309565E0,1.151515567E0,1.339376904E1
1.030252700E1,-1.076268919E1,-7.614226096E0,1.876999494E0,1.331672049E1
1.031251200E1,-1.022472196E1,-8.221855298E0,2.551700352E0,1.336618937E1
1.032249800E1,-9.736781750E0,-8.946242872E0,2.953139774E0,1.354847648E1
1.033248300E1,-9.465315993E0,-9.683977885E0,3.440281835E0,1.397165608E1
1.034246900E1,-9.407701038E0,-1.053640428E1,3.838359107E0,1.463740601E1
1.035245400E1,-9.626356498E0,-1.128028004E1,4.002665867E0,1.536010388E1
1.036243900E1,-9.979816006E0,-1.186223002E1,4.061722745E0,1.602519330E1
1.037242500E1,-9.825989796E0,-1.279096784E1,4.524995302E0,1.675214960E1
1.038241000E1,-9.572176198E0,-1.367440494E1,5.730551421E0,1.764809132E1
1.039239600E1,-8.599321720E0,-1.416253402E1,7.476627663E0,1.817761439E1
1.040238100E1,-6.942652329E0,-1.477433988E1,9.229622331E0,1.875279896E1
1.041236600E1,-5.190847569E0,-1.514616667E1,1.082754650E1,1.932839948E1
1.042235200E1,-3.141136528E0,-1.469555684E1,1.201306714E1,1.923902054E1
1.043233700E1,-7.865814829E-1,-1.424318349E1,1.230856320E1,1.884111765E1
1.044232300E1,6.402572501E-1,-1.444175727E1,1.151893297E1,1.848404986E1
1.045230800E1,3.259463122E0,-1.456910028E1,9.560499308E0,1.772811128E1
1.046229400E1,9.496978666E0,-1.341140420E1,6.375392303E0,1.762679759E1
1.047227900E1,1.712021474E1,-1.087559073E1,3.203295061E0,2.053390673E1
1.048226400E1,2.198603839E1,-7.954235255E0,2.603835881E0,2.352521422E1
1.049225000E1,2.083342355E1,-5.921689299E0,6.270199724E0,2.254802309E1
1.050223500E1,1.570835072E1,-5.348935815E0,1.115022393E1,1.999227077E1
1.051222100E1,1.213548093E1,-5.460344569E0,1.279086961E1,1.845783318E1
1.052220600E1,1.233112994E1,-6.043291504E0,1.031819788E1,1.717682582E1
1.053219200E1,1.439764354E1,-6.755896354E0,6.195135509E0,1.706792252E1
1.054217700E1,1.652594701E1,-6.688929362E0,2.815025616E0,1.804918474E1
1.055216200E1,1.790180737E1,-6.377623601E0,1.017464055E0,1.903113300E1
1.056214800E1,1.772386959E1,-6.021256272E0,4.969034028E-1,1.872533026E1
1.057213300E1,1.636452526E1,-5.871528375E0,5.256483150E-1,1.739393109E1
1.058211900E1,1.522407497E1,-5.714110805E0,5.651369011E-1,1.627092193E1
1.059210400E1,1.457825935E1,-5.656025734E0,6.822636473E-1,1.565189307E1
1.060209000E1,1.438903761E1,-5.873916963E0,9.753389597E-1,1.557236623E1
1.061207500E1,1.475534813E1,-5.876721287E0,1.321193579E0,1.593743091E1
1.062206000E1,1.532942776E1,-5.921927281E0,2.012308742E0,1.655626663E1
1.063204600E1,1.570585045E1,-6.026999407E0,2.877263380E0,1.706684226E1
1.064203100E1,1.597850612E1,-6.031829792E0,3.666431671E0,1.746820969E1
1.065201700E1,1.595861038E1,-6.197261556E0,4.024323661E0,1.758631505E1
1.066200200E1,1.563488631E1,-6.837536933E0,4.116803516E0,1.755419187E1
1.067198700E1,1.509109759E1,-7.779927417E0,3.927174804E0,1.742673805E1
1.068197300E1,1.481980199E1,-8.398293861E0,3.684644578E0,1.742797970E1
1.069195800E1,1.455033890E1,-8.826768469E0,4.041487285E0,1.749165010E1
1.070194400E1,1.386729172E1,-9.184014634E0,5.239183577E0,1.743837576E1
1.071192900E1,1.283165862E1,-9.360677730E0,6.983949459E0,1.735077233E1
1.072191500E1,1.152859725E1,-9.603499147E0,8.983316558E0,1.748815962E1
1.073190350E1,1.027557402E1,-9.943849783E0,1.062985448E1,1.781744584E1
1.074188850E1,8.925546067E0,-1.057114609E1,1.156800749E1,1.803422578E1
1.075187450E1,7.305086728E0,-1.136467641E1,1.200636506E1,1.807409649E1
1.076185950E1,5.573188815E0,-1.224996357E1,1.250573248E1,1.837159181E1
1.077184550E1,3.738431361E0,-1.329629007E1,1.313458532E1,1.906002440E1
1.078183050E1,1.654847984E0,-1.475125274E1,1.364569862E1,2.016291323E1
1.079181650E1,-6.545572007E-1,-1.636175017E1,1.343116428E1,2.117856199E1
1.080180150E1,-2.299719272E0,-1.684550319E1,1.239460965E1,2.104010539E1
1.081178650E1,-3.029195677E0,-1.701207867E1,1.165506200E1,2.084292008E1
1.082177250E1,-3.651908357E0,-1.756367108E1,1.090337085E1,2.099291482E1
1.083175750E1,-4.105374548E0,-1.797782118E1,1.001114539E1,2.098283075E1
1.084174350E1,-4.299279622E0,-1.816384450E1,8.901672471E0,2.067967178E1
1.085172850E1,-4.483254368E0,-1.816662543E1,7.610146494E0,2.020000443E1
1.086171350E1,-4.563877240E0,-1.820542989E1,6.420601805E0,1.983660204E1
1.087169950E1,-5.657666463E0,-1.836683176E1,5.181099676E0,1.990460983E1
1.088168450E1,-7.954566792E0,-1.838762913E1,4.491029703E0,2.053166788E1
1.089167050E1,-1.110606342E1,-1.774723038E1,4.492531561E0,2.141241861E1
1.090165550E1,-1.513571418E1,-1.598728513E1,3.888888698E0,2.235635446E1
1.091164150E1,-1.889396760E1,-1.307942853E1,2.061658365E0,2.307171207E1
1.092162650E1,-1.987888664E1,-1.064823345E1,-5.210158584E-1,2.255718216E1
1.093161150E1,-1.780710587E1,-9.521413010E0,-3.166671611E0,2.043962168E1
1.094159750E1,-1.545295838E1,-9.158323722E0,-5.189940666E0,1.869770842E1
1.095158250E1,-1.389718737E1,-8.758423873E0,-6.183059839E0,1.755198093E1
1.096156850E1,-1.284431667E1,-7.731739343E0,-6.124470738E0,1.619461039E1
1.097155350E1,-1.217962741E1,-6.397269661E0,-5.358968468E0,1.476438031E1
1.098153950E1,-1.138355590E1,-5.266147428E0,-4.201120073E0,1.322751161E1
1.099152450E1,-1.031105843E1,-4.242526254E0,-3.331649923E0,1.163687442E1
1.100150950E1,-8.860400484E0,-3.516475732E0,-3.105895651E0,1.002591074E1
1.101149550E1,-7.703612482E0,-3.182376940E0,-3.502598828E0,9.041093231E0
1.102148050E1,-6.719112689E0,-2.613118336E0,-4.008897829E0,8.249007490E0
1.103146650E1,-5.674144501E0,-2.015760353E0,-4.106909150E0,7.288752183E0
1.104145150E1,-4.875795789E0,-1.649073858E0,-3.699913412E0,6.338942217E0
1.105143650E1,-4.053995942E0,-1.269611782E0,-2.880555654E0,5.132679422E0
1.106142250E1,-3.039707801E0,-1.087268116E0,-2.097682768E0,3.849967333E0
1.107140750E1,-2.071562671E0,-9.389681089E-1,-1.402062911E0,2.671855800E0
1.108139350E1,-1.331795020E0,-6.692910147E-1,-5.683259726E-1,1.595187402E0
1.109137850E1,-8.650103326E-1,-2.245593935E-1,3.254481295E-1,9.510974092E-1
1.110136450E1,-6.617754422E-1,1.595518041E-1,7.700505272E-1,1.027804129E0
1.111134950E1,-6.689178161E-1,2.423717666E-1,6.211693069E-1,9.444820940E-1
1.112133450E1,-7.172193258E-1,1.880628276E-1,1.216954681E-1,7.513860361E-1
1.113132050E1,-8.775857931E-1,2.498012388E-1,-5.658891454E-1,1.073679658E0
1.114130550E1,-1.086187843E0,2.935044980E-1,-1.131651114E0,1.595801731E0
1.115129150E1,-1.071790244E0,1.886352700E-1,-1.362003344E0,1.743379104E0
1.116127650E1,-9.023564990E-1,2.108324701E-1,-1.384862449E0,1.666295767E0
1.117126250E1,-7.110857427E-1,2.424507040E-1,-1.188988034E0,1.406455766E0
1.118124750E1,-4.323963350E-1,1.710784203E-1,-9.190934229E-1,1.030032590E0
1.119123250E1,3.966780335E-2,1.854976541E-1,-5.004038385E-1,5.351513018E-1
1.120121850E1,5.277212991E-1,3.515462995E-1,8.215045631E-3,6.341467158E-1
1.121120350E1,6.841248161E-1,4.793997627E-1,5.061563292E-1,9.767523361E-1
1.122118950E1,6.082345350E-1,4.653711230E-1,8.253897455E-1,1.125960818E0
1.123117450E1,3.406234083E-1,4.236839837E-1,7.365760946E-1,9.154653284E-1
1.124115950E1,-1.073889394E-1,2.957258552E-1,3.524529102E-1,4.724502299E-1
1.125114550E1,-4.187838708E-1,1.151316762E-1,-1.386044464E-1,4.559017721E-1
1.126113050E1,-5.232797541E-1,-4.744957030E-2,-4.776894522E-1,7.101129315E-1
1.127111650E1,-5.691295262E-1,-1.187078333E-1,-5.662668756E-1,8.115775635E-1
1.128110150E1,-5.694960004E-1,-1.833347690E-1,-4.206676975E-1,7.313676529E-1
1.129108750E1,-6.747292176E-1,-3.158794534E-1,-2.618090808E-1,7.896729329E-1
1.130107250E1,-9.702032040E-1,-5.347939450E-1,-9.882057577E-2,1.112233935E0
1.131105750E1,-1.443626820E0,-8.988234651E-1,-4.728087813E-2,1.701228232E0
1.132104350E1,-2.085838794E0,-1.312325107E0,-2.442384902E-1,2.476403259E0
1.133102850E1,-2.951268665E0,-1.820762728E0,-6.625389424E-1,3.530456272E0
1.134101450E1,-4.268541101E0,-2.482313783E0,-1.256497647E0,5.095204725E0
1.135099950E1,-6.174830468E0,-3.143218721E0,-2.016812560E0,7.216362528E0
1.136098550E1,-8.681423060E0,-3.710817300E0,-2.952080258E0,9.892019472E0
1.137097050E1,-1.134208277E1,-4.178314471E0,-3.708007421E0,1.264319866E1
1.138095550E1,-1.371938640E1,-4.760848008E0,-3.823195522E0,1.501679264E1
1.139094150E1,-1.553934514E1,-5.487451676E0,-3.665952784E0,1.688261186E1
1.140092650E1,-1.652128678E1,-6.449773564E0,-3.413903875E0,1.806120803E1
1.141091250E1,-1.681236351E1,-7.454639794E0,-3.134129517E0,1.865609791E1
1.142089750E1,-1.659874016E1,-8.408714769E0,-2.791056125E0,1.881527713E1
1.143088250E1,-1.578428383E1,-9.205173953E0,-2.265086067E0,1.841220950E1
1.144086850E1,-1.459395094E1,-9.961440547E0,-1.671652151E0,1.774846818E1
1.145085350E1,-1.337092510E1,-1.069979887E1,-9.706119975E-1,1.715253397E1
1.146083950E1,-1.235327101E1,-1.147046306E1,-3.903167745E-1,1.686200387E1
1.147082450E1,-1.146452814E1,-1.252240406E1,1.781237670E-1,1.697874368E1
1.148081050E1,-1.096906549E1,-1.350950762E1,1.057949592E0,1.743406009E1
1.149079550E1,-1.070799433E1,-1.417406940E1,2.369482986E0,1.792149089E1
1.150078050E1,-1.020996241E1,-1.468473247E1,4.119956335E0,1.835371190E1
1.151076650E1,-9.268387617E0,-1.528477374E1,5.820102698E0,1.879896042E1
1.152075150E1,-8.100385240E0,-1.574690492E1,7.172470123E0,1.910564271E1
1.153073750E1,-6.445517961E0,-1.589378464E1,8.230702720E0,1.902371045E1
1.154072250E1,-4.679921958E0,-1.593894269E1,8.934554873E0,1.886207397E1
1.155070850E1,-3.685621648E0,-1.579534560E1,9.382153383E0,1.873770401E1
1.156069350E1,-3.168911387E0,-1.582642355E1,9.514738414E0,1.873627308E1
1.157067850E1,-2.607337779E0,-1.610431013E1,9.851566687E0,1.905781680E1
1.158066450E1,-2.536977063E0,-1.652065645E1,1.076567360E1,1.988134981E1
1.159064950E1,-2.210425857E0,-1.739587119E1,1.149927113E1,2.096987252E1
1.160063550E1,1.824524242E-1,-1.833642390E1,1.157914526E1,2.168719289E1
1.161062050E1,5.537462327E0,-1.847829606E1,1.034085234E1,2.188707704E1
1.162060550E1,1.467132598E1,-1.690668495E1,6.226616333E0,2.323477034E1
1.163059150E1,2.438741268E1,-1.357780076E1,1.171549882E0,2.793698444E1
1.164057650E1,2.744542460E1,-1.063234071E1,1.276519682E0,2.946060935E1
1.165056250E1,2.333666101E1,-8.916470604E0,6.711317766E0,2.586783681E1
1.166054750E1,1.832783317E1,-8.387343780E0,1.242373346E1,2.367712308E1
1.167053350E1,1.672007223E1,-8.464401312E0,1.406843711E1,2.343347664E1
1.168051850E1,1.895663105E1,-8.789356813E0,1.025803237E1,2.327732549E1
1.169050350E1,2.283095871E1,-8.730268360E0,5.292123098E0,2.500953475E1
1.170048950E1,2.515198758E1,-8.565153515E0,2.405887166E0,2.667906721E1
1.171047450E1,2.491822525E1,-8.767163706E0,1.518047111E0,2.645913030E1
1.172046050E1,2.360022308E1,-8.694644199E0,1.717361151E0,2.520945649E1
1.173044550E1,2.276352395E1,-8.144926990E0,2.118654392E0,2.426945724E1
1.174042767E1,2.233368343E1,-7.743786947E0,2.470795353E0,2.376687782E1
1.175041267E1,2.161926126E1,-7.601148214E0,3.163007453E0,2.313383946E1
1.176039767E1,2.035261402E1,-7.767991496E0,4.309209071E0,2.220675285E1
1.177038367E1,1.874239374E1,-8.199948705E0,5.269575650E0,2.112545643E1
1.178036867E1,1.712692968E1,-8.870893897E0,5.672059969E0,2.010464481E1
1.179035467E1,1.577008212E1,-9.654306774E0,5.658414322E0,1.933697965E1
1.180033967E1,1.474494242E1,-1.025170803E1,5.567505906E0,1.880180753E1
1.181032567E1,1.353724213E1,-1.092280349E1,5.684152011E0,1.829956679E1
1.182031067E1,1.219475182E1,-1.152662323E1,6.225215340E0,1.789771832E1
1.183029567E1,1.076033159E1,-1.219138967E1,7.153170218E0,1.776464360E1
1.184028167E1,9.446398496E0,-1.286665069E1,8.259920672E0,1.797251886E1
1.185026667E1,8.426836460E0,-1.330734130E1,9.347211007E0,1.831576531E1
1.186025267E1,7.402975550E0,-1.369626301E1,1.041459976E1,1.873113866E1
1.187023767E1,6.429520563E0,-1.435707673E1,1.136600607E1,1.940748517E1
1.188022267E1,5.514183977E0,-1.508293721E1,1.237460984E1,2.027392879E1
1.189020867E1,4.827779916E0,-1.614780874E1,1.337826569E1,2.151829870E1
1.190019367E1,4.723335781E0,-1.750904990E1,1.410115930E1,2.297214450E1
1.191017967E1,4.654102408E0,-1.916136545E1,1.469532997E1,2.459209869E1
1.192016467E1,3.310607548E0,-2.118382145E1,1.470869904E1,2.600115846E1
1.193015067E1,6.620726269E-1,-2.311308219E1,1.397091725E1,2.701554066E1
1.194013567E1,-3.338680908E0,-2.449339463E1,1.239537798E1,2.765354527E1
1.195012067E1,-9.332387731E0,-2.496245125E1,9.975726464E0,2.845579997E1
1.196010667E1,-1.627483131E1,-2.397561199E1,7.611207179E0,2.996048363E1
1.197009167E1,-2.120823007E1,-2.138736537E1,6.215555155E0,3.075453700E1
1.198007767E1,-2.339135820E1,-1.750176778E1,5.552247012E0,2.973709738E1
1.199006267E1,-2.275529341E1,-1.350743302E1,5.040334976E0,2.693806046E1
1.200004867E1,-2.015001034E1,-1.073155861E1,4.206955887E0,2.321395582E1
1.201003367E1,-1.703559500E1,-8.853334708E0,2.866715587E0,1.941162257E1
1.202001867E1,-1.444704666E1,-7.663765461E0,1.330899957E0,1.640797834E1
1.203000467E1,-1.338485199E1,-6.986190696E0,1.330051526E-1,1.509896731E1
1.203998967E1,-1.438316817E1,-6.850776199E0,-7.614574590E-1,1.594956045E1
1.204997567E1,-1.642990649E1,-6.783764768E0,-1.689303871E0,1.785539244E1
1.205996067E1,-1.796955672E1,-5.993201916E0,-2.840021001E0,1.915435087E1
1.206994567E1,-1.863225091E1,-4.818471149E0,-3.638172662E0,1.958608533E1
1.207993167E1,-1.759911690E1,-3.586655184E0,-3.597357928E0,1.831758705E1
1.208991667E1,-1.484260613E1,-2.608956288E0,-2.753576642E0,1.531965384E1
1.209990267E1,-1.097631604E1,-2.122534019E0,-1.655093128E0,1.130150422E1
1.210988767E1,-7.132038966E0,-1.591810321E0,-1.325168370E0,7.426702574E0
1.211987367E1,-4.064824693E0,-1.006038596E0,-1.263754918E0,4.374013024E0
1.212985867E1,-1.822366765E0,-6.600489056E-1,-7.861778788E-1,2.091592896E0
1.213984367E1,-7.949877325E-1,-2.680077142E-1,3.003844781E-1,8.911029482E-1
1.214982967E1,-7.783757928E-1,1.391380048E-1,1.303782910E0,1.524820690E0
1.215981467E1,-1.095246349E0,3.346905309E-1,1.477413494E0,1.869313497E0
1.216980067E1,-1.308369320E0,6.798738903E-1,1.144588956E0,1.866585830E0
1.217978567E1,-1.446099023E0,8.439029074E-1,8.564780755E-1,1.880672538E0
1.218977167E1,-1.411898220E0,8.562621671E-1,5.521923351E-1,1.741136944E0
1.219975667E1,-1.027450076E0,8.708977479E-1,3.397806783E-1,1.389088714E0
1.220974167E1,-4.474657792E-1,9.064032108E-1,2.523098405E-1,1.041850594E0
1.221972767E1,1.341792735E-1,9.263275981E-1,3.335627492E-1,9.936553749E-1
1.222971267E1,6.705296011E-1,9.611711562E-1,7.190331320E-1,1.374943120E0
1.223969867E1,7.620418882E-1,9.016465008E-1,8.294380653E-1,1.442789574E0
1.224968367E1,1.946562941E-1,8.383620858E-1,5.215587723E-1,1.006362565E0
1.225966967E1,-2.302251993E-1,6.822057599E-1,8.401527956E-2,7.248909631E-1
1.226965467E1,-6.767497230E-1,5.127768391E-1,-2.639969628E-1,8.891707770E-1
1.227963967E1,-1.086569958E0,2.941319042E-1,-4.960171111E-1,1.230114152E0
1.228962567E1,-1.352048898E0,1.535151386E-1,-8.054609728E-1,1.581255988E0
1.229961067E1,-1.599154716E0,-5.024980187E-2,-9.331781960E-1,1.852199340E0
1.230959667E1,-1.795091551E0,-1.495554042E-1,-7.970516534E-1,1.969774564E0
1.231958167E1,-2.010697249E0,-2.122153366E-1,-5.802472758E-1,2.103479422E0
1.232956667E1,-2.308646654E0,-2.576674980E-1,-3.682599807E-1,2.351990078E0
1.233955267E1,-2.487841741E0,-3.277112943E-1,-1.015474248E-1,2.511386689E0
1.234953767E1,-2.639085821E0,-4.248657060E-1,5.834585667E-2,2.673703252E0
1.235952367E1,-2.843037872E0,-5.715051037E-1,3.925586700E-2,2.900176452E0
1.236950867E1,-3.018327457E0,-7.841040176E-1,-1.516324814E-1,3.122196688E0
1.237949467E1,-3.284154745E0,-1.013145302E0,-3.673526390E-1,3.456455374E0
1.238947967E1,-3.683717794E0,-1.310679116E0,-5.913697033E-1,3.954412050E0
1.239946467E1,-4.212570384E0,-1.657268146E0,-7.713097250E-1,4.592080752E0
1.240945067E1,-5.007767154E0,-1.995921335E0,-9.075827403E-1,5.466730309E0
1.241943567E1,-6.102136713E0,-2.314018053E0,-1.095825516E0,6.617521105E0
1.242942167E1,-7.447391585E0,-2.717825012E0,-1.252459706E0,8.026136650E0
1.243940667E1,-8.765960934E0,-3.133439838E0,-1.367774692E0,9.409108562E0
1.244939167E1,-9.717846127E0,-3.525890919E0,-1.353687726E0,1.042597288E1
1.245937767E1,-1.034323332E1,-3.962189101E0,-1.229570049E0,1.114420300E1
1.246936267E1,-1.061532766E1,-4.464876570E0,-9.426680808E-1,1.155460632E1
1.247934867E1,-1.061319108E1,-4.927846241E0,-6.705339134E-1,1.172062751E1
1.248933367E1,-1.055297880E1,-5.438106439E0,-4.469248386E-1,1.188015593E1
1.249931967E1,-1.068613861E1,-5.989312933E0,-1.637185299E-1,1.225121347E1
1.250930467E1,-1.087523873E1,-6.627537691E0,1.534051379E-1,1.273650684E1
1.251928967E1,-1.101865807E1,-7.441400528E0,3.833971795E-1,1.330158866E1
1.252927567E1,-1.115346328E1,-8.345208160E0,5.968147767E-1,1.394268376E1
1.253926067E1,-1.115391469E1,-9.225045131E0,1.050364584E0,1.451256477E1
1.254924667E1,-1.093637371E1,-9.880627348E0,1.699192683E0,1.483638509E1
1.255923167E1,-1.081793134E1,-1.049823599E1,2.203627884E0,1.523471606E1
1.256921767E1,-1.073489035E1,-1.130744152E1,2.679428101E0,1.582009607E1
1.257920267E1,-1.055017330E1,-1.212370932E1,3.145792665E0,1.637640058E1
1.258918767E1,-1.036667481E1,-1.297909031E1,3.569059743E0,1.699008297E1
1.259917367E1,-1.016348758E1,-1.375492695E1,4.285688646E0,1.763126831E1
1.260915867E1,-9.714230209E0,-1.459282360E1,5.124550669E0,1.826411204E1
1.261914467E1,-8.727797327E0,-1.546758226E1,5.759398659E0,1.867059775E1
1.262912967E1,-7.231152195E0,-1.613701946E1,6.380411553E0,1.879900558E1
1.263911567E1,-5.509316170E0,-1.641972649E1,7.015648384E0,1.868634006E1
1.264910067E1,-3.750320504E0,-1.654061767E1,7.566063166E0,1.857154406E1
1.265908567E1,-2.623469662E0,-1.634496282E1,7.812654283E0,1.830513506E1
1.266907167E1,-1.441601783E0,-1.574767793E1,7.855038410E0,1.765698740E1
1.267905667E1,-4.986102051E-1,-1.574808840E1,8.202291099E0,1.776312134E1
1.268904267E1,3.317406106E-1,-1.627675622E1,8.529705355E0,1.837930135E1
1.269902767E1,2.724191460E0,-1.643292716E1,8.421268156E0,1.866494231E1
1.270901267E1,6.658278258E0,-1.585865223E1,8.787292746E0,1.931439965E1
1.271899867E1,1.130390980E1,-1.477349671E1,9.112152354E0,2.071390602E1
1.272898367E1,1.620781287E1,-1.310286183E1,8.228104802E0,2.240713937E1
1.273896979E1,2.013888192E1,-1.194623463E1,6.207765495E0,2.422443888E1
1.274895479E1,2.335942773E1,-1.086399337E1,4.562283581E0,2.616302060E1
1.275894079E1,2.455917581E1,-9.885680512E0,4.587156467E0,2.686860249E1
1.276892579E1,2.362539652E1,-9.519544240E0,5.667074048E0,2.609399953E1
1.277891079E1,2.303008681E1,-9.049055049E0,6.145213151E0,2.549576319E1
1.278889679E1,2.302853613E1,-8.526010500E0,5.522893989E0,2.516959852E1
1.279888179E1,2.263732700E1,-8.488698832E0,4.539750166E0,2.459910391E1
1.280886779E1,2.225195807E1,-8.379120256E0,3.495217595E0,2.403280758E1
1.281885279E1,2.153651147E1,-7.993365991E0,2.793958683E0,2.314133599E1
1.282883879E1,2.013690322E1,-7.830107052E0,2.764123265E0,2.178177736E1
1.283882379E1,1.849167566E1,-7.619431872E0,3.152756699E0,2.024691793E1
1.284880879E1,1.691157205E1,-7.374403131E0,3.761124405E0,1.882894441E1
1.285879479E1,1.542642722E1,-7.285360562E0,4.390422803E0,1.761609911E1
1.286877979E1,1.422223175E1,-7.419165321E0,5.017291684E0,1.680741223E1
1.287876579E1,1.370461166E1,-7.555379133E0,5.456183690E0,1.657317336E1
1.288875079E1,1.366777186E1,-7.662318276E0,5.658784450E0,1.665956033E1
1.289873679E1,1.339876252E1,-8.180775685E0,5.874702244E0,1.676198241E1
1.290872179E1,1.332987413E1,-8.815390956E0,6.058459767E0,1.709097999E1
1.291870679E1,1.332941688E1,-9.589489219E0,6.030103109E0,1.749267851E1
1.292869279E1,1.278650993E1,-1.077632138E1,6.020369834E0,1.777269793E1
1.293867779E1,1.212882914E1,-1.188143929E1,6.123606520E0,1.804925630E1
1.294866379E1,1.126004516E1,-1.296731402E1,6.558972071E0,1.838368746E1
1.295864879E1,1.052715632E1,-1.387918613E1,7.625962043E0,1.901599655E1
1.296863379E1,9.500227379E0,-1.476789274E1,9.326958591E0,1.988308660E1
1.297861979E1,8.183832024E0,-1.588308424E1,1.154334393E1,2.127195949E1
1.298860479E1,6.516329497E0,-1.682320308E1,1.361444409E1,2.260167692E1
1.299859079E1,4.794151409E0,-1.788468205E1,1.538497748E1,2.407370499E1
1.300857579E1,3.485401874E0,-1.889430674E1,1.673906983E1,2.548213712E1
1.301856179E1,2.104233989E0,-1.978929560E1,1.764633083E1,2.659768811E1
1.302854679E1,1.360880971E-1,-2.093824775E1,1.806475992E1,2.765437198E1
1.303853179E1,-1.832712098E0,-2.196384938E1,1.772912272E1,2.828588527E1
1.304851779E1,-3.675222960E0,-2.268237629E1,1.659083005E1,2.834172012E1
1.305850279E1,-5.758684714E0,-2.336030715E1,1.495328690E1,2.832785182E1
1.306848879E1,-8.597076389E0,-2.434903623E1,1.311926327E1,2.896377663E1
1.307847379E1,-1.292926853E1,-2.512733338E1,1.041701583E1,3.011748804E1
1.308845979E1,-1.783963744E1,-2.407615837E1,6.453974204E0,3.065237102E1
1.309844479E1,-2.224733643E1,-2.113042234E1,1.889790863E0,3.074101553E1
1.310842979E1,-2.471962340E1,-1.725248226E1,-1.911480817E0,3.020532543E1
1.311841579E1,-2.415650145E1,-1.366919040E1,-4.019421648E0,2.804530404E1
1.312840079E1,-2.127609519E1,-1.099618254E1,-4.594311412E0,2.438638871E1
1.313838679E1,-1.766423266E1,-8.865689875E0,-4.372960678E0,2.024224191E1
1.314837179E1,-1.453560859E1,-7.090144250E0,-3.660046219E0,1.658161636E1
1.315835779E1,-1.226823495E1,-5.833567082E0,-2.824479979E0,1.387507769E1
1.316834279E1,-1.116161080E1,-5.064389251E0,-2.031607185E0,1.242405014E1
1.317832779E1,-1.104412503E1,-4.748357186E0,-1.349692031E0,1.209715926E1
1.318831379E1,-1.179451342E1,-4.364622549E0,-1.151270569E0,1.262877273E1
1.319829879E1,-1.262522968E1,-3.957073957E0,-1.478429886E0,1.331317445E1
1.320828479E1,-1.290835420E1,-3.532199480E0,-2.159176181E0,1.355596117E1
1.321826979E1,-1.227665143E1,-3.066997926E0,-2.856451093E0,1.297235366E1
1.322825479E1,-1.063996081E1,-2.784364572E0,-3.387191163E0,1.150801964E1
1.323824079E1,-8.435005020E0,-2.501323081E0,-3.345051449E0,9.412507426E0
1.324822579E1,-6.403582900E0,-2.014949344E0,-2.490827329E0,7.160315328E0
1.325821179E1,-4.600908533E0,-1.313199266E0,-1.275973845E0,4.951864386E0
1.326819679E1,-3.175257370E0,-5.337151337E-1,1.411694737E-1,3.222893115E0
1.327818279E1,-1.944855993E0,-1.738359672E-1,1.601052723E0,2.525084869E0
1.328816779E1,-1.039862107E0,7.311592340E-2,1.914178430E0,2.179618820E0
1.329815279E1,-6.879149812E-1,3.245023423E-1,1.117752575E0,1.351998376E0
1.330813879E1,-9.639384972E-1,3.693446392E-1,1.474295028E-1,1.042750376E0
1.331812379E1,-1.422225280E0,3.741159672E-1,-5.690136051E-1,1.576852557E0
1.332810979E1,-1.735300847E0,3.018461359E-1,-1.088702730E0,2.070665051E0
1.333809479E1,-2.040973255E0,1.825465643E-1,-1.361807462E0,2.460368801E0
1.334808079E1,-2.197052544E0,1.184710211E-1,-1.451864816E0,2.636093076E0
1.335806579E1,-2.010691694E0,1.023081475E-1,-1.392153927E0,2.447741940E0
1.336805079E1,-1.404042486E0,2.111885655E-1,-1.109620560E0,1.801997141E0
1.337803679E1,-5.436423902E-1,2.946195620E-1,-7.075790213E-1,9.396892072E-1
1.338802179E1,3.171792895E-2,4.594414616E-1,-2.823491800E-1,5.401976889E-1
1.339800779E1,1.993017608E-1,5.110215050E-1,-2.816603780E-2,5.492335533E-1
1.340799279E1,8.062389448E-2,4.398597211E-1,-8.457646608E-2,4.551153317E-1
1.341797879E1,-3.224944085E-1,2.350253248E-1,-4.550699370E-1,6.052505220E-1
1.342796379E1,-8.891812603E-1,1.691131711E-2,-9.563119738E-1,1.305933343E0
1.343794879E1,-1.459661639E0,-9.862264752E-2,-1.300884884E0,1.957712954E0
1.344793479E1,-1.875632853E0,-1.851538378E-1,-1.312020468E0,2.296449053E0
1.345791979E1,-2.255879041E0,-2.859481412E-1,-1.041420683E0,2.501062500E0
1.346790579E1,-2.497370363E0,-3.594540739E-1,-7.533891785E-1,2.633184615E0
1.347789079E1,-2.493241645E0,-4.854428601E-1,-5.982871056E-1,2.609570104E0
1.348787579E1,-2.582208785E0,-5.917189282E-1,-4.476944053E-1,2.686701282E0
1.349786179E1,-2.748715267E0,-7.209558427E-1,-3.199127166E-1,2.859642826E0
1.350784679E1,-3.071034259E0,-9.519957054E-1,-3.542420121E-1,3.234661442E0
1.351783279E1,-3.663328553E0,-1.317934341E0,-5.107240279E-1,3.926546326E0
1.352781779E1,-4.404844376E0,-1.750611928E0,-7.140923810E-1,4.793456376E0
1.353780379E1,-5.411068329E0,-2.316676197E0,-1.045489029E0,5.978268677E0
1.354778879E1,-6.607567695E0,-3.043050655E0,-1.440006516E0,7.415775543E0
1.355777379E1,-7.821098247E0,-3.693388504E0,-2.052961947E0,8.889620306E0
1.356775979E1,-8.889665213E0,-4.358204645E0,-2.674904695E0,1.025549660E1
1.357774479E1,-9.621381687E0,-4.918806446E0,-3.073489505E0,1.123441054E1
1.358773079E1,-1.014290655E1,-5.327710422E0,-3.177709107E0,1.188952845E1
1.359771579E1,-1.066519154E1,-5.847548359E0,-2.978091012E0,1.252234637E1
1.360770179E1,-1.123878469E1,-6.416812810E0,-2.548092620E0,1.319009264E1
1.361768679E1,-1.160044199E1,-6.941423829E0,-2.012567189E0,1.366762766E1
1.362767179E1,-1.157337055E1,-7.430006059E0,-1.402708443E0,1.382445250E1
1.363765779E1,-1.137814956E1,-7.976984432E0,-5.891361765E-1,1.390833022E1
1.364764279E1,-1.126888732E1,-8.728303111E0,3.168091607E-1,1.425733021E1
1.365762879E1,-1.135517702E1,-9.572196078E0,1.057809259E0,1.488912165E1
1.366761379E1,-1.147705171E1,-1.044890070E1,1.866249388E0,1.563282215E1
1.367759979E1,-1.160987355E1,-1.136692408E1,2.669207168E0,1.646574607E1
1.368758479E1,-1.186537349E1,-1.237521210E1,3.496549591E0,1.749739470E1
1.369756979E1,-1.203835284E1,-1.337649749E1,4.503543622E0,1.855086330E1
1.370755579E1,-1.201629129E1,-1.436375659E1,5.362680280E0,1.947991528E1
1.371754079E1,-1.184183727E1,-1.539429794E1,6.058875504E0,2.034510977E1
1.372752679E1,-1.162905125E1,-1.635406576E1,6.992853014E0,2.125065395E1
1.373751187E1,-1.101431592E1,-1.699377922E1,8.300743593E0,2.188620643E1
1.374749688E1,-1.031391071E1,-1.770906327E1,1.018885280E1,2.288668602E1
1.375748287E1,-9.886748214E0,-1.853530992E1,1.238623527E1,2.438697046E1
1.376746787E1,-8.716084185E0,-1.966562232E1,1.388382297E1,2.560209688E1
1.377745387E1,-5.769005635E0,-2.117303685E1,1.409813746E1,2.608325891E1
1.378743888E1,-2.079157035E0,-2.204186995E1,1.323503464E1,2.579405099E1
1.379742487E1,3.037174203E0,-2.185241782E1,1.067944822E1,2.451128732E1
1.380740987E1,1.198667280E1,-2.056968606E1,4.890671398E0,2.430454641E1
1.381739487E1,2.104721646E1,-1.784954028E1,-2.207595804E-1,2.759782861E1
1.382738088E1,2.426618820E1,-1.392396996E1,1.002342571E0,2.799516958E1
1.383736587E1,2.158275593E1,-1.125559075E1,8.102576777E0,2.565454009E1
1.384735187E1,1.843109383E1,-1.002837830E1,1.501721802E1,2.580291511E1
1.385733687E1,1.814887329E1,-8.943799320E0,1.617478195E1,2.590360436E1
1.386732288E1,1.924003857E1,-9.285789515E0,1.143084701E1,2.422951164E1
1.387730787E1,1.964962901E1,-1.090617986E1,5.791598107E0,2.320765581E1
1.388729287E1,2.048335309E1,-1.147055311E1,1.400751965E0,2.351815147E1
1.389727887E1,2.102147468E1,-1.120872649E1,-1.611714828E0,2.387751185E1
1.390726388E1,2.061859918E1,-1.115571446E1,-2.398155393E0,2.356539299E1
1.391724987E1,2.085498340E1,-1.077159683E1,-1.790243186E0,2.354065848E1
1.392723487E1,2.228560061E1,-9.723881038E0,-7.812710416E-1,2.432719140E1
1.393722087E1,2.367350741E1,-8.936935859E0,5.944162488E-1,2.531120515E1
1.394720588E1,2.437559195E1,-8.259351738E0,2.086719823E0,2.582132401E1
1.395719087E1,2.435002090E1,-7.930851070E0,3.026625826E0,2.578725229E1
1.396717687E1,2.317799330E1,-8.111095001E0,3.205325507E0,2.476455829E1
1.397716187E1,2.080035871E1,-8.786116287E0,2.788195667E0,2.275136912E1
1.398714788E1,1.842240837E1,-9.719924228E0,2.350108822E0,2.096151399E1
1.399713287E1,1.664910691E1,-1.081354593E1,1.935162333E0,1.994668869E1
1.400711787E1,1.548537534E1,-1.168082717E1,1.695323580E0,1.947081649E1
1.401710387E1,1.479200900E1,-1.234914872E1,2.014378071E0,1.937427994E1
1.402708888E1,1.423134288E1,-1.304273725E1,2.900895486E0,1.952074050E1
1.403707487E1,1.370220845E1,-1.358915488E1,4.309176034E0,1.977333166E1
1.404705987E1,1.283936759E1,-1.398972190E1,6.450478739E0,2.005418546E1
1.405704588E1,1.201573581E1,-1.442416066E1,9.371747679E0,2.098246821E1
1.406703088E1,1.110329885E1,-1.488912774E1,1.226522831E1,2.225769970E1
1.407701587E1,9.991262516E0,-1.555676400E1,1.485505719E1,2.371731344E1
1.408700187E1,8.709419528E0,-1.634492306E1,1.702549686E1,2.515706743E1
1.409698687E1,7.284457167E0,-1.734554304E1,1.840456501E1,2.631841927E1
1.410697288E1,5.973057674E0,-1.877946158E1,1.898619457E1,2.736459719E1
1.411695787E1,4.266128540E0,-2.049162105E1,1.875991902E1,2.810766706E1
1.412694387E1,2.530704755E0,-2.244561083E1,1.806128433E1,2.892092502E1
1.413692887E1,1.092100840E0,-2.433268040E1,1.705517148E1,2.973467494E1
1.414691388E1,-4.081064165E-1,-2.647498093E1,1.565586027E1,3.076031741E1
1.415689987E1,-2.023605855E0,-2.864125973E1,1.396677274E1,3.192941403E1
1.416688487E1,-3.815354991E0,-3.054739823E1,1.201094109E1,3.304486614E1
1.417687088E1,-6.151227012E0,-3.205995832E1,1.005732787E1,3.415886949E1
1.418685588E1,-9.132921664E0,-3.177198762E1,7.751306466E0,3.395514994E1
1.419684187E1,-1.265886053E1,-2.966025867E1,4.924120395E0,3.262245632E1
1.420682687E1,-1.697481670E1,-2.630695300E1,1.965016462E0,3.136975403E1
1.421681187E1,-2.192389886E1,-2.198279670E1,-4.600681369E-1,3.105015869E1
1.422679787E1,-2.427696579E1,-1.777026607E1,-2.104495651E0,3.015928259E1
1.423678287E1,-2.291119421E1,-1.408244470E1,-3.227634681E0,2.708607935E1
1.424676887E1,-1.945506759E1,-1.178239682E1,-3.540035041E0,2.301860938E1
1.425675388E1,-1.517601436E1,-1.053922498E1,-3.082956147E0,1.873209261E1
1.426673888E1,-1.140472048E1,-9.279253498E0,-2.418555744E0,1.490038948E1
1.427672487E1,-9.293590286E0,-8.134879720E0,-1.642563568E0,1.245973930E1
1.428670987E1,-8.820741159E0,-7.281724763E0,-9.055230586E-1,1.147383816E1
1.429669588E1,-9.587293589E0,-6.703642711E0,-1.009264505E0,1.174196060E1
1.430668088E1,-1.054451554E1,-6.126690926E0,-2.062489547E0,1.236838764E1
1.431666687E1,-1.123990501E1,-5.413127718E0,-3.257714513E0,1.289380162E1
1.432665187E1,-1.149943134E1,-4.549945371E0,-3.959117266E0,1.298512740E1
1.433663687E1,-1.079840983E1,-3.783216940E0,-3.575900985E0,1.198772093E1
1.434662287E1,-9.311541238E0,-3.033353632E0,-2.632002504E0,1.014068398E1
1.435660787E1,-7.471401422E0,-2.280818732E0,-1.773188027E0,8.010503672E0
1.436659387E1,-5.701938071E0,-1.696298311E0,-9.619315866E-1,6.026179395E0
1.437657888E1,-4.274972161E0,-1.193415545E0,6.931991100E-2,4.438967548E0
1.438656487E1,-3.111265442E0,-6.613604361E-1,1.157728672E0,3.384923331E0
1.439654987E1,-2.357084843E0,-2.022154284E-1,1.536232975E0,2.820771488E0
1.440653487E1,-1.804351348E0,-1.040740067E-1,1.377051884E0,2.272176727E0
1.441652088E1,-1.708014961E0,-1.747843856E-1,8.273833537E-1,1.905892941E0
1.442650587E1,-2.139803478E0,-1.395572501E-1,1.038991749E-1,2.146865201E0
1.443649187E1,-2.673930548E0,-2.872070467E-1,-5.906950808E-1,2.753418447E0
1.444647687E1,-3.005318864E0,-4.588620025E-1,-1.254728279E0,3.288896299E0
1.445646288E1,-2.994063559E0,-5.715793633E-1,-1.719352859E0,3.499613381E0
1.446644787E1,-2.732192205E0,-5.836825150E-1,-1.900019982E0,3.378703221E0
1.447643287E1,-2.415261422E0,-4.326688153E-1,-1.851380503E0,3.073808681E0
1.448641887E1,-2.083444506E0,-3.548347735E-1,-1.512245357E0,2.598756384E0
1.449640388E1,-1.690804559E0,-4.278472012E-1,-9.595503080E-1,1.990630573E0
1.450638987E1,-1.323099479E0,-3.331433576E-1,-4.954755127E-1,1.451575941E0
1.451637487E1,-1.116027646E0,-2.301499164E-1,-1.266483521E-1,1.146528018E0
1.452635987E1,-1.124972717E0,-2.842618042E-1,1.434953499E-1,1.169170348E0
1.453634588E1,-1.441475483E0,-4.645279545E-1,4.528332308E-2,1.515152919E0
1.454633087E1,-1.876329111E0,-7.741339302E-1,-3.874188213E-1,2.066394835E0
1.455631687E1,-2.455734972E0,-1.144359745E0,-9.539966226E-1,2.872334074E0
1.456630187E1,-3.233210294E0,-1.523815389E0,-1.306961310E0,3.805760109E0
1.457628788E1,-4.045485319E0,-1.951660836E0,-1.517898592E0,4.741196856E0
1.458627287E1,-4.757965915E0,-2.290866002E0,-1.623581167E0,5.524701123E0
1.459625787E1,-5.478092623E0,-2.501866288E0,-1.728238288E0,6.265432250E0
1.460624387E1,-6.116798022E0,-2.834129639E0,-1.780508741E0,6.972640836E0
1.461622888E1,-6.599048302E0,-3.234121290E0,-1.735814964E0,7.551161010E0
1.462621487E1,-7.027988348E0,-3.510651321E0,-1.647324518E0,8.026890493E0
1.463619987E1,-7.385014658E0,-3.916410080E0,-1.373778905E0,8.471362222E0
1.464618587E1,-7.745734069E0,-4.397699663E0,-1.084081968E0,8.972814069E0
1.465617088E1,-8.145277823E0,-4.767928986E0,-8.493444724E-1,9.476290607E0
1.466615587E1,-8.545173579E0,-5.109192372E0,-6.994967075E-1,9.980637948E0
1.467614187E1,-8.929209933E0,-5.575374504E0,-6.745396216E-1,1.054848779E1
1.468612687E1,-9.186736513E0,-6.212859589E0,-6.931219268E-1,1.111198317E1
1.469611288E1,-9.207885892E0,-6.931463097E0,-6.298879440E-1,1.154240452E1
1.470609787E1,-9.155669671E0,-7.678958282E0,-4.263134766E-1,1.195719159E1
1.471608387E1,-9.338720266E0,-8.357147005E0,-8.960748352E-2,1.253242322E1
1.472606887E1,-9.593282307E0,-9.034976708E0,3.557620689E-1,1.318288421E1
1.473605662E1,-9.796425104E0,-9.848667637E0,7.944319546E-1,1.391392544E1
1.474604262E1,-9.878829914E0,-1.073696728E1,1.048065459E0,1.462778822E1
1.475602763E1,-9.952923492E0,-1.179005199E1,1.415957065E0,1.549422300E1
1.476601362E1,-9.847735591E0,-1.281220844E1,1.949658165E0,1.627672413E1
1.477599862E1,-9.597641991E0,-1.377879061E1,2.498179033E0,1.697676945E1
1.478598362E1,-9.385469924E0,-1.473351696E1,3.323798867E0,1.778232849E1
1.479596963E1,-9.165608768E0,-1.535662433E1,4.422117636E0,1.842252478E1
1.480595463E1,-9.177525394E0,-1.590063056E1,5.365123247E0,1.912698544E1
1.481594062E1,-8.962803941E0,-1.666490843E1,6.145972120E0,1.989532610E1
1.482592562E1,-8.190772669E0,-1.735244743E1,7.119621819E0,2.046668521E1
1.483591163E1,-7.034322637E0,-1.778503380E1,8.699584512E0,2.101123254E1
1.484589662E1,-5.358645117E0,-1.811751116E1,1.037467263E1,2.155442229E1
1.485588162E1,-3.881214520E0,-1.819883190E1,1.175088851E1,2.200783245E1
1.486586762E1,-2.545202342E0,-1.823207449E1,1.232545463E1,2.215408375E1
1.487585263E1,-1.554400420E-1,-1.849501793E1,1.121477953E1,2.163009777E1
1.488583862E1,2.022543123E0,-1.850952721E1,9.410145174E0,2.086250489E1
1.489582362E1,4.872873058E0,-1.882848464E1,7.455329765E0,2.082879419E1
1.490580962E1,9.328012844E0,-1.836799535E1,5.039650851E0,2.120832755E1
1.491579463E1,1.319887078E1,-1.710782916E1,4.422730131E0,2.205557867E1
1.492577962E1,1.603847165E1,-1.587897131E1,5.445189171E0,2.321689876E1
1.493576562E1,1.854652020E1,-1.372484303E1,6.277589436E0,2.391135414E1
1.494575062E1,1.958313214E1,-1.187156803E1,7.617390609E0,2.413416316E1
1.495573663E1,1.978794607E1,-1.104999096E1,8.385334677E0,2.416565636E1
1.496572162E1,2.040049102E1,-1.049102404E1,6.773297083E0,2.391901279E1
1.497570762E1,2.091715334E1,-1.035429626E1,3.857631237E0,2.365629036E1
1.498569262E1,2.148499750E1,-1.088954102E1,1.091507640E0,2.411179400E1
1.499567763E1,2.275466658E1,-1.082811836E1,-1.547321489E0,2.524712265E1
1.500566362E1,2.375107657E1,-1.026864507E1,-2.676768495E0,2.601391549E1
1.501564862E1,2.372244626E1,-9.796004689E0,-2.011939198E0,2.574420447E1
1.502563462E1,2.336781731E1,-9.189489967E0,-5.970548049E-1,2.511688847E1
1.503561963E1,2.275921572E1,-8.401188233E0,6.211555660E-1,2.426824464E1
1.504560462E1,2.169288940E1,-7.992404709E0,1.518046526E0,2.316817751E1
1.505559062E1,2.026681666E1,-7.766744285E0,1.944802052E0,2.179101717E1
1.506557562E1,1.829337202E1,-7.905850130E0,2.049752557E0,2.003375680E1
1.507556163E1,1.609850268E1,-8.492425847E0,2.035888808E0,1.831469160E1
1.508554662E1,1.464112160E1,-9.315783978E0,1.723576156E0,1.743895030E1
1.509553262E1,1.433716579E1,-9.808847514E0,1.103729782E0,1.740649396E1
1.510551762E1,1.435069975E1,-1.029083525E1,8.385018343E-1,1.767899768E1
1.511550263E1,1.362800612E1,-1.089946959E1,1.194181530E0,1.749134236E1
1.512548862E1,1.228371136E1,-1.147032858E1,1.902415878E0,1.691381650E1
1.513547362E1,1.083408720E1,-1.207995461E1,2.879746107E0,1.648016038E1
1.514545962E1,9.885822015E0,-1.240104977E1,4.272968321E0,1.642479134E1
1.515544463E1,9.452999418E0,-1.273375985E1,6.143256673E0,1.700727611E1
1.516543062E1,9.576018988E0,-1.331641267E1,7.995946367E0,1.824725033E1
1.517541562E1,1.017964928E1,-1.417327886E1,9.821200926E0,2.002406254E1
1.518540062E1,1.065297905E1,-1.541348616E1,1.173540859E1,2.210839960E1
1.519538663E1,1.075365056E1,-1.723903250E1,1.354743850E1,2.442044905E1
1.520537162E1,1.038473452E1,-1.926688665E1,1.467822686E1,2.635348129E1
1.521535762E1,9.520643517E0,-2.151528841E1,1.521449957E1,2.801840976E1
1.522534262E1,8.258771694E0,-2.433299615E1,1.506433956E1,2.978651268E1
1.523532863E1,6.452763246E0,-2.686513289E1,1.467626804E1,3.128524192E1
1.524531362E1,3.601364440E0,-2.937273003E1,1.491002335E1,3.313662463E1
1.525529862E1,-5.390080333E-2,-3.132257063E1,1.529649741E1,3.485812917E1
1.526528462E1,-3.758583789E0,-3.211610328E1,1.534859376E1,3.579316098E1
1.527526963E1,-7.115187875E0,-3.158941416E1,1.393304834E1,3.525119603E1
1.528525562E1,-9.732140815E0,-2.997663046E1,1.095516666E1,3.336657932E1
1.529524062E1,-1.208064575E1,-2.750491651E1,8.071391237E0,3.110642684E1
1.530522663E1,-1.438100119E1,-2.435289305E1,6.207275498E0,2.895525625E1
1.531521163E1,-1.568398304E1,-2.124610833E1,5.303944999E0,2.693540933E1
1.532519662E1,-1.684880570E1,-1.858388508E1,4.889682634E0,2.555683929E1
1.533518262E1,-1.781263383E1,-1.620837888E1,4.282353394E0,2.446098977E1
1.534516762E1,-1.771075896E1,-1.343178643E1,2.876027863E0,2.241328637E1
1.535515363E1,-1.707848784E1,-1.117171245E1,1.388945267E0,2.045509899E1
1.536513862E1,-1.621137265E1,-9.842046250E0,-3.472699383E-1,1.896826492E1
1.537512462E1,-1.535651674E1,-9.142125181E0,-2.389653249E0,1.803084862E1
1.538510963E1,-1.538430271E1,-8.697963663E0,-4.300635298E0,1.818864497E1
1.539509463E1,-1.635000897E1,-8.154906433E0,-5.104449695E0,1.897052184E1
1.540508062E1,-1.787185560E1,-7.389862000E0,-4.434055896E0,1.984122311E1
1.541506562E1,-1.874485425E1,-6.548749384E0,-2.798111376E0,2.005205991E1
1.542505163E1,-1.797746567E1,-5.343299684E0,-1.470934048E0,1.881233027E1
1.543503663E1,-1.559429260E1,-4.189044696E0,-6.818546346E-1,1.616152786E1
1.544502162E1,-1.234559829E1,-3.442852855E0,-3.475419800E-1,1.282138130E1
1.545500762E1,-9.191904282E0,-2.675013453E0,-2.834195128E-1,9.577428043E0
1.546499262E1,-6.586679102E0,-2.115080574E0,-1.954841137E-1,6.920702382E0
1.547497862E1,-4.266511825E0,-1.946302448E0,-4.496839204E-1,4.710990554E0
1.548496362E1,-2.200947520E0,-1.585927438E0,-8.514949322E-1,2.843304318E0
1.549494962E1,-9.449995118E-1,-1.035548909E0,-6.733501518E-1,1.555244690E0
1.550493463E1,-4.746918771E-1,-4.555103785E-1,-1.445767924E-2,6.580509916E-1
1.551491963E1,-5.174759540E-1,4.257416189E-2,5.953684679E-1,7.899731228E-1
1.552490562E1,-9.155786616E-1,2.870643747E-1,8.522727580E-1,1.283378002E0
1.553489062E1,-1.483659051E0,4.299902058E-1,7.594071329E-1,1.721288747E0
1.554487663E1,-1.860393694E0,4.051056254E-1,5.208945286E-1,1.973957034E0
1.555486163E1,-1.810289488E0,2.186420113E-1,1.338651319E-1,1.828352327E0
1.556484762E1,-1.496264186E0,1.544863611E-1,-3.673231106E-1,1.548418166E0
1.557483262E1,-7.978946757E-1,1.126764303E-1,-6.755182993E-1,1.051502194E0
1.558481763E1,2.271117032E-2,4.628948271E-2,-8.628301983E-1,8.643694028E-1
1.559480362E1,5.804042736E-1,8.071145654E-2,-8.538642240E-1,1.035600103E0
1.560478862E1,8.157035404E-1,1.028244567E-1,-7.221067210E-1,1.094250086E0
1.561477462E1,5.822593027E-1,1.109041393E-2,-6.170740633E-1,8.484864716E-1
1.562475963E1,-1.302028745E-2,-5.778335452E-2,-6.863568445E-1,6.889079488E-1
1.563474463E1,-5.571288469E-1,-1.487625217E-1,-7.876339817E-1,9.761609135E-1
1.564473062E1,-9.007869601E-1,-2.814323366E-1,-6.596454477E-1,1.151413663E0
1.565471562E1,-1.180145874E0,-3.873429537E-1,-5.849110150E-1,1.372916510E0
1.566470163E1,-1.295146865E0,-4.884477443E-1,-5.425187016E-1,1.486712192E0
1.567468662E1,-1.398920325E0,-6.144265902E-1,-4.797485492E-1,1.601454583E0
1.568467262E1,-1.636537136E0,-8.394812429E-1,-3.336302845E-1,1.869302469E0
1.569465762E1,-2.045247569E0,-1.177893527E0,-2.393253672E-1,2.372287380E0
1.570464263E1,-2.617039771E0,-1.495533577E0,-3.678284562E-1,3.036579592E0
1.571462862E1,-3.384372513E0,-1.953971656E0,-5.934242687E-1,3.952737646E0
1.572461362E1,-4.384304277E0,-2.507088436E0,-8.360534589E-1,5.119238401E0
1.573459962E1,-5.641205381E0,-3.010299815E0,-1.075869992E0,6.484026478E0
1.574458204E1,-7.205610387E0,-3.533525044E0,-1.369944009E0,8.141459751E0
1.575456804E1,-8.716160198E0,-4.034448992E0,-1.689828659E0,9.752115061E0
1.576455304E1,-9.927172354E0,-4.551748652E0,-2.009873961E0,1.110435771E1
1.577453804E1,-1.092609430E1,-5.146175426E0,-2.224532118E0,1.228052122E1
1.578452404E1,-1.154284458E1,-5.815735413E0,-2.043252207E0,1.308567610E1
1.579450904E1,-1.170373423E1,-6.402152671E0,-1.451436800E0,1.341907681E1
1.580449504E1,-1.161620258E1,-6.903123981E0,-6.647862466E-1,1.352890327E1
1.581448004E1,-1.148293284E1,-7.399173106E0,3.253741622E-2,1.366040145E1
1.582446504E1,-1.135721536E1,-8.034916306E0,5.154460931E-1,1.392163444E1
1.583445104E1,-1.120251792E1,-8.811432391E0,8.184430341E-1,1.427611983E1
1.584443604E1,-1.122480049E1,-9.642246307E0,9.346832693E-1,1.482709319E1
1.585442204E1,-1.118336478E1,-1.041692695E1,1.124855772E0,1.532466363E1
1.586440704E1,-1.102866031E1,-1.138008499E1,1.437603457E0,1.591239726E1
1.587439304E1,-1.094776058E1,-1.247967494E1,1.927007221E0,1.671254335E1
1.588437804E1,-1.077187750E1,-1.362336811E1,2.598422529E0,1.756078879E1
1.589436404E1,-1.046301120E1,-1.476044924E1,3.303029557E0,1.839172285E1
1.590434904E1,-1.021610550E1,-1.589003073E1,3.974419137E0,1.930434914E1
1.591433404E1,-1.014586173E1,-1.692290044E1,4.643126600E0,2.027021693E1
1.592432004E1,-1.008989218E1,-1.789771666E1,5.400014752E0,2.124368954E1
1.593430504E1,-9.574481755E0,-1.891978657E1,6.276912913E0,2.211399241E1
1.594429104E1,-8.507285376E0,-1.990672407E1,7.343704079E0,2.286004281E1
1.595427604E1,-7.230924738E0,-2.062016390E1,8.561253422E0,2.346854260E1
1.596426104E1,-5.931827202E0,-2.074775482E1,9.920828125E0,2.375034178E1
1.597424704E1,-4.706958899E0,-2.078307434E1,1.090175352E1,2.393616241E1
1.598423204E1,-3.383372054E0,-2.100345590E1,1.129462326E1,2.408652903E1
1.599421804E1,-1.321513422E0,-2.122562203E1,1.076623260E1,2.383663551E1
1.600420304E1,2.140456320E0,-2.101257990E1,8.963593315E0,2.294463058E1
1.601418904E1,6.713262550E0,-1.971548269E1,6.659578094E0,2.186591256E1
1.602417404E1,1.085940681E1,-1.742073589E1,5.311164556E0,2.120417941E1
1.603415904E1,1.374064337E1,-1.492319713E1,5.772492329E0,2.109096396E1
1.604414504E1,1.484694359E1,-1.304425870E1,7.465246643E0,2.112615267E1
1.605413004E1,1.405833429E1,-1.231266677E1,9.514316829E0,2.097047331E1
1.606411604E1,1.333212180E1,-1.240778577E1,1.033654294E1,2.094141207E1
1.607410104E1,1.423470269E1,-1.256049516E1,9.301386963E0,2.114021284E1
1.608408704E1,1.654585444E1,-1.261897901E1,6.898270208E0,2.192236443E1
1.609407204E1,1.925149911E1,-1.178975145E1,4.283414079E0,2.297751278E1
1.610405704E1,2.116008878E1,-1.052673064E1,2.435645986E0,2.375907798E1
1.611404304E1,2.169891671E1,-9.514063060E0,1.895914652E0,2.376877941E1
1.612402804E1,2.108586890E1,-8.979343375E0,2.369958365E0,2.304038145E1
1.613401404E1,2.027317141E1,-8.481438344E0,2.883904647E0,2.216423203E1
1.614399904E1,1.966237126E1,-8.375789098E0,2.976249724E0,2.157824713E1
1.615398504E1,1.963052733E1,-8.619537883E0,2.701123610E0,2.160902833E1
1.616397004E1,2.022799348E1,-8.496293195E0,2.175679947E0,2.204750103E1
1.617395504E1,2.056448905E1,-8.238089508E0,1.939226732E0,2.223791647E1
1.618394104E1,2.008013143E1,-8.031999714E0,2.016567269E0,2.172075600E1
1.619392604E1,1.853360137E1,-7.967822430E0,2.328659481E0,2.030771353E1
1.620391204E1,1.627923310E1,-8.257081264E0,2.655888380E0,1.844577362E1
1.621389704E1,1.387884582E1,-8.727483916E0,2.835874448E0,1.663831484E1
1.622388204E1,1.200720121E1,-9.248424053E0,2.901138146E0,1.543122908E1
1.623386804E1,1.101765352E1,-9.686569371E0,2.781813431E0,1.493173805E1
1.624385304E1,1.062935396E1,-9.833415760E0,2.513159015E0,1.469677513E1
1.625383904E1,1.034010857E1,-1.015926121E1,2.853682728E0,1.477402920E1
1.626382404E1,9.928988500E0,-1.082960706E1,3.809520932E0,1.517819658E1
1.627381004E1,9.816043682E0,-1.161128273E1,4.892894217E0,1.597238285E1
1.628379504E1,1.027392745E1,-1.217337674E1,5.633596399E0,1.689621540E1
1.629378004E1,1.082354467E1,-1.283879339E1,6.269243120E0,1.792448449E1
1.630376604E1,1.111731346E1,-1.384205631E1,7.361517037E0,1.921949829E1
1.631375104E1,1.094769977E1,-1.500769174E1,8.735020977E0,2.052762852E1
1.632373704E1,9.964230838E0,-1.629413882E1,1.027740303E1,2.168893426E1
1.633372204E1,8.383929591E0,-1.773749009E1,1.205525246E1,2.302689605E1
1.634370804E1,7.005536794E0,-1.919938990E1,1.375520060E1,2.463533360E1
1.635369304E1,5.663890824E0,-2.038452812E1,1.483606543E1,2.584022994E1
1.636367804E1,4.409361935E0,-2.113899904E1,1.554882932E1,2.660950669E1
1.637366404E1,3.019740729E0,-2.204012748E1,1.610256299E1,2.746231214E1
1.638364904E1,1.840629812E0,-2.327780527E1,1.644033792E1,2.855746570E1
1.639363504E1,1.254645249E0,-2.448820464E1,1.620748425E1,2.939266655E1
1.640362004E1,1.227111295E0,-2.564373140E1,1.556126050E1,3.002098584E1
1.641360604E1,1.128379304E0,-2.728398298E1,1.502572806E1,3.116827667E1
1.642359104E1,-2.331963158E-1,-2.959201465E1,1.444055158E1,3.292827420E1
1.643357604E1,-3.053969745E0,-3.109994140E1,1.249777559E1,3.365601701E1
1.644356204E1,-6.276118276E0,-3.163440498E1,1.038726870E1,3.388245254E1
1.645354704E1,-1.035777535E1,-3.063750850E1,8.380432956E0,3.340916183E1
1.646353304E1,-1.496309736E1,-2.812237781E1,6.416345032E0,3.249510578E1
1.647351804E1,-1.923589640E1,-2.516328206E1,5.196643329E0,3.209697145E1
1.648350404E1,-2.301636223E1,-2.176964931E1,3.824750297E0,3.191080187E1
1.649348904E1,-2.535474797E1,-1.798073660E1,1.913334092E0,3.114210944E1
1.650347404E1,-2.581985421E1,-1.485529225E1,-1.030349565E-1,2.978850777E1
1.651346004E1,-2.448203466E1,-1.311480653E1,-2.355093573E0,2.787318850E1
1.652344504E1,-2.199235105E1,-1.221965043E1,-4.373356827E0,2.553643693E1
