"Time (s)","Linear Acceleration x (m/s^2)","Linear Acceleration y (m/s^2)","Linear Acceleration z (m/s^2)","Absolute acceleration (m/s^2)"
-5.976249813E-4,-4.636687792E-1,8.651224530E-1,4.259755075E-2,9.824663591E-1
9.388374980E-3,-9.723304211E-1,8.721320951E-1,2.549000108E-1,1.330794821E0
1.937437500E-2,-8.759829251E-1,8.893848896E-1,5.250296795E-1,1.354255416E0
2.935937501E-2,-1.097113658E0,1.259655728E0,5.238374323E-1,1.750656044E0
3.934537497E-2,-1.361699874E0,1.668790669E0,5.226118559E-1,2.216351054E0
4.933037498E-2,-1.328247368E0,1.916999127E0,8.036951137E-1,2.466789930E0
5.931637500E-2,-1.300043323E0,2.185688041E0,1.386750222E0,2.896622350E0
6.930137501E-2,-1.452813527E0,2.462219242E0,2.056597307E0,3.521758541E0
7.928737497E-2,-1.584148422E0,2.615512771E0,2.513244385E0,3.958134739E0
8.927237499E-2,-1.822422460E0,2.701845156E0,2.794114219E0,4.292815526E0
9.925837500E-2,-2.220531307E0,2.739142790E0,3.024179935E0,4.645355400E0
1.092433750E-1,-2.644296860E0,2.714036601E0,3.190629115E0,4.953626419E0
1.192293750E-1,-2.871234608E0,2.572369675E0,3.127648171E0,4.964197518E0
1.292143750E-1,-2.936377853E0,2.429014658E0,2.901393669E0,4.789625489E0
1.392003750E-1,-3.010493358E0,2.186773285E0,2.762395413E0,4.634207168E0
1.491853750E-1,-3.193519101E0,1.813534985E0,2.841001872E0,4.643141719E0
1.591713750E-1,-3.573315346E0,1.264097273E0,3.112267070E0,4.904358347E0
1.691563750E-1,-3.830539625E0,6.135997939E-1,3.251241353E0,5.061631047E0
1.791423750E-1,-3.727206168E0,-7.034785151E-2,3.129268434E0,4.867169154E0
1.891273750E-1,-3.479670726E0,-7.384992439E-1,2.712732671E0,4.473523001E0
1.991133750E-1,-3.390217389E0,-1.262767031E0,2.262713413E0,4.267086420E0
2.090983750E-1,-3.514667773E0,-1.753978754E0,1.873194711E0,4.351803011E0
2.190843750E-1,-3.491892868E0,-2.386163338E0,1.371993604E0,4.446285836E0
2.290693750E-1,-3.335320221E0,-2.978545341E0,7.246887052E-1,4.530040512E0
2.390553750E-1,-3.327911214E0,-3.261886793E0,1.883312148E-1,4.663728888E0
2.490403750E-1,-3.289809002E0,-3.494484354E0,-2.159096074E-1,4.804256564E0
2.590263750E-1,-5.421064728E0,-3.928517325E0,-2.881645868E0,7.288694950E0
2.690113750E-1,-3.093515049E0,-5.099715205E0,-1.278964403E0,6.100219707E0
2.789973750E-1,-2.048855886E0,-4.097950923E0,-1.542629975E-1,4.584191236E0
2.889823750E-1,-2.639755327E0,-3.830733753E0,-1.086181411E0,4.777302516E0
2.989683750E-1,-2.366816948E0,-4.846186951E0,-3.736329871E-1,5.406195708E0
3.089543750E-1,-2.240500718E0,-4.718796002E0,6.018539071E-2,5.224031150E0
3.189393750E-1,-1.913160430E0,-4.640617560E0,-4.833308458E-3,5.019515666E0
3.289253750E-1,-1.568992147E0,-4.676060457E0,-1.773556986E-1,4.935456696E0
3.389103750E-1,-1.558222745E0,-4.624200917E0,-1.303446695E-1,4.881422126E0
3.488963750E-1,-1.717668715E0,-4.649504158E0,-6.457255661E-2,4.957060050E0
3.588813750E-1,-1.797915902E0,-4.681345171E0,-1.196407565E-1,5.016154713E0
3.688673750E-1,-1.498363044E0,-4.698473420E0,-5.042548147E-1,4.957319558E0
3.788523750E-1,-1.248016553E0,-4.679431377E0,-8.829476899E-1,4.922826419E0
3.888383750E-1,-8.340254983E-1,-4.638954611E0,-1.214878920E0,4.867384226E0
3.988233750E-1,-3.431488207E-1,-4.476626549E0,-1.337205595E0,4.684661693E0
4.088093750E-1,-1.019169688E-3,-4.386648425E0,-1.268499641E0,4.566374578E0
4.187943750E-1,1.512358940E-1,-4.098667207E0,-1.123759419E0,4.252620416E0
4.287803750E-1,4.813588724E-1,-3.782101876E0,-8.342281044E-1,3.902811485E0
4.387653750E-1,8.004426000E-1,-3.618540636E0,-6.173899591E-1,3.757088640E0
4.487513750E-1,1.042728120E0,-3.450136147E0,-6.471177882E-1,3.661896066E0
4.587359166E-1,1.448371105E0,-3.104306086E0,-9.162695101E-1,3.545989981E0
4.687219167E-1,2.063036261E0,-2.685012192E0,-1.142804385E0,3.573711089E0
4.787069167E-1,2.588503312E0,-2.234538020E0,-1.148135877E0,3.607176951E0
4.886929166E-1,3.052830123E0,-1.741844028E0,-8.372657329E-1,3.613143546E0
4.986779167E-1,3.473798075E0,-1.147952859E0,-3.569959044E-1,3.675937283E0
5.086639167E-1,4.203884345E0,-4.797886026E-1,-5.239836127E-2,4.231499294E0
5.186489167E-1,5.053352047E0,-8.885428905E-3,-5.758805752E-2,5.053687985E0
5.286349166E-1,5.954220284E0,2.795173734E-1,-2.506134170E-1,5.966043600E0
5.386199167E-1,7.038543157E0,6.452940416E-1,-3.968066722E-1,7.079191317E0
5.486059167E-1,8.275075486E0,1.021358886E0,-3.596815306E-1,8.345622749E0
5.585909167E-1,9.881822519E0,1.425793836E0,-2.985731569E-1,9.988616035E0
5.685769166E-1,1.144198128E1,1.966523289E0,-2.706307751E-1,1.161289759E1
5.785619167E-1,1.255777153E1,2.181497927E0,-2.594772112E-1,1.274848569E1
5.885479167E-1,1.338808200E1,2.168159258E0,-3.159525436E-1,1.356618886E1
5.985339166E-1,1.396153247E1,2.014321353E0,-6.199022153E-1,1.411970815E1
6.085189166E-1,1.422831051E1,1.735475240E0,-8.029402381E-1,1.435623235E1
6.185049167E-1,1.438609061E1,1.368855988E0,-6.299658582E-1,1.446479266E1
6.284899167E-1,1.443595684E1,9.211627525E-1,-2.712657827E-1,1.446786009E1
6.384759166E-1,1.410602886E1,2.729942197E-1,9.540843308E-2,1.410899284E1
6.484609167E-1,1.348755600E1,-4.598934513E-1,5.357353467E-1,1.350602388E1
6.584469167E-1,1.281566297E1,-1.205366085E0,9.334138387E-1,1.290602132E1
6.684319167E-1,1.203987779E1,-2.054354900E0,1.423654339E0,1.229657769E1
6.784179166E-1,1.134178690E1,-3.072260420E0,1.895036692E0,1.190235599E1
6.884029167E-1,1.073006640E1,-3.992665958E0,2.325454037E0,1.168261284E1
6.983889167E-1,9.977646689E0,-5.080349227E0,2.858236540E0,1.155564355E1
7.083739167E-1,8.840262673E0,-6.356203496E0,3.323359449E0,1.138403641E1
7.183599166E-1,7.287480762E0,-7.402600744E0,3.632268144E0,1.100451023E1
7.283449167E-1,5.961513516E0,-7.972038857E0,3.539604101E0,1.056512395E1
7.383309167E-1,5.127611686E0,-8.535615136E0,3.240276654E0,1.047131893E1
7.483159166E-1,4.591483991E0,-9.139444233E0,2.948026968E0,1.064434259E1
7.583019166E-1,4.168534418E0,-9.743166325E0,2.950995600E0,1.100065199E1
7.682869167E-1,3.847904394E0,-1.022272455E1,2.892466433E0,1.129941713E1
7.782729167E-1,3.588687969E0,-1.047432205E1,2.720731955E0,1.140142474E1
7.882579166E-1,3.431135035E0,-1.090930929E1,2.484842412E0,1.170299785E1
7.982439167E-1,2.927985344E0,-1.132764716E1,2.379889861E0,1.193953785E1
8.082289167E-1,1.680270216E0,-1.175169426E1,2.874134535E0,1.221418336E1
8.182149167E-1,-1.453471631E-1,-1.178812358E1,3.450288759E0,1.228354492E1
8.281999166E-1,-1.912945837E0,-1.109449762E1,3.436684628E0,1.177106794E1
8.381859167E-1,-3.036246834E0,-1.009422964E1,2.899364393E0,1.093245539E1
8.481709167E-1,-2.788701451E0,-9.241647130E0,1.909437507E0,9.840266717E0
8.581569167E-1,-1.864243793E0,-8.791109809E0,1.186263523E0,9.064559434E0
8.681429166E-1,-1.800361792E0,-8.389530054E0,1.357296335E0,8.687218799E0
8.781279167E-1,-2.607316729E0,-7.986468031E0,2.374899555E0,8.730516596E0
8.881139167E-1,-3.661423823E0,-7.420345289E0,3.308958049E0,8.911607711E0
8.980989166E-1,-4.661212330E0,-6.877546506E0,3.683663708E0,9.088285022E0
9.080849166E-1,-6.064954269E0,-6.837914078E0,3.431290863E0,9.762914330E0
9.180699167E-1,-7.728365500E0,-6.329551302E0,2.536584423E0,1.030655682E1
9.280559167E-1,-9.100999959E0,-5.618816977E0,1.630687581E0,1.081935518E1
9.380409166E-1,-1.050541287E1,-4.858301212E0,7.589636216E-1,1.159925928E1
9.480269167E-1,-1.161961501E1,-3.898283127E0,1.978332326E-1,1.225769972E1
9.580119167E-1,-1.232029037E1,-3.177494515E0,-3.567386270E-3,1.272344446E1
9.679979167E-1,-1.303275372E1,-2.551523767E0,-2.243196577E-2,1.328018999E1
9.779829166E-1,-1.375517487E1,-1.892658337E0,1.453208506E-2,1.388478313E1
9.879689167E-1,-1.425645316E1,-1.549341994E0,-1.674467146E-2,1.434040438E1
9.979539167E-1,-1.474817710E1,-1.264749822E0,-1.975540280E-2,1.480232111E1
1.007939917E0,-1.485403977E1,-9.100056803E-1,3.388563797E-1,1.488574592E1
1.017924917E0,-1.438803189E1,-6.760691071E-1,7.955438027E-1,1.442585945E1
1.027910917E0,-1.377672537E1,-6.344620746E-1,9.554502404E-1,1.382438386E1
1.037895917E0,-1.289279710E1,-8.015743285E-1,9.511700785E-1,1.295266239E1
1.047881917E0,-1.207472836E1,-1.016029733E0,1.001062616E0,1.215868035E1
1.057866917E0,-1.153319082E1,-1.331663604E0,1.132786351E0,1.166494850E1
1.067852917E0,-1.121538998E1,-1.785698730E0,1.517663241E0,1.145761729E1
1.077837917E0,-1.090451223E1,-2.312358028E0,1.832724669E0,1.129664846E1
1.087823917E0,-1.032877199E1,-2.786820402E0,1.869517104E0,1.086024829E1
1.097808917E0,-9.786060914E0,-3.339360647E0,1.934358341E0,1.051950854E1
1.107794917E0,-9.432532994E0,-3.972719936E0,2.312622322E0,1.049301693E1
1.117780917E0,-8.754319128E0,-4.889294379E0,2.586924564E0,1.035545661E1
1.127765917E0,-7.737477801E0,-5.865107548E0,1.959345540E0,9.904902029E0
1.137751917E0,-7.005135090E0,-6.347271874E0,1.150462191E0,9.522780116E0
1.147736917E0,-6.830485775E0,-6.759740898E0,1.337658169E0,9.702523502E0
1.157722917E0,-6.401715299E0,-7.357593555E0,1.906319772E0,9.937313358E0
1.167707917E0,-5.614152653E0,-7.959812329E0,2.052589041E0,9.954418320E0
1.177693917E0,-4.631265230E0,-8.617125322E0,1.932374965E0,9.971837316E0
1.187678917E0,-3.830094360E0,-9.266860324E0,1.725602801E0,1.017457754E1
1.197664917E0,-3.163239880E0,-9.772734525E0,1.331032104E0,1.035780252E1
1.207649917E0,-2.256191721E0,-1.032961867E1,8.975920415E-1,1.061117780E1
1.217635917E0,-1.286676150E0,-1.073001845E1,6.186469643E-1,1.082458108E1
1.227620917E0,-4.530193915E-1,-1.077418715E1,1.226904303E0,1.085327736E1
1.237606917E0,6.500601802E-2,-1.057715937E1,2.660196608E0,1.090674893E1
1.247591917E0,4.571967520E-1,-1.054280464E1,4.087320685E0,1.131662268E1
1.257577917E0,9.900153248E-1,-1.065497295E1,4.439271905E0,1.158515058E1
1.267562917E0,1.735802538E0,-1.046618156E1,3.711012012E0,1.123946516E1
1.277548917E0,2.496769270E0,-1.042050428E1,2.578579710E0,1.102133565E1
1.287533917E0,3.212377249E0,-1.016652813E1,2.124177087E0,1.087151278E1
1.297519917E0,4.153471406E0,-9.828409374E0,2.521135787E0,1.096380779E1
1.307504917E0,4.953975109E0,-9.243893631E0,2.633401743E0,1.081324390E1
1.317490917E0,4.277327712E0,-7.775256076E0,2.963831700E0,9.355984061E0
1.327475917E0,3.108668109E0,-6.793179370E0,3.299783767E0,8.166986977E0
1.337461917E0,3.359604584E0,-6.254816285E0,2.663386557E0,7.583092883E0
1.347446917E0,5.221657718E0,-5.406048494E0,1.787791156E0,7.725753482E0
1.357432917E0,7.982765574E0,-4.451751325E0,1.346333683E0,9.238790530E0
1.367417917E0,1.059626222E1,-3.207506518E0,1.460700251E0,1.116702809E1
1.377403917E0,1.327450334E1,-1.705979546E0,2.153987947E0,1.355590164E1
1.387388917E0,1.573092565E1,-5.720331073E-2,3.246579660E0,1.606255190E1
1.397374917E0,1.730164916E1,1.524020627E0,4.275522969E0,1.788714061E1
1.407360917E0,1.798372804E1,2.762489553E0,4.791013793E0,1.881487804E1
1.417345917E0,1.814279218E1,3.527632805E0,4.717017279E0,1.907499288E1
1.427331917E0,1.791651897E1,3.957042382E0,4.520459032E0,1.889694119E1
1.437316917E0,1.738078889E1,3.965567622E0,4.252774669E0,1.832767419E1
1.447302917E0,1.722759885E1,3.832389100E0,3.632822752E0,1.801873385E1
1.457287875E0,1.730661228E1,3.853185892E0,3.051232663E0,1.799099471E1
1.467273875E0,1.732647644E1,3.484061108E0,2.631507245E0,1.786813639E1
1.477258875E0,1.710769234E1,2.943774288E0,2.141712302E0,1.749073686E1
1.487244875E0,1.625699731E1,2.298894230E0,1.747401806E0,1.651145933E1
1.497229875E0,1.482417102E1,1.440684355E0,1.523470404E0,1.497172602E1
1.507215875E0,1.340864548E1,3.683973902E-1,1.298737932E0,1.347643167E1
1.517200875E0,1.181247373E1,-7.529079527E-1,9.196913007E-1,1.187212020E1
1.527186875E0,1.043043168E1,-1.767850689E0,8.174834329E-1,1.061072478E1
1.537171875E0,9.568438658E0,-2.630508540E0,9.909951720E-1,9.972796245E0
1.547157875E0,9.167595652E0,-3.271018390E0,1.285806815E0,9.818231537E0
1.557142875E0,9.072772526E0,-3.950836732E0,1.745114375E0,1.004836984E1
1.567128875E0,9.011003124E0,-4.757696943E0,2.309109608E0,1.044824601E1
1.577113875E0,8.925683477E0,-5.618432815E0,3.188100194E0,1.101810309E1
1.587099875E0,8.625321364E0,-6.487568797E0,3.973820967E0,1.150112910E1
1.597084875E0,7.810203130E0,-7.429357603E0,4.377472390E0,1.163429808E1
1.607070875E0,6.723830223E0,-8.462778710E0,4.544432616E0,1.172520295E1
1.617055875E0,5.318979360E0,-9.350602393E0,4.542664126E0,1.167737573E1
1.627041875E0,3.763012471E0,-9.708865389E0,4.257758251E0,1.124948156E1
1.637026875E0,2.718502119E0,-9.916770158E0,3.953091126E0,1.101632941E1
1.647012875E0,2.072923757E0,-1.024964279E1,3.741144469E0,1.110623033E1
1.656998875E0,1.766879174E0,-1.031822361E1,3.747292816E0,1.111889401E1
1.666983875E0,1.873626527E0,-1.031526492E1,4.046054546E0,1.123769212E1
1.676969875E0,2.659042953E0,-1.034113066E1,4.396066536E0,1.154707295E1
1.686954875E0,3.474212350E0,-1.023611116E1,4.740980046E0,1.180360178E1
1.696940875E0,3.675543387E0,-1.035343321E1,5.108464978E0,1.211608900E1
1.706925875E0,3.021163942E0,-1.072352453E1,5.172937548E0,1.228335023E1
1.716911875E0,1.671459631E0,-1.089879365E1,4.705036627E0,1.198811287E1
1.726896875E0,-1.797568578E-1,-1.090770949E1,4.133766289E0,1.166612457E1
1.736882875E0,-2.256339948E0,-1.082953455E1,3.356305293E0,1.156004645E1
1.746867875E0,-4.184620985E0,-1.054895123E1,2.611498657E0,1.164522864E1
1.756853875E0,-5.841568996E0,-9.853824881E0,2.184594027E0,1.166165701E1
1.766838875E0,-7.271797360E0,-9.033052974E0,2.305078830E0,1.182321747E1
1.776824875E0,-9.506059391E0,-8.071694123E0,2.726697284E0,1.276527670E1
1.786809875E0,-1.196696301E1,-7.260884117E0,2.652067517E0,1.424647690E1
1.796795875E0,-1.337380894E1,-6.405686728E0,1.615848225E0,1.491651949E1
1.806780875E0,-1.355289629E1,-5.324736528E0,1.668070292E-1,1.456233641E1
1.816766875E0,-1.314947701E1,-4.175915943E0,-7.562794572E-1,1.381734338E1
1.826751875E0,-1.300445436E1,-3.018332135E0,-7.503252375E-1,1.337120601E1
1.836737875E0,-1.357356035E1,-1.980411596E0,-1.318599755E-1,1.371790647E1
1.846722875E0,-1.461579380E1,-1.328485642E0,5.306292656E-1,1.468563482E1
1.856708875E0,-1.555511157E1,-8.019976670E-1,7.655776995E-1,1.559457616E1
1.866693875E0,-1.632369299E1,-4.870590305E-1,6.586517134E-1,1.634423450E1
1.876679875E0,-1.679203859E1,-4.183770508E-1,5.123535007E-1,1.680506190E1
1.886664875E0,-1.717376354E1,-4.735016763E-1,4.586018014E-1,1.718640956E1
1.896650875E0,-1.759662014E1,-7.995172781E-1,4.811588976E-1,1.762134450E1
1.906636875E0,-1.745657348E1,-1.340565405E0,3.043224317E-1,1.751061636E1
1.916621875E0,-1.635424586E1,-1.793215325E0,-2.919327664E-1,1.645485349E1
1.926607875E0,-1.511146695E1,-2.040826197E0,-5.728628272E-1,1.525940945E1
1.936592875E0,-1.356176535E1,-2.398972834E0,-1.226050025E-1,1.377285671E1
1.946578875E0,-1.139106840E1,-2.590756829E0,3.819374952E-1,1.168821357E1
1.956563875E0,-9.154455789E0,-2.790350951E0,8.751789330E-1,9.610205898E0
1.966549875E0,-7.583926409E0,-3.038879251E0,1.448234572E0,8.297476138E0
1.976534875E0,-6.537384735E0,-3.445809792E0,2.070287686E0,7.674444306E0
1.986520875E0,-5.743536333E0,-3.985054053E0,2.277133816E0,7.352156407E0
1.996505875E0,-5.189268236E0,-4.309454654E0,2.264607473E0,7.115360233E0
2.006491875E0,-4.819665735E0,-4.743424475E0,2.445901563E0,7.191083924E0
2.016476875E0,-4.920401566E0,-5.328497458E0,2.785465602E0,7.769302115E0
2.026462875E0,-5.106626029E0,-5.946824141E0,2.959714968E0,8.378678861E0
2.036447875E0,-4.684006531E0,-6.517259204E0,2.819065458E0,8.506568919E0
2.046433875E0,-3.551275436E0,-7.100713677E0,2.472855327E0,8.315449803E0
2.056418875E0,-2.446304875E0,-7.796333535E0,2.142055680E0,8.447225974E0
2.066404875E0,-1.954406396E0,-8.381252736E0,2.480955475E0,8.956575342E0
2.076389875E0,-1.664026358E0,-8.987601982E0,3.433403755E0,9.763925156E0
2.086375875E0,-1.398209596E0,-9.645561678E0,4.157471486E0,1.059605678E1
2.096360875E0,-1.202614531E0,-1.056624613E1,4.403671424E0,1.151017641E1
2.106346875E0,-7.652311058E-1,-1.141216983E1,4.199353337E0,1.218432466E1
2.116331875E0,9.617872152E-2,-1.156112648E1,3.983483491E0,1.222853371E1
2.126317875E0,1.122854709E0,-1.155581487E1,4.315904717E0,1.238647220E1
2.136302875E0,1.924590274E0,-1.151634851E1,4.705038089E0,1.258839601E1
2.146288875E0,2.015459953E0,-1.175301222E1,4.282342284E0,1.267019457E1
2.156273875E0,1.911812062E0,-1.152083215E1,3.210286285E0,1.211158688E1
2.166259875E0,1.436761896E0,-1.079235445E1,2.481538442E0,1.116679150E1
2.176245875E0,9.252832854E-1,-1.024112106E1,2.415275456E0,1.056268267E1
2.186230875E0,9.680580068E-1,-9.716999450E0,2.536436196E0,1.008913887E1
2.196216875E0,1.840938253E0,-9.105505239E0,2.551471726E0,9.633757692E0
2.206201875E0,3.066533365E0,-8.398377476E0,2.392456989E0,9.255280739E0
2.216187875E0,4.660360976E0,-7.569549860E0,2.177491999E0,9.151968144E0
2.226172875E0,6.496966442E0,-6.484566252E0,1.883764722E0,9.370631886E0
2.236158875E0,7.871177895E0,-5.217844164E0,1.756108310E0,9.605480497E0
2.246143875E0,8.768666441E0,-4.065612897E0,1.678166095E0,9.809941938E0
2.256129875E0,9.801029786E0,-2.643232082E0,1.431284079E0,1.025160645E1
2.266114875E0,1.072624700E1,-1.212414318E0,1.375494040E0,1.088183381E1
2.276100875E0,1.101308567E1,-6.126431894E-1,1.368628532E0,1.111469890E1
2.286085875E0,1.112739172E1,3.635161346E-1,1.398660416E0,1.122083960E1
2.296071875E0,1.136213872E1,1.119643564E0,1.523548172E0,1.151837649E1
2.306056875E0,1.165450184E1,1.604657823E0,1.332710840E0,1.183969839E1
2.316042875E0,1.232599141E1,2.090203010E0,1.022107329E0,1.254367236E1
2.326027875E0,1.363818144E1,2.480581838E0,6.261198521E-1,1.387606952E1
2.336013875E0,1.530562258E1,3.252316071E0,5.076040998E-1,1.565558380E1
2.345998875E0,1.666721691E1,3.688359899E0,9.653296959E-1,1.709771855E1
2.355984875E0,1.736309872E1,3.562964605E0,1.542448711E0,1.779188191E1
2.365969875E0,1.777957484E1,3.392042305E0,1.827672967E0,1.819229565E1
2.375955875E0,1.801992581E1,3.133673726E0,1.873030989E0,1.838602410E1
2.385940875E0,1.781290163E1,2.447532206E0,1.942234540E0,1.808485978E1
2.395926875E0,1.680907504E1,1.635151053E0,1.959497275E0,1.700171615E1
2.405911875E0,1.520358632E1,7.698257017E-1,2.083662899E0,1.536500308E1
2.415897875E0,1.362110523E1,1.712649465E-2,2.222552397E0,1.380125140E1
2.425883875E0,1.228889433E1,-6.863058275E-1,2.188150596E0,1.250103766E1
2.435868875E0,1.120011939E1,-1.508260041E0,2.100632396E0,1.149478922E1
2.445854875E0,1.039676107E1,-2.308381337E0,2.094726416E0,1.085399208E1
2.455840750E0,9.976676052E0,-2.968743069E0,2.147352526E0,1.062819944E1
2.465826750E0,9.517029353E0,-3.605066897E0,2.467225628E0,1.047175044E1
2.475811750E0,8.870147207E0,-4.254042345E0,3.032785283E0,1.029437586E1
2.485797750E0,8.264378005E0,-4.960947914E0,3.576421095E0,1.028113495E1
2.495782750E0,7.623804420E0,-5.764633672E0,3.896476337E0,1.032162405E1
2.505768750E0,6.669505497E0,-6.819237487E0,4.047758424E0,1.036188456E1
2.515753750E0,5.410949045E0,-7.718550364E0,3.996437413E0,1.023845209E1
2.525739750E0,4.438143977E0,-8.287489125E0,3.921504467E0,1.018615704E1
2.535724750E0,3.876170419E0,-8.695355220E0,3.860039413E0,1.027296470E1
2.545710750E0,3.403499340E0,-8.881761532E0,3.644099400E0,1.018572315E1
2.555695750E0,3.193042261E0,-9.107202101E0,3.525614346E0,1.027456109E1
2.565681750E0,3.131062067E0,-9.517277859E0,3.664689201E0,1.066827420E1
2.575666750E0,3.102570340E0,-9.793700302E0,3.883144393E0,1.098277372E1
2.585652750E0,3.136433612E0,-9.992638950E0,4.119776241E0,1.125444824E1
2.595637750E0,3.299377971E0,-1.031959537E1,4.218863742E0,1.162663988E1
2.605623750E0,3.366928514E0,-1.117808942E1,4.079745618E0,1.236649566E1
2.615608750E0,2.598509068E0,-1.215904872E1,3.734267558E0,1.298227520E1
2.625594750E0,1.434642135E0,-1.205580327E1,2.933187320E0,1.249016326E1
2.635579750E0,8.976432046E-1,-1.179138399E1,1.999022114E0,1.199327266E1
2.645565750E0,4.069264483E-1,-1.156918512E1,9.760124128E-1,1.161741080E1
2.655550750E0,-1.102495435E-1,-1.100002299E1,3.259047970E-2,1.100062375E1
2.665536750E0,-4.259775540E-1,-1.031696412E1,-1.931021042E-1,1.032755992E1
2.675522750E0,-6.019179341E-1,-9.698321689E0,3.614487053E-1,9.723702688E0
2.685507750E0,-1.103773636E0,-9.200293867E0,1.569445306E0,9.398238242E0
2.695493750E0,-2.435333160E0,-8.693780565E0,2.905866789E0,9.484552172E0
2.705478750E0,-4.388428318E0,-8.208628896E0,3.594395143E0,9.977954094E0
2.715464750E0,-6.457097787E0,-7.842019000E0,3.767171595E0,1.083434150E1
2.725449750E0,-8.644411354E0,-7.468004774E0,3.679599016E0,1.200151623E1
2.735435750E0,-1.101929658E1,-7.089699277E0,3.645867890E0,1.360077519E1
2.745420750E0,-1.345303287E1,-6.377584425E0,3.494322094E0,1.529274218E1
2.755406750E0,-1.520641170E1,-5.249684592E0,2.470010072E0,1.627559814E1
2.765391750E0,-1.598894574E1,-4.120673203E0,1.044343413E0,1.654439442E1
2.775377750E0,-1.622248821E1,-3.269655404E0,-1.813310744E-1,1.654970245E1
2.785362750E0,-1.600974662E1,-2.522122212E0,-1.175638986E0,1.624977583E1
2.795348750E0,-1.547570872E1,-1.797529401E0,-1.594062230E0,1.566108894E1
2.805333750E0,-1.540965624E1,-1.284183628E0,-1.149969710E0,1.550577516E1
2.815319750E0,-1.518037872E1,-9.201067454E-1,-2.191548121E-1,1.520981668E1
2.825304750E0,-1.438692209E1,-6.339060044E-1,5.719144088E-1,1.441223265E1
2.835290750E0,-1.384029630E1,-6.562704349E-1,1.052540917E0,1.389576680E1
2.845275750E0,-1.368491005E1,-1.015377184E0,1.340433696E0,1.378783944E1
2.855261750E0,-1.341537914E1,-1.221416107E0,1.401339025E0,1.354355957E1
2.865246750E0,-1.291690400E1,-1.492409994E0,1.296057861E0,1.306726684E1
2.875232750E0,-1.230933620E1,-1.970666626E0,1.289845341E0,1.253263682E1
2.885217750E0,-1.162572184E1,-2.480875953E0,1.436793618E0,1.197399389E1
2.895203750E0,-1.101129876E1,-2.999093626E0,1.558831440E0,1.151838610E1
2.905189750E0,-1.028742516E1,-3.539841791E0,1.468577620E0,1.097808346E1
2.915174750E0,-9.215775540E0,-4.035628960E0,1.285072989E0,1.014239777E1
2.925160750E0,-8.054605635E0,-4.605239566E0,1.135350209E0,9.347401965E0
2.935145750E0,-6.883535224E0,-5.016418110E0,1.117785904E0,8.590515302E0
2.945131750E0,-6.005227300E0,-5.390935780E0,1.325299494E0,8.178102608E0
2.955116750E0,-5.588899114E0,-5.896956162E0,1.558566561E0,8.272787620E0
2.965102750E0,-5.207847179E0,-6.313918186E0,1.646484857E0,8.348541639E0
2.975087750E0,-4.691559672E0,-6.726317044E0,1.676409591E0,8.370449346E0
2.985073750E0,-4.245709771E0,-7.287333997E0,1.790344927E0,8.621868892E0
2.995058750E0,-3.937691314E0,-7.892734825E0,2.087766475E0,9.064184727E0
3.005044750E0,-3.764134844E0,-8.388849438E0,2.436455240E0,9.511982977E0
3.015029750E0,-3.595028104E0,-8.788073934E0,2.645427126E0,9.856609723E0
3.025015750E0,-3.095225067E0,-9.126939962E0,2.683311821E0,1.000407985E1
3.035000750E0,-2.286777045E0,-9.501606737E0,2.762293087E0,1.015579356E1
3.044986750E0,-1.679782850E0,-9.978659427E0,2.772652599E0,1.049204064E1
3.054971750E0,-1.098324251E0,-1.026910466E1,2.539186141E0,1.063523827E1
3.064957750E0,-5.000310054E-1,-1.048555923E1,2.305316226E0,1.074762608E1
3.074942750E0,1.328975091E-1,-1.058278205E1,2.401653782E0,1.085268993E1
3.084928750E0,8.206106700E-1,-1.043999071E1,2.921344954E0,1.087203128E1
3.094913750E0,1.103615396E0,-1.025541516E1,3.737153744E0,1.097077140E1
3.104899750E0,9.907643531E-1,-1.008542608E1,4.322535460E0,1.101733842E1
3.114884750E0,1.090281625E0,-9.859322433E0,4.518243814E0,1.089997615E1
3.124870750E0,9.649100120E-1,-9.714289266E0,4.471111456E0,1.073728573E1
3.134855750E0,1.121862875E0,-9.480470222E0,4.331123558E0,1.048315426E1
3.144841750E0,2.108105138E0,-9.074237838E0,4.027333808E0,1.014915352E1
3.154826750E0,3.237627573E0,-8.561969122E0,3.439547132E0,9.778549586E0
3.164812750E0,4.370352820E0,-7.778063325E0,3.050752315E0,9.428962962E0
3.174798750E0,5.464980826E0,-6.670013620E0,3.334167734E0,9.245094461E0
3.184783750E0,6.059501156E0,-5.652528514E0,4.153328441E0,9.269237833E0
3.194769750E0,6.204191676E0,-4.915180587E0,4.813526743E0,9.263964285E0
3.204754750E0,6.289802515E0,-4.261035030E0,4.821238636E0,8.997909601E0
3.214740750E0,6.591511241E0,-3.664014432E0,4.316548788E0,8.689396736E0
3.224725750E0,7.103623837E0,-3.113430081E0,3.678149199E0,8.583921016E0
3.234711750E0,7.791564546E0,-2.479540449E0,3.062689405E0,8.731361022E0
3.244696750E0,9.230260847E0,-1.475064229E0,2.596789986E0,9.701383820E0
3.254682750E0,1.109137521E1,-4.803920352E-1,2.421628163E0,1.136281935E1
3.264667750E0,1.366463892E1,4.069814122E-1,2.122269433E0,1.383445042E1
3.274653750E0,1.612845796E1,1.352561553E0,1.802963511E0,1.628518518E1
3.284638750E0,1.782838857E1,2.177159293E0,1.877088664E0,1.805865231E1
3.294624750E0,1.877822314E1,2.809010001E0,2.238710593E0,1.911868266E1
3.304609750E0,1.958668958E1,3.024294541E0,2.552974461E0,1.998255351E1
3.314595750E0,2.018175370E1,3.055880030E0,2.684586514E0,2.058758339E1
3.324580750E0,2.032642785E1,3.159431296E0,2.514766999E0,2.072365142E1
3.334566750E0,1.972233095E1,2.913182241E0,2.384599208E0,2.007842828E1
3.344551750E0,1.839545388E1,2.310219117E0,2.363405683E0,1.868998454E1
3.354537750E0,1.695330947E1,1.803309959E0,2.303602115E0,1.720387200E1
3.364522750E0,1.552139887E1,1.257880513E0,2.489645022E0,1.577004814E1
3.374508750E0,1.420826743E1,4.705318755E-1,2.756989077E0,1.448092719E1
3.384493750E0,1.269970450E1,-4.463764429E-1,3.004138019E0,1.305781726E1
3.394479750E0,1.115426435E1,-1.231468055E0,3.576568737E0,1.177819896E1
3.404464750E0,1.003990316E1,-2.005523048E0,4.195836237E0,1.106466538E1
3.414450750E0,9.086949685E0,-3.073173755E0,4.633248021E0,1.065288875E1
3.424436750E0,7.882616803E0,-4.399945579E0,4.941736887E0,1.029154664E1
3.434421750E0,6.776808336E0,-5.099303561E0,4.655369792E0,9.674734928E0
3.444407750E0,6.166527421E0,-5.851182404E0,4.433160979E0,9.587247375E0
3.454392000E0,5.412513760E0,-7.053467005E0,4.503186065E0,9.966212256E0
3.464378000E0,4.297600301E0,-7.978297716E0,4.431476104E0,1.008764508E1
3.474363000E0,3.332119455E0,-8.600907485E0,4.173527355E0,1.012407824E1
3.484349000E0,2.554462577E0,-9.456504824E0,3.858282909E0,1.052792048E1
3.494334000E0,1.698167958E0,-1.045871934E1,3.465940294E0,1.114815351E1
3.504320000E0,6.062019332E-1,-1.093317528E1,2.970901861E0,1.134583890E1
3.514305000E0,3.588008211E-2,-1.088399084E1,2.439346250E0,1.115405550E1
3.524291000E0,9.687012736E-2,-1.098390806E1,2.109386701E0,1.118504057E1
3.534276000E0,2.405345714E-1,-1.107162799E1,1.865845930E0,1.123032432E1
3.544262000E0,3.740731363E-1,-1.083384512E1,1.304500802E0,1.091850966E1
3.554247000E0,7.110250778E-1,-1.063254303E1,8.851501898E-1,1.069298923E1
3.564233000E0,1.244712291E0,-1.056106666E1,9.228092553E-1,1.067412829E1
3.574218000E0,1.562690895E0,-1.010405648E1,1.357380828E0,1.031389562E1
3.584204000E0,1.559146605E0,-9.525356373E0,1.878899254E0,9.833291136E0
3.594189000E0,1.521725010E0,-9.091124012E0,2.105013569E0,9.454906923E0
3.604175000E0,1.231532667E0,-8.782979840E0,1.930460587E0,9.076567945E0
3.614160000E0,3.794036043E-1,-8.708424917E0,1.740248761E0,8.888705045E0
3.624146000E0,-8.531730831E-1,-8.466651905E0,1.830415896E0,8.704166884E0
3.634131000E0,-2.356111574E0,-7.998473534E0,1.947049722E0,8.562583911E0
3.644117000E0,-3.951996235E0,-7.668640285E0,1.887080240E0,8.831046931E0
3.654102000E0,-5.889957629E0,-7.224887488E0,1.830082166E0,9.499463186E0
3.664088000E0,-7.903434060E0,-6.427647700E0,1.693743516E0,1.032703694E1
3.674074000E0,-9.155061561E0,-5.502142805E0,1.388461118E0,1.077109799E1
3.684059000E0,-1.007161261E1,-4.898543504E0,1.005908057E0,1.124477479E1
3.694045000E0,-1.110804445E1,-4.271182873E0,6.301556003E-1,1.191758158E1
3.704030000E0,-1.213582124E1,-3.528066083E0,2.731501941E-1,1.264120321E1
3.714016000E0,-1.333569562E1,-2.879151446E0,-2.030774541E-1,1.364446889E1
3.724001000E0,-1.445707932E1,-2.287021458E0,-7.367333847E-1,1.465538760E1
3.733987000E0,-1.524890809E1,-1.808518658E0,-1.447271390E0,1.542383001E1
3.743972000E0,-1.548911288E1,-1.298173091E0,-2.328485380E0,1.571686086E1
3.753958000E0,-1.502404874E1,-7.457018441E-1,-2.799945647E0,1.530090871E1
3.763943000E0,-1.429054126E1,-5.140667349E-1,-2.537227324E0,1.452313178E1
3.773929000E0,-1.357652957E1,-5.274217755E-1,-1.901997510E0,1.371925375E1
3.783914000E0,-1.294441164E1,-5.889742452E-1,-1.341856324E0,1.302709722E1
3.793900000E0,-1.220541013E1,-6.899924970E-1,-7.751449138E-1,1.224944797E1
3.803885000E0,-1.177744890E1,-9.737567031E-1,5.660937980E-2,1.181777092E1
3.813871000E0,-1.165122740E1,-1.422385494E0,8.659808242E-1,1.176963054E1
3.823856000E0,-1.130287017E1,-1.685267538E0,1.198058673E0,1.149044583E1
3.833842000E0,-1.084542027E1,-2.155978923E0,1.115983646E0,1.111381147E1
3.843827000E0,-1.025109524E1,-2.779501442E0,6.417262168E-1,1.064060122E1
3.853813000E0,-9.401493049E0,-3.293883927E0,1.268307853E-1,9.962621589E0
3.863798000E0,-8.788794311E0,-3.905692719E0,-1.141793109E-2,9.617560576E0
3.873784000E0,-8.157348230E0,-4.632889295E0,3.876060784E-2,9.381231036E0
3.883769000E0,-7.425194385E0,-5.219620548E0,2.437641348E-1,9.079502810E0
3.893755000E0,-6.766348836E0,-5.660845009E0,6.335569257E-1,8.844774569E0
3.903740000E0,-6.071285634E0,-6.207324615E0,1.150901610E0,8.758764904E0
3.913726000E0,-5.508082992E0,-6.780760469E0,1.550313801E0,8.872494782E0
3.923712000E0,-5.175441910E0,-7.165010830E0,1.668443345E0,8.994791957E0
3.933697000E0,-4.882125400E0,-7.637139580E0,1.639242935E0,9.211306465E0
3.943683000E0,-4.472605712E0,-8.288219442E0,1.660660701E0,9.563293226E0
3.953668000E0,-4.005724837E0,-8.901968924E0,1.866710733E0,9.938585974E0
3.963654000E0,-3.453523147E0,-9.337346170E0,2.089501344E0,1.017245651E1
3.973639000E0,-2.539585506E0,-9.499621022E0,2.337708047E0,1.010728317E1
3.983625000E0,-1.651260717E0,-9.598319684E0,2.647773029E0,1.009282442E1
3.993610000E0,-1.204631163E0,-9.814340973E0,2.845824071E0,1.028937022E1
4.003596000E0,-1.260274802E0,-1.002065881E1,3.010858224E0,1.053884067E1
4.013581000E0,-1.213850687E0,-1.026446548E1,3.245039211E0,1.083341888E1
4.023567000E0,-1.229041022E0,-1.045757913E1,3.531250477E0,1.110590983E1
4.033552000E0,-1.029374688E0,-1.063864986E1,3.924789725E0,1.138615201E1
4.043538000E0,-3.629260775E-1,-1.068720631E1,4.186926250E0,1.148383409E1
4.053523000E0,-5.892458484E-2,-1.052750949E1,4.131792853E0,1.130944917E1
4.063509000E0,7.407106608E-2,-1.040769069E1,4.015661011E0,1.115576288E1
4.073494000E0,6.617859672E-1,-1.026877722E1,4.055798638E0,1.106052661E1
4.083480000E0,1.750095911E0,-9.960371675E0,4.087370387E0,1.090772370E1
4.093465000E0,3.061353317E0,-9.097341941E0,4.188385130E0,1.047263503E1
4.103451000E0,4.457897918E0,-8.033347498E0,4.832588081E0,1.038082046E1
4.113436000E0,6.082653791E0,-6.754685980E0,5.507526337E0,1.062813747E1
4.123422000E0,7.825236906E0,-5.178336282E0,5.847723776E0,1.105646294E1
4.133407000E0,9.200212591E0,-4.005812838E0,5.846760739E0,1.161357220E1
4.143393000E0,1.051084259E1,-3.038406211E0,5.377115886E0,1.219110739E1
4.153378000E0,1.229491462E1,-1.765941573E0,4.802196593E0,1.331707803E1
4.163364000E0,1.366715557E1,-5.095561928E-1,4.579397504E0,1.442295636E1
4.173350000E0,1.428398068E1,4.438720804E-1,4.707544205E0,1.504626529E1
4.183335000E0,1.453655584E1,1.247732670E0,4.878779331E0,1.538410804E1
4.193321000E0,1.451013111E1,1.951884200E0,4.929534332E0,1.544843246E1
4.203306000E0,1.457081585E1,2.331737455E0,4.517474028E0,1.543221454E1
4.213292000E0,1.467725973E1,2.485313990E0,3.665363969E0,1.533080663E1
4.223277000E0,1.452445094E1,2.521155667E0,2.957241595E0,1.503533102E1
4.233263000E0,1.413769621E1,2.419962584E0,2.682275695E0,1.459195929E1
4.243248000E0,1.392752506E1,2.334347652E0,2.499954248E0,1.434137039E1
4.253234000E0,1.426640746E1,2.277397526E0,2.124960029E0,1.460247844E1
4.263219000E0,1.474066928E1,2.066592538E0,1.630970294E0,1.497391731E1
4.273205000E0,1.469362726E1,1.738252083E0,1.069033282E0,1.483465653E1
4.283190000E0,1.424018855E1,1.471133146E0,6.655391487E-1,1.433143904E1
4.293176000E0,1.363378200E1,9.902171999E-1,6.511842343E-1,1.368519575E1
4.303161000E0,1.256163420E1,2.768995750E-1,7.939267552E-1,1.258974371E1
4.313147000E0,1.146172382E1,-3.272236365E-1,1.065187568E0,1.151576366E1
4.323132000E0,1.057812533E1,-1.023378514E0,1.239748297E0,1.069958013E1
4.333118000E0,9.479684941E0,-1.715686508E0,1.351644124E0,9.728049579E0
4.343103000E0,8.560858735E0,-2.398081718E0,1.718582634E0,9.054977884E0
4.353089000E0,7.933440217E0,-2.946259355E0,2.139179581E0,8.729032428E0
4.363074000E0,7.335650125E0,-3.541458546E0,2.507467920E0,8.522974056E0
4.373060000E0,6.746239092E0,-4.274473101E0,2.878536026E0,8.489336360E0
4.383045000E0,6.321139498E0,-4.889362206E0,3.207020030E0,8.610902671E0
4.393031000E0,5.975245117E0,-5.577077798E0,3.465322536E0,8.877826944E0
4.403016000E0,5.369095261E0,-6.307043030E0,3.599365861E0,9.031135604E0
4.413002000E0,4.521003993E0,-6.932780474E0,3.713813413E0,9.071677479E0
4.422987000E0,3.774739939E0,-7.408133379E0,3.801374883E0,9.142185339E0
4.432973000E0,3.232098738E0,-7.830301765E0,3.903076674E0,9.327062533E0
4.442959000E0,2.906944431E0,-8.142352461E0,4.076767338E0,9.558674671E0
4.452944000E0,2.753661719E0,-8.398127800E0,4.357357091E0,9.853819779E0
4.462930625E0,2.550033896E0,-8.617759160E0,4.506611071E0,1.005375498E1
4.472915625E0,2.326676251E0,-8.778986776E0,4.530376495E0,1.014930256E1
4.482901625E0,2.145117574E0,-9.073752519E0,4.392555283E0,1.030674809E1
4.492886625E0,1.804857717E0,-9.426132631E0,3.994956897E0,1.039563218E1
4.502872625E0,1.466198096E0,-9.683817086E0,3.304546909E0,1.033663777E1
4.512857625E0,1.347211789E0,-9.975867966E0,2.758870711E0,1.043763809E1
4.522843625E0,1.446433337E0,-1.044014274E1,2.413991261E0,1.081277502E1
4.532828625E0,7.604110998E-1,-1.042121764E1,2.196894669E0,1.067737553E1
4.542814625E0,-3.295841575E-2,-9.830433680E0,2.461257375E0,1.013391832E1
4.552799625E0,-1.276426712E-1,-9.504920354E0,2.967792896E0,9.958292939E0
4.562785625E0,-7.706103981E-2,-9.301131440E0,3.056653617E0,9.790817933E0
4.572770625E0,-3.150763384E-1,-8.974817045E0,2.733044145E0,9.387019995E0
4.582756625E0,-1.112715783E0,-8.736590955E0,2.181918926E0,9.073418767E0
4.592741625E0,-2.757535207E0,-8.770643969E0,1.538383727E0,9.321739137E0
4.602727625E0,-5.336733845E0,-8.691993656E0,6.186137082E-1,1.021832495E1
4.612712625E0,-8.403766270E0,-7.947082940E0,-3.997128115E-1,1.157320980E1
4.622698625E0,-1.098084880E1,-6.963122261E0,-9.681503928E-1,1.303845954E1
4.632683625E0,-1.264665271E1,-6.037013349E0,-1.306552151E0,1.407446033E1
4.642669625E0,-1.298918494E1,-5.091378829E0,-1.760351635E0,1.406200205E1
4.652654625E0,-1.301949691E1,-4.059137691E0,-2.071819364E0,1.379406880E1
4.662640625E0,-1.367915639E1,-3.320585237E0,-2.041826656E0,1.422373587E1
4.672626625E0,-1.413623441E1,-2.922727236E0,-1.996381950E0,1.457261125E1
4.682611625E0,-1.414190972E1,-2.156484708E0,-2.083717278E0,1.445634513E1
4.692597625E0,-1.399246658E1,-1.568510921E0,-1.951154467E0,1.421465269E1
4.702582625E0,-1.400407681E1,-1.570727600E0,-1.701720580E0,1.419426664E1
4.712568625E0,-1.399943412E1,-1.591194025E0,-1.618721693E0,1.418225349E1
4.722553625E0,-1.411248068E1,-1.670966418E0,-1.751754035E0,1.431862011E1
4.732539625E0,-1.425768809E1,-2.014102083E0,-1.871204903E0,1.452031972E1
4.742524625E0,-1.449724267E1,-2.466822170E0,-1.839813103E0,1.482026211E1
4.752510625E0,-1.445721263E1,-2.838536101E0,-1.733845037E0,1.483490826E1
4.762495625E0,-1.406732965E1,-3.283460096E0,-1.557024651E0,1.452911558E1
4.772481625E0,-1.330653088E1,-3.590063526E0,-9.848927984E-1,1.381746482E1
4.782466625E0,-1.218818306E1,-3.918817379E0,-1.574199092E-1,1.280366029E1
4.792452625E0,-1.096651026E1,-4.233011665E0,4.268565367E-1,1.176286281E1
4.802437625E0,-9.324638416E0,-4.475613227E0,7.320906955E-1,1.036898993E1
4.812423625E0,-7.690165640E0,-4.602038800E0,6.714239328E-1,8.987114041E0
4.822408625E0,-6.305981176E0,-4.750758052E0,6.422358748E-1,7.921336225E0
4.832394625E0,-5.110749485E0,-4.994847731E0,7.861275928E-1,7.189315736E0
4.842379625E0,-4.161445253E0,-5.211153195E0,7.905663604E-1,6.715559499E0
4.852365625E0,-3.582627037E0,-5.290587035E0,1.029969349E0,6.471967593E0
4.862350625E0,-3.430795897E0,-5.626010807E0,1.593010170E0,6.779383415E0
4.872336625E0,-3.462978972E0,-6.088632569E0,2.007679940E0,7.286593762E0
4.882321625E0,-3.437345655E0,-6.577624689E0,2.153714151E0,7.727805403E0
4.892307625E0,-3.316617317E0,-7.140298743E0,1.965084874E0,8.114516321E0
4.902292625E0,-3.186815853E0,-7.688860542E0,1.667219961E0,8.488462411E0
4.912278625E0,-2.847264532E0,-8.248365989E0,1.621017748E0,8.875255227E0
4.922263625E0,-2.426961701E0,-8.634451207E0,1.532833550E0,9.099091682E0
4.932249625E0,-1.929594760E0,-8.829334812E0,1.366433487E0,9.140439247E0
4.942235625E0,-1.453702888E0,-9.041465948E0,1.650954323E0,9.305214063E0
4.952220625E0,-1.038217870E0,-9.274073449E0,2.066702465E0,9.558116644E0
4.962206625E0,-7.057591485E-1,-9.369105906E0,2.290673775E0,9.670854554E0
4.972191625E0,-2.746420747E-1,-9.445913762E0,2.376170301E0,9.744070010E0
4.982177625E0,1.209856253E-1,-9.674093167E0,2.557700180E0,1.000722471E1
4.992162625E0,-1.564729527E-2,-9.960820742E0,2.854624130E0,1.036180841E1
5.002148625E0,-6.333386783E-1,-1.004063991E1,2.957455896E0,1.048628214E1
5.012133625E0,-9.660859602E-1,-9.983497413E0,2.935834354E0,1.045096484E1
5.022119625E0,-5.978883255E-1,-9.916569014E0,2.693736822E0,1.029330022E1
5.032104625E0,2.714319898E-1,-9.722209904E0,2.269828305E0,9.987350063E0
5.042090625E0,1.169462572E0,-9.447510052E0,2.108403053E0,9.750305242E0
5.052075625E0,1.726912285E0,-9.002497764E0,2.306426028E0,9.452343258E0
5.062061625E0,2.418470082E0,-8.465745002E0,2.660420849E0,9.197590721E0
5.072046625E0,3.826143396E0,-7.616053351E0,3.283729652E0,9.133812039E0
5.082032625E0,5.494198194E0,-6.572665080E0,4.271640126E0,9.572515313E0
5.092017625E0,7.138580831E0,-5.481146623E0,5.304424471E0,1.044697198E1
5.102003625E0,9.256490872E0,-4.311908146E0,5.891850373E0,1.178936283E1
5.111988625E0,1.182246311E1,-2.930419832E0,5.758637352E0,1.347293207E1
5.121974625E0,1.435855023E1,-1.406611460E0,5.043219407E0,1.528334330E1
5.131959625E0,1.619399940E1,-1.996555173E-1,4.122084137E0,1.671158451E1
5.141945625E0,1.743288407E1,8.937229389E-1,3.640353089E0,1.783133080E1
5.151930625E0,1.811884666E1,2.096993381E0,3.625473095E0,1.859661369E1
5.161916625E0,1.798974131E1,2.620373561E0,3.701177580E0,1.855251642E1
5.171901625E0,1.739261897E1,2.329585095E0,3.450870557E0,1.788403391E1
5.181887625E0,1.683071324E1,2.402611556E0,2.610247061E0,1.720054767E1
5.191873625E0,1.659663166E1,2.381154613E0,1.705373482E0,1.685308216E1
5.201858625E0,1.650554607E1,2.106349511E0,8.697446769E-1,1.666211917E1
5.211844625E0,1.656396326E1,2.083692720E0,3.819220001E-1,1.669887777E1
5.221829625E0,1.652011733E1,2.011552112E0,4.835705817E-1,1.664915791E1
5.231815625E0,1.613005659E1,1.754459395E0,8.644254649E-1,1.624820251E1
5.241800625E0,1.520927216E1,1.267218516E0,1.176962357E0,1.530728724E1
5.251786625E0,1.386855005E1,5.805068922E-1,1.380634035E0,1.394918704E1
5.261771625E0,1.241784415E1,-1.843644637E-1,1.698409740E0,1.253480910E1
5.271757625E0,1.096976716E1,-9.953282511E-1,1.813057852E0,1.116304836E1
5.281742625E0,9.564766021E0,-1.716489331E0,1.815358731E0,9.885677113E0
5.291728625E0,8.206809828E0,-2.428220606E0,2.064297506E0,8.803937020E0
5.301713625E0,7.200822687E0,-2.854192606E0,2.285733901E0,8.076066014E0
5.311699625E0,6.491786394E0,-3.262371528E0,2.479772876E0,7.676954610E0
5.321684625E0,6.045418721E0,-3.735914719E0,2.790066776E0,7.634698352E0
5.331670625E0,5.849795444E0,-4.177147951E0,3.274840715E0,7.898940021E0
5.341655625E0,5.796549529E0,-4.633583944E0,3.946923190E0,8.405253671E0
5.351641625E0,5.469710639E0,-5.220574229E0,4.645329831E0,8.874188357E0
5.361626625E0,4.815059006E0,-5.917474626E0,5.039547940E0,9.143212927E0
5.371612625E0,3.940611998E0,-6.618806044E0,5.030011716E0,9.199893164E0
5.381597625E0,2.811535706E0,-7.350768685E0,4.847531810E0,9.243219025E0
5.391583625E0,1.687242436E0,-7.991795429E0,4.505756793E0,9.328313111E0
5.401568625E0,7.533907865E-1,-8.117671364E0,3.871349682E0,9.025050383E0
5.411554625E0,5.141658452E-1,-7.992537441E0,3.252719529E0,8.644374216E0
5.421539625E0,6.421799608E-1,-7.899479004E0,3.249167345E0,8.565702077E0
5.431525625E0,6.723268159E-1,-7.979407518E0,3.762032477E0,8.847364356E0
5.441511625E0,7.755235210E-1,-7.943226117E0,4.120765589E0,8.982036903E0
5.451496625E0,9.255965500E-1,-8.059683357E0,4.339063200E0,9.200146425E0
5.461482417E0,1.123970065E0,-8.234991653E0,4.424383432E0,9.415602210E0
5.471467417E0,1.158937292E0,-8.222496738E0,4.516233834E0,9.452457685E0
5.481453417E0,9.525871512E-1,-8.181981381E0,4.758765814E0,9.513048600E0
5.491438417E0,7.404910979E-1,-8.123420346E0,4.795211509E0,9.462152959E0
5.501424417E0,3.802733776E-1,-8.094008852E0,4.536646464E0,9.286482018E0
5.511409417E0,-1.114496845E-1,-8.076494687E0,4.273640458E0,9.138172149E0
5.521395417E0,-7.639207448E-1,-8.062406990E0,4.015671244E0,9.039446715E0
5.531380417E0,-1.826922477E0,-7.821256707E0,3.684262755E0,8.836486534E0
5.541366417E0,-2.918187457E0,-7.418495230E0,3.293740085E0,8.625463075E0
5.551351417E0,-4.142802576E0,-7.041372625E0,2.935520943E0,8.681072793E0
5.561337417E0,-5.014172194E0,-6.623982584E0,2.558257420E0,8.692741172E0
5.571322417E0,-5.512537401E0,-6.023275900E0,2.153658164E0,8.444297760E0
5.581308417E0,-5.984137563E0,-5.461085411E0,1.853084967E0,8.310672664E0
5.591293417E0,-6.572116027E0,-4.876278477E0,1.637631442E0,8.345815574E0
5.601279417E0,-7.221896052E0,-4.243950636E0,1.455691819E0,8.502113753E0
5.611264417E0,-8.218427076E0,-3.605235296E0,1.435341169E0,9.088480039E0
5.621250417E0,-9.507281460E0,-2.891149347E0,1.402267563E0,1.003561157E1
5.631235417E0,-1.085028398E1,-2.083325515E0,1.386407576E0,1.113512612E1
5.641221417E0,-1.209526145E1,-1.352922326E0,1.514728231E0,1.226458927E1
5.651206417E0,-1.307159560E1,-7.381080651E-1,1.777320547E0,1.321250481E1
5.661192417E0,-1.388745292E1,-2.826269227E-1,1.741254628E0,1.399904262E1
5.671177417E0,-1.440272945E1,9.574230909E-3,1.310870028E0,1.446226426E1
5.681163417E0,-1.463668824E1,8.208789110E-2,7.555266282E-1,1.465640480E1
5.691148417E0,-1.476752905E1,6.909537792E-2,2.410847944E-1,1.476965843E1
5.701134417E0,-1.476573863E1,9.780637622E-3,-5.416275859E-2,1.476584121E1
5.711119417E0,-1.484405273E1,-1.770759094E-1,9.269795626E-2,1.484539828E1
5.721105417E0,-1.462623459E1,-4.421582615E-1,4.822570047E-1,1.464086111E1
5.731091417E0,-1.392001022E1,-6.342755485E-1,7.731812726E-1,1.395588762E1
5.741076417E0,-1.321867296E1,-8.706451482E-1,1.081087463E0,1.329135387E1
5.751062417E0,-1.263809473E1,-1.224439117E0,1.399180087E0,1.277412989E1
5.761047417E0,-1.174325439E1,-1.605094610E0,1.580887430E0,1.195740596E1
5.771033417E0,-1.063520351E1,-1.952375951E0,1.677486649E0,1.094227065E1
5.781018417E0,-9.646835786E0,-2.371949927E0,1.917073825E0,1.011744825E1
5.791004417E0,-8.840780736E0,-2.822677283E0,2.217663102E0,9.541747256E0
5.800989417E0,-8.309700358E0,-3.318257461E0,2.428042413E0,9.271318276E0
5.810975417E0,-7.918665472E0,-3.941676484E0,2.570431908E0,9.211362362E0
5.820960417E0,-7.561577182E0,-4.514879619E0,2.638152021E0,9.193553912E0
5.830946417E0,-7.131246668E0,-5.117485478E0,2.667328457E0,9.173765735E0
5.840931417E0,-6.682744178E0,-5.788887337E0,2.687281496E0,9.240766645E0
5.850917417E0,-6.313957947E0,-6.408242546E0,2.704205092E0,9.393847064E0
5.860902417E0,-6.083358965E0,-6.983133187E0,2.736736076E0,9.657180218E0
5.870888417E0,-5.753471337E0,-7.647294440E0,2.758790020E0,9.959641914E0
5.880873417E0,-5.262153779E0,-8.370480410E0,2.664903617E0,1.023996660E1
5.890859417E0,-4.713105492E0,-8.975113499E0,2.607278722E0,1.046727892E1
5.900844417E0,-4.203888145E0,-9.557488577E0,2.694273596E0,1.078319867E1
5.910830417E0,-3.715544189E0,-1.017635847E1,2.842487065E0,1.120014611E1
5.920815417E0,-3.375660161E0,-1.077289608E1,3.008514660E0,1.168338701E1
5.930801417E0,-3.164445283E0,-1.132398914E1,3.219182823E0,1.219055299E1
5.940786417E0,-2.886634712E0,-1.176629826E1,3.539326066E0,1.262161890E1
5.950772417E0,-2.421477013E0,-1.210522861E1,3.888029450E0,1.294283136E1
5.960757417E0,-2.122098840E0,-1.238434311E1,4.149486528E0,1.323228991E1
5.970743417E0,-2.073735935E0,-1.266479545E1,4.311124619E0,1.353821333E1
5.980729417E0,-2.342550419E0,-1.292448901E1,4.511547875E0,1.388826926E1
5.990714417E0,-2.603086853E0,-1.325121739E1,4.978723449E0,1.439300214E1
6.000700417E0,-3.033444849E0,-1.336003407E1,5.519326018E0,1.477007982E1
6.010685417E0,-3.592868728E0,-1.330640341E1,5.824128506E0,1.496293923E1
6.020671417E0,-3.822412873E0,-1.339827135E1,5.908079905E0,1.513373462E1
6.030656417E0,-3.164460486E0,-1.349934515E1,5.934887050E0,1.508207592E1
6.040642417E0,-1.738804060E0,-1.344489237E1,5.716884724E0,1.471296508E1
6.050627417E0,6.922039139E-1,-1.282001915E1,5.468093299E0,1.395464373E1
6.060613417E0,4.288887073E0,-1.204313235E1,5.296672232E0,1.383785843E1
6.070598417E0,8.990390519E0,-1.077400004E1,5.008277031E0,1.489929654E1
6.080584417E0,1.410609552E1,-8.429581143E0,4.606735868E0,1.706639342E1
6.090569417E0,1.807976388E1,-5.869483604E0,4.014212948E0,1.942788216E1
6.100555417E0,2.008820761E1,-4.272081590E0,3.780403259E0,2.088248584E1
6.110540417E0,2.113542990E1,-3.338805161E0,3.682670558E0,2.171211826E1
6.120526417E0,2.200944129E1,-2.210790723E0,3.074962419E0,2.233290163E1
6.130511417E0,2.213674921E1,-1.260794473E0,2.391017697E0,2.230117113E1
6.140497417E0,2.137916056E1,-9.536750257E-1,1.910254656E0,2.148550849E1
6.150482417E0,2.086978855E1,-7.342413014E-1,1.252745488E0,2.092024273E1
6.160468417E0,2.095873406E1,-1.951546231E-1,7.057554209E-1,2.097152139E1
6.170453417E0,2.120271966E1,2.835639390E-1,7.467403096E-1,2.121776026E1
6.180439417E0,2.182723503E1,5.258096981E-1,1.047037810E0,2.185865854E1
6.190424417E0,2.265946456E1,5.718000957E-1,1.092791103E0,2.269300513E1
6.200410417E0,2.285912592E1,5.546402720E-1,1.074542820E0,2.289108792E1
6.210395417E0,2.221384825E1,8.053077757E-2,1.344565485E0,2.225464886E1
6.220381417E0,2.046694814E1,-1.106124802E0,1.895862027E0,2.058430885E1
6.230366417E0,1.767073945E1,-2.198416260E0,2.256243469E0,1.794933707E1
6.240352417E0,1.501345007E1,-3.122529518E0,2.464896682E0,1.553156751E1
6.250337417E0,1.259197189E1,-4.010201173E0,2.453129745E0,1.344088223E1
6.260323417E0,1.056316815E1,-4.610954635E0,2.253243847E0,1.174387210E1
6.270309417E0,9.202717538E0,-5.132826233E0,2.188887053E0,1.076230188E1
6.280294417E0,8.099229831E0,-5.582152011E0,2.300639916E0,1.010202400E1
6.290280417E0,7.682632672E0,-6.008537409E0,2.514474639E0,1.007213727E1
6.300265417E0,7.875366256E0,-6.467166107E0,2.910480827E0,1.059794932E1
6.310251417E0,8.270909929E0,-7.003839347E0,3.427702720E0,1.136709561E1
6.320236417E0,8.269594306E0,-8.313574138E0,4.237883565E0,1.246841458E1
6.330222417E0,7.198598991E0,-9.659506118E0,4.971491028E0,1.303232937E1
6.340207417E0,6.158912008E0,-1.032108875E1,5.502423472E0,1.321868882E1
6.350193417E0,5.359596459E0,-1.107309214E1,5.736743038E0,1.357383013E1
6.360178417E0,4.403062437E0,-1.198803988E1,5.711407052E0,1.399000463E1
6.370164417E0,3.287725347E0,-1.244823213E1,5.699939493E0,1.408037398E1
6.380149417E0,2.493306549E0,-1.238278658E1,6.164625907E0,1.405534040E1
6.390135417E0,1.987059149E0,-1.242389134E1,6.672557743E0,1.424164692E1
6.400120417E0,1.616621958E0,-1.258822149E1,6.789073455E0,1.439334239E1
6.410106417E0,1.571233531E0,-1.284758409E1,6.624394228E0,1.454000656E1
6.420091417E0,1.581634266E0,-1.279500008E1,6.338967074E0,1.436649218E1
6.430077417E0,1.311431653E0,-1.277079495E1,6.562355855E0,1.441796001E1
6.440062417E0,8.394835818E-1,-1.282566873E1,7.178441885E0,1.472183884E1
6.450048417E0,3.065499285E-1,-1.280573674E1,7.817999223E0,1.500673109E1
6.460033000E0,-7.767192766E-2,-1.262417602E1,8.203078719E0,1.505544265E1
6.470019000E0,-3.427591038E-1,-1.209549417E1,8.080342739E0,1.455027153E1
6.480004000E0,-1.258457049E0,-1.170193211E1,7.676510637E0,1.405161005E1
6.489990000E0,-3.012481411E0,-1.114262839E1,6.691879283E0,1.334220597E1
6.499975000E0,-5.023278648E0,-1.055958498E1,5.435784509E0,1.289518967E1
6.509961000E0,-7.141361766E0,-1.000686406E1,4.421955668E0,1.306484091E1
6.519946000E0,-9.704619141E0,-9.270020159E0,4.040855786E0,1.401575620E1
6.529932000E0,-1.213398522E1,-8.448654175E0,4.039307443E0,1.532740550E1
6.539918000E0,-1.330016209E1,-7.598013521E0,3.782065038E0,1.577745661E1
6.549903000E0,-1.358329246E1,-6.571199183E0,3.197081518E0,1.542426086E1
6.559889000E0,-1.332402458E1,-5.524373919E0,2.832961950E0,1.469945617E1
6.569874000E0,-1.317329739E1,-4.553714486E0,2.871120880E0,1.423079109E1
6.579860000E0,-1.385143408E1,-3.759899998E0,2.883164974E0,1.463938913E1
6.589845000E0,-1.504402166E1,-3.113620700E0,2.427733533E0,1.555349194E1
6.599831000E0,-1.643623084E1,-2.790006550E0,1.565899554E0,1.674472640E1
6.609816000E0,-1.750883823E1,-2.729753332E0,3.778307033E-1,1.772438223E1
6.619802000E0,-1.808772544E1,-2.688707047E0,-9.314491743E-1,1.831017627E1
6.629787000E0,-1.815323999E1,-2.658005657E0,-2.045119223E0,1.846043414E1
6.639773000E0,-1.803907193E1,-2.696552841E0,-2.817854499E0,1.845588842E1
6.649758000E0,-1.771246284E1,-2.773406305E0,-3.106589423E0,1.819543954E1
6.659744000E0,-1.678960615E1,-2.978982128E0,-2.821330669E0,1.728366616E1
6.669729000E0,-1.550442323E1,-3.135753581E0,-2.240022123E0,1.597616316E1
6.679715000E0,-1.406543632E1,-3.170584860E0,-1.631738618E0,1.451039897E1
6.689700000E0,-1.227224848E1,-3.246123285E0,-7.145554805E-1,1.271440084E1
6.699686000E0,-1.039959697E1,-3.506781633E0,5.521174542E-1,1.098881105E1
6.709671000E0,-8.846369505E0,-3.755037453E0,1.606510806E0,9.743687016E0
6.719657000E0,-7.701663605E0,-3.838352675E0,2.433590689E0,8.942647102E0
6.729642000E0,-6.853972287E0,-4.024049134E0,3.054179075E0,8.514570886E0
6.739628000E0,-6.415305398E0,-4.375280854E0,3.273335057E0,8.426977411E0
6.749613000E0,-6.387106615E0,-4.908077974E0,3.207194862E0,8.670089919E0
6.759599000E0,-6.184735651E0,-5.395507134E0,2.880740719E0,8.698340037E0
6.769584000E0,-5.731163040E0,-5.874425086E0,2.485670085E0,8.575176712E0
6.779570000E0,-5.606020346E0,-6.610445695E0,2.233987212E0,8.950762832E0
6.789555000E0,-5.495319690E0,-7.310720521E0,2.310349510E0,9.433074148E0
6.799541000E0,-5.146844348E0,-7.895078389E0,2.830461681E0,9.840415786E0
6.809526000E0,-4.942936735E0,-8.480098162E0,3.466274462E0,1.040959879E1
6.819512000E0,-4.856316667E0,-9.173941635E0,3.904162502E0,1.108997302E1
6.829497000E0,-4.950470288E0,-9.967977734E0,4.334601774E0,1.194389002E1
6.839483000E0,-4.988264936E0,-1.055839215E1,4.792239954E0,1.262251938E1
6.849469000E0,-4.674185548E0,-1.109456779E1,5.184181159E0,1.310775264E1
6.859454000E0,-4.196538780E0,-1.164768983E1,5.231685693E0,1.344061574E1
6.869440000E0,-3.468262516E0,-1.230426315E1,5.032254708E0,1.373853428E1
6.879425000E0,-2.652434722E0,-1.296344082E1,4.844335722E0,1.409091184E1
6.889411000E0,-1.930040756E0,-1.318063331E1,4.903732908E0,1.419509592E1
6.899396000E0,-1.192741069E0,-1.295495184E1,5.240079371E0,1.402539982E1
6.909382000E0,-5.188468337E-1,-1.278912948E1,5.753241541E0,1.403320431E1
6.919367000E0,5.315689132E-1,-1.255256750E1,6.100331678E0,1.396651578E1
6.929353000E0,1.785603712E0,-1.210215414E1,6.367741807E0,1.379125271E1
6.939338000E0,2.264331630E0,-1.155725563E1,6.925291361E0,1.366224783E1
6.949324000E0,2.512093652E0,-1.089633548E1,7.602173231E0,1.352160417E1
6.959309000E0,3.397727553E0,-1.013223538E1,7.716248315E0,1.318132142E1
6.969295000E0,5.005831726E0,-9.323977096E0,6.808211392E0,1.258358623E1
6.979280000E0,6.993054743E0,-8.353943900E0,5.418870853E0,1.216779991E1
6.989266000E0,8.729037521E0,-7.156109614E0,4.298571816E0,1.207823334E1
6.999251000E0,1.018722844E1,-6.029179834E0,3.800937511E0,1.243293042E1
7.009237000E0,1.173699436E1,-4.918360303E0,3.806410798E0,1.328292392E1
7.019222000E0,1.312470235E1,-3.826144858E0,4.012540644E0,1.424772539E1
7.029208000E0,1.430338058E1,-2.940043180E0,4.097373219E0,1.516637785E1
7.039193000E0,1.559984511E1,-2.015646333E0,3.922151461E0,1.621114647E1
7.049179000E0,1.685561186E1,-1.164676480E0,3.540832309E0,1.726283916E1
7.059164000E0,1.751769676E1,-7.502252501E-1,2.775284723E0,1.775203490E1
7.069150000E0,1.820899904E1,-5.526279527E-1,1.744111578E0,1.830068219E1
7.079135000E0,1.909997788E1,-3.744018960E-1,7.118394488E-1,1.911690475E1
7.089121000E0,1.985331092E1,2.069914341E-3,-4.148599505E-3,1.985331146E1
7.099106000E0,2.048546276E1,3.332977241E-1,-2.567372060E-1,2.048978248E1
7.109092000E0,2.066830753E1,4.522324294E-1,-3.249911696E-1,2.067580880E1
7.119078000E0,2.035134401E1,5.120009136E-1,-8.490741849E-3,2.035778524E1
7.129063000E0,1.970357776E1,3.049328810E-1,7.711308002E-1,1.972101933E1
7.139049000E0,1.871975566E1,-2.477646536E-1,1.494786887E0,1.878097514E1
7.149034000E0,1.726160041E1,-9.107506156E-1,1.814175839E0,1.738055089E1
7.159020000E0,1.538892201E1,-1.678952546E0,2.153798497E0,1.562935220E1
7.169005000E0,1.334968450E1,-2.784203188E0,2.689199675E0,1.389955606E1
7.178991000E0,1.118506749E1,-3.813848163E0,2.829953850E0,1.215153535E1
7.188976000E0,9.412147261E0,-4.593599514E0,2.617404930E0,1.079539166E1
7.198962000E0,8.198313823E0,-5.292637653E0,2.588587220E0,1.009579847E1
7.208947000E0,7.447580450E0,-5.519430099E0,2.778508293E0,9.677327705E0
7.218933000E0,7.185545667E0,-5.671153650E0,3.072281763E0,9.655721904E0
7.228918000E0,7.202953997E0,-5.905094317E0,3.529862348E0,9.960552865E0
7.238904000E0,6.802454224E0,-6.391829996E0,4.401223488E0,1.031986639E1
7.248889000E0,6.034715978E0,-6.866939072E0,5.382668402E0,1.060875904E1
7.258875000E0,5.249886321E0,-7.607492443E0,6.187371576E0,1.112289597E1
7.268860000E0,4.064031518E0,-8.602362857E0,6.454030337E0,1.149658673E1
7.278846000E0,2.926522956E0,-9.094000842E0,6.290267953E0,1.143821922E1
7.288831000E0,2.061024819E0,-9.504992859E0,6.013536193E0,1.143482969E1
7.298817000E0,1.275577111E0,-1.003491315E1,5.605018718E0,1.156472281E1
7.308802000E0,9.083936030E-1,-1.013561156E1,4.940779113E0,1.131225437E1
7.318788000E0,7.210824350E-1,-1.020409415E1,4.334904075E0,1.111012559E1
7.328773000E0,4.504803112E-1,-1.031268513E1,4.105302043E0,1.110891138E1
7.338759000E0,2.528980704E-1,-1.042157198E1,4.252557737E0,1.125865744E1
7.348744000E0,4.855038173E-2,-1.047209543E1,4.607469109E0,1.144097511E1
7.358730000E0,9.913581379E-2,-1.044913809E1,4.933834959E0,1.155582287E1
7.368715000E0,4.956226433E-1,-1.038552273E1,5.186633481E0,1.161920354E1
7.378701000E0,1.185684064E0,-1.038293592E1,5.363849723E0,1.174657775E1
7.388686000E0,1.925454054E0,-1.053831866E1,5.569781642E0,1.207418738E1
7.398672000E0,2.340300995E0,-1.069616424E1,5.583613231E0,1.229071499E1
7.408658000E0,2.091163123E0,-1.087474756E1,5.624840194E0,1.242062498E1
7.418643000E0,7.186438537E-1,-1.115026369E1,6.098364674E0,1.272929224E1
7.428629000E0,-1.853112448E0,-1.123609380E1,6.609513064E0,1.316698494E1
7.438614000E0,-4.722994303E0,-1.102999582E1,6.642600119E0,1.371464980E1
7.448600000E0,-6.661038144E0,-1.062503988E1,5.251423554E0,1.359552687E1
7.458585417E0,-7.668205837E0,-9.814799395E0,3.108293887E0,1.283717877E1
7.468571417E0,-8.710853266E0,-8.871673331E0,1.585360842E0,1.253391085E1
7.478556417E0,-1.030338806E1,-8.045652963E0,1.216039592E0,1.312901707E1
7.488542417E0,-1.207480204E1,-7.161284400E0,1.662374520E0,1.413677218E1
7.498527417E0,-1.337480648E1,-6.268566597E0,1.848440523E0,1.488613811E1
7.508513417E0,-1.410858526E1,-5.635896109E0,1.095812067E0,1.523208151E1
7.518498417E0,-1.470534157E1,-5.126012473E0,-3.581506930E-1,1.557727019E1
7.528484417E0,-1.534541288E1,-4.492530391E0,-2.060749415E0,1.612176212E1
7.538469417E0,-1.582576515E1,-3.675241086E0,-3.691905066E0,1.666110449E1
7.548455417E0,-1.618174715E1,-3.065140851E0,-4.748634344E0,1.714040715E1
7.558440417E0,-1.645030158E1,-2.691096804E0,-5.111621890E0,1.743511119E1
7.568426417E0,-1.665775728E1,-2.617339441E0,-5.059838948E0,1.760492299E1
7.578411417E0,-1.666300691E1,-2.966542177E0,-4.943493975E0,1.763219511E1
7.588397417E0,-1.680133566E1,-3.247510829E0,-4.729277721E0,1.775379605E1
7.598382417E0,-1.658580612E1,-3.434312412E0,-4.079346253E0,1.742195547E1
7.608368417E0,-1.583918919E1,-3.754559736E0,-3.211104895E0,1.659180001E1
7.618353417E0,-1.466925372E1,-4.090569983E0,-2.262875381E0,1.539611550E1
7.628339417E0,-1.310885406E1,-4.430920034E0,-1.564688596E0,1.392563670E1
7.638324417E0,-1.150567851E1,-4.857452781E0,-8.990784037E-1,1.252133489E1
7.648310417E0,-1.036083695E1,-5.296478689E0,-2.403708676E-1,1.163861706E1
7.658295417E0,-9.285535161E0,-5.650732250E0,5.400669640E-1,1.088318017E1
7.668281417E0,-8.334139380E0,-6.044559765E0,1.219410512E0,1.036733061E1
7.678266417E0,-7.654911608E0,-6.571153575E0,1.550637152E0,1.020696853E1
7.688252417E0,-7.194466179E0,-6.985134104E0,1.662171037E0,1.016441118E1
7.698237417E0,-6.811615056E0,-7.407635781E0,1.841716810E0,1.023049795E1
7.708223417E0,-6.304584861E0,-7.772250023E0,2.194643637E0,1.024559034E1
7.718209417E0,-5.623264369E0,-8.316939796E0,2.779657563E0,1.041724944E1
7.728194417E0,-4.915727887E0,-9.052507830E0,3.181870571E0,1.078130692E1
7.738180417E0,-4.074048675E0,-9.541071349E0,3.304273260E0,1.088798130E1
7.748165417E0,-3.186494257E0,-9.922043177E0,3.639268430E0,1.103834051E1
7.758151417E0,-2.740496128E0,-1.027218965E1,4.155887475E0,1.141488502E1
7.768136417E0,-2.399635177E0,-1.052998871E1,4.567971752E0,1.172626442E1
7.778122417E0,-2.174673495E0,-1.082241966E1,4.708904852E0,1.200115649E1
7.788107417E0,-2.077262245E0,-1.109641668E1,4.677718143E0,1.221992343E1
7.798093417E0,-1.866162557E0,-1.157023644E1,4.451227999E0,1.253660101E1
7.808078417E0,-1.541206909E0,-1.221068782E1,4.157066858E0,1.299066668E1
7.818064417E0,-1.266283401E0,-1.266326114E1,3.932021561E0,1.332000188E1
7.828049417E0,-1.108551323E0,-1.271582060E1,4.104865256E0,1.340786703E1
7.838035417E0,-8.102942812E-1,-1.296081776E1,4.546883769E0,1.375912519E1
7.848020417E0,-8.513272633E-1,-1.286686002E1,4.974125199E0,1.382109860E1
7.858006417E0,-1.080325424E0,-1.250707734E1,5.804897014E0,1.383079592E1
7.867991417E0,-1.152841131E0,-1.213230590E1,6.916725190E0,1.401295745E1
7.877977417E0,-8.297348115E-1,-1.150727012E1,7.592097309E0,1.381107045E1
7.887962417E0,2.884770620E-1,-1.085839641E1,7.689240026E0,1.330835842E1
7.897948417E0,2.083031107E0,-9.948113573E0,7.475117912E0,1.261670995E1
7.907933417E0,4.600887191E0,-8.877926928E0,7.204615191E0,1.232445656E1
7.917919417E0,7.480751705E0,-7.882059563E0,7.201906761E0,1.303671623E1
7.927904417E0,1.005053340E1,-6.569899347E0,7.296598910E0,1.405052151E1
7.937890417E0,1.178062511E1,-5.039584193E0,7.391900339E0,1.479259029E1
7.947875417E0,1.254904397E1,-3.738331958E0,7.743850096E0,1.521252263E1
7.957861417E0,1.268032332E1,-2.531064944E0,7.704023541E0,1.505154038E1
7.967846417E0,1.329324951E1,-1.783326514E0,6.879288391E0,1.507366395E1
7.977832417E0,1.461557161E1,-1.445757399E0,5.576088449E0,1.570980300E1
7.987817417E0,1.666095922E1,-1.173519809E0,4.046023848E0,1.718531407E1
7.997803417E0,1.878253371E1,-5.030347931E-1,2.818457347E0,1.899948205E1
8.007788417E0,2.006129872E1,3.572467500E-1,2.278172574E0,2.019339996E1
8.017774417E0,2.076318212E1,1.030071237E0,2.187645105E0,2.090350615E1
8.027760417E0,2.103529750E1,1.503561804E0,1.943648981E0,2.117834295E1
8.037745417E0,2.068317817E1,1.461061317E0,1.537468930E0,2.079164183E1
8.047731417E0,1.987971695E1,1.190498369E0,1.191070519E0,1.995091680E1
8.057716417E0,1.909978492E1,8.040921396E-1,1.089235412E0,1.914770957E1
8.067702417E0,1.801490422E1,3.105216497E-1,1.140997303E0,1.805367200E1
8.077687417E0,1.656189452E1,-3.877078199E-1,1.206075937E0,1.661027654E1
8.087673417E0,1.485603016E1,-1.071388248E0,1.210693483E0,1.494373727E1
8.097658417E0,1.325165710E1,-1.832159536E0,1.082583034E0,1.342144592E1
8.107644417E0,1.175743622E1,-2.658757609E0,1.080900790E0,1.210267099E1
8.117629417E0,1.031222671E1,-3.287540283E0,1.355022353E0,1.090807162E1
8.127615417E0,9.029677377E0,-3.836149444E0,1.580984786E0,9.937335104E0
8.137600417E0,7.908809406E0,-4.154987004E0,1.579906267E0,9.072446584E0
8.147586417E0,7.181768950E0,-4.237170789E0,1.675462050E0,8.505209852E0
8.157571417E0,7.073762106E0,-4.642081702E0,2.013700964E0,8.697242347E0
8.167557417E0,6.969012746E0,-5.189980427E0,2.467563889E0,9.032823868E0
8.177542417E0,6.513147442E0,-5.652111608E0,3.018863939E0,9.136793459E0
8.187528417E0,5.863042311E0,-6.132971420E0,3.518546231E0,9.185247474E0
8.197513417E0,5.592503922E0,-6.527582463E0,3.738644784E0,9.373521097E0
8.207499417E0,5.637364345E0,-6.920772048E0,3.580988647E0,9.617715019E0
8.217484417E0,5.636665603E0,-7.231009523E0,3.513346887E0,9.818508246E0
8.227470417E0,5.475589430E0,-7.609624922E0,3.969760368E0,1.018074007E1
8.237455417E0,5.068067150E0,-8.239743100E0,4.701164308E0,1.075544592E1
8.247441417E0,4.197758509E0,-9.210363357E0,5.346026825E0,1.144691978E1
8.257426417E0,3.093428510E0,-1.005048779E1,5.617510709E0,1.192216555E1
8.267412417E0,2.021041558E0,-1.048460029E1,5.590670820E0,1.205267822E1
8.277397417E0,9.476985135E-1,-1.070951461E1,5.439741905E0,1.204917539E1
8.287383417E0,3.973079613E-1,-1.052252767E1,5.103918768E0,1.170177033E1
8.297368417E0,7.828229658E-1,-1.032252950E1,5.234183623E0,1.160017695E1
8.307354417E0,1.106977472E0,-1.048238653E1,5.647525052E0,1.195827603E1
8.317339417E0,1.031608616E0,-1.086078091E1,5.929058545E0,1.241670300E1
8.327325417E0,1.276972842E0,-1.098148966E1,6.167019757E0,1.265922223E1
8.337310417E0,1.772267822E0,-1.099461315E1,6.607976416E0,1.294943257E1
8.347296417E0,1.721412394E0,-1.141078989E1,6.719516732E0,1.335369955E1
8.357282417E0,7.866984272E-1,-1.218438003E1,6.324806287E0,1.375067946E1
8.367267417E0,-1.023298992E0,-1.273022580E1,5.690819591E0,1.398181738E1
8.377253417E0,-3.313322703E0,-1.257752693E1,5.062416986E0,1.395708984E1
8.387238417E0,-5.296964593E0,-1.190006268E1,4.302630953E0,1.371794295E1
8.397224417E0,-6.133295941E0,-1.094426160E1,3.304254549E0,1.297352224E1
8.407209417E0,-6.258634517E0,-1.001833512E1,2.271438628E0,1.202900570E1
8.417195417E0,-6.608283395E0,-9.199000463E0,1.668322307E0,1.144876929E1
8.427180417E0,-7.649264367E0,-8.229571284E0,1.735171916E0,1.136872510E1
8.437166417E0,-9.348581010E0,-7.398760293E0,2.230105100E0,1.212893192E1
8.447151417E0,-1.118670120E1,-6.375383533E0,2.307756854E0,1.308103744E1
8.457137417E0,-1.263610667E1,-5.446295464E0,1.731380728E0,1.386834545E1
8.467122375E0,-1.396505483E1,-4.580633313E0,9.006967668E-1,1.472468039E1
8.477108375E0,-1.527367222E1,-3.587549808E0,5.045034675E-1,1.569745522E1
8.487093375E0,-1.660188597E1,-2.762997091E0,5.589907466E-1,1.683951428E1
8.497079375E0,-1.801490305E1,-2.243529283E0,6.726163262E-1,1.816652329E1
8.507064375E0,-1.922909492E1,-1.704769172E0,5.440050638E-1,1.931217934E1
8.517050375E0,-2.001570681E1,-1.339470221E0,2.322190998E-1,2.006182009E1
8.527035375E0,-2.027663296E1,-1.235821307E0,-7.116193011E-2,2.031438315E1
8.537021375E0,-1.986582864E1,-1.225326140E0,-2.401229274E-1,1.990503029E1
8.547006375E0,-1.888215623E1,-1.276255388E0,-1.906807722E-1,1.892619906E1
8.556992375E0,-1.776153033E1,-1.406940658E0,-3.217445031E-2,1.781719610E1
8.566977375E0,-1.642702147E1,-1.616339391E0,7.163409278E-2,1.650650535E1
8.576963375E0,-1.480135636E1,-1.941832836E0,2.829346325E-1,1.493087127E1
8.586948375E0,-1.293952571E1,-2.150262685E0,7.500433286E-1,1.313839869E1
8.596934375E0,-1.102832819E1,-2.541715062E0,1.350075316E0,1.139767702E1
8.606919375E0,-9.327902332E0,-3.097654293E0,2.086664421E0,1.004785512E1
8.616905375E0,-8.003262988E0,-3.472112907E0,2.759778199E0,9.150090831E0
8.626890375E0,-7.047202883E0,-3.998630118E0,3.313618280E0,8.753980661E0
8.636876375E0,-6.515907912E0,-4.774149839E0,3.546995859E0,8.822173328E0
8.646861375E0,-6.421116360E0,-5.559458967E0,3.328669598E0,9.122409803E0
8.656847375E0,-6.195036691E0,-6.326434736E0,2.881179845E0,9.311468916E0
8.666832375E0,-6.144755314E0,-7.338259152E0,2.512355608E0,9.895453297E0
8.676818375E0,-6.144229065E0,-8.298314075E0,2.146533916E0,1.054614504E1
8.686803375E0,-5.538026583E0,-9.113090832E0,1.760321814E0,1.080818652E1
8.696789375E0,-4.875005538E0,-1.000664537E1,1.265902308E0,1.120272910E1
8.706775375E0,-4.490007025E0,-1.080459267E1,1.072997986E0,1.174949831E1
8.716760375E0,-4.240886110E0,-1.143222578E1,1.323502060E0,1.226509515E1
8.726746375E0,-4.187726734E0,-1.208437276E1,1.807939199E0,1.291656937E1
8.736731375E0,-4.071678799E0,-1.265429268E1,2.388838440E0,1.350615566E1
8.746717375E0,-3.578790387E0,-1.309508504E1,2.963699845E0,1.389505342E1
8.756702375E0,-2.807584742E0,-1.342750626E1,3.402232248E0,1.413349358E1
8.766688375E0,-1.755505170E0,-1.364878128E1,3.570375366E0,1.421684244E1
8.776673375E0,-5.360369168E-1,-1.358899467E1,3.625047417E0,1.407441226E1
8.786659375E0,4.839889500E-1,-1.354193160E1,3.847117651E0,1.408610915E1
8.796644375E0,1.067413749E0,-1.339856722E1,4.122132084E0,1.405890994E1
8.806630375E0,7.470738932E-1,-1.274318089E1,4.313340713E0,1.347411172E1
8.816615375E0,2.215732205E-1,-1.240551822E1,4.843814735E0,1.331947890E1
8.826601375E0,1.942889428E-1,-1.232213926E1,5.451191922E0,1.347547244E1
8.836586375E0,5.264455828E-1,-1.177600932E1,5.458973982E0,1.299045563E1
8.846572375E0,1.173556647E0,-1.133215536E1,5.400638650E0,1.260800850E1
8.856557375E0,2.394757576E0,-1.056126313E1,5.362613037E0,1.208440157E1
8.866543375E0,3.678048334E0,-9.368445756E0,5.299059650E0,1.137435047E1
8.876528375E0,4.745228925E0,-8.496482061E0,5.693765418E0,1.127503302E1
8.886514375E0,4.895814024E0,-7.704311809E0,6.371978114E0,1.113227382E1
8.896499375E0,4.949010823E0,-6.982849597E0,6.919604359E0,1.100608110E1
8.906485375E0,5.705366879E0,-6.252437637E0,7.060942086E0,1.102275332E1
8.916470375E0,7.193037120E0,-5.419650872E0,6.868650552E0,1.132655106E1
8.926456375E0,9.451994866E0,-4.843397244E0,6.258033423E0,1.232727408E1
8.936441375E0,1.240119362E1,-3.862075413E0,5.296330170E0,1.402698624E1
8.946427375E0,1.531182296E1,-2.488418861E0,4.390285686E0,1.612199613E1
8.956412375E0,1.788054690E1,-1.637181791E0,3.414516371E0,1.827712351E1
8.966398375E0,1.966694145E1,-9.136341700E-1,2.494627435E0,1.984556573E1
8.976383375E0,2.031782075E1,-3.428713703E-1,1.920059559E0,2.041122313E1
8.986369375E0,2.056411483E1,-1.088637534E-1,1.495677710E0,2.061872260E1
8.996354375E0,2.076834872E1,-7.521624327E-2,7.650151974E-1,2.078256996E1
9.006340375E0,2.071672248E1,-7.174621314E-2,-1.730138487E-1,2.071756915E1
9.016325375E0,2.054851913E1,-2.440785688E-1,-9.169550961E-1,2.057041613E1
9.026311375E0,2.045946370E1,-5.128882286E-1,-1.189454057E0,2.050042707E1
9.036297375E0,2.006745467E1,-5.247256243E-1,-9.921915123E-1,2.009881882E1
9.046282375E0,1.934485108E1,-6.048143524E-1,-4.338534611E-1,1.935916560E1
9.056268375E0,1.832492593E1,-1.000392817E0,1.539253208E-1,1.835285779E1
9.066253375E0,1.719949363E1,-1.812089553E0,7.103308672E-1,1.730926975E1
9.076239375E0,1.542518410E1,-3.049719989E0,1.393505803E0,1.578540323E1
9.086224375E0,1.280410420E1,-4.052291771E0,1.880591146E0,1.356107577E1
9.096210375E0,1.033850410E1,-4.918626936E0,2.254106604E0,1.166869978E1
9.106195375E0,8.138527797E0,-5.766577871E0,2.538492954E0,1.029237589E1
9.116181375E0,6.617638940E0,-6.241580527E0,2.609330802E0,9.463565916E0
9.126166375E0,5.798406605E0,-6.599783882E0,2.833995446E0,9.230936931E0
9.136152375E0,5.469823490E0,-6.893442746E0,3.301306382E0,9.398784269E0
9.146137375E0,5.234440316E0,-7.129512384E0,3.998282209E0,9.706470670E0
9.156123375E0,4.600339599E0,-7.311155553E0,4.733450879E0,9.849958232E0
9.166108375E0,3.909388159E0,-7.535966377E0,5.308778307E0,1.001285335E1
9.176094375E0,3.922285947E0,-7.598215835E0,5.235459486E0,1.002632769E1
9.186079375E0,4.012539183E0,-8.041636510E0,5.083524849E0,1.032524156E1
9.196065375E0,3.412493235E0,-8.569216161E0,5.248439135E0,1.061238376E1
9.206050375E0,2.770825928E0,-8.950468070E0,5.730180708E0,1.098286511E1
9.216036375E0,2.360911553E0,-9.119784724E0,5.814277117E0,1.107023917E1
9.226021375E0,2.145396048E0,-9.534270453E0,5.390232360E0,1.116062911E1
9.236007375E0,1.826484959E0,-9.931708624E0,4.977941676E0,1.125854284E1
9.245992375E0,1.584671894E0,-1.003676204E1,4.735639492E0,1.121044418E1
9.255978375E0,1.347429890E0,-9.978887469E0,4.744966385E0,1.113141808E1
9.265963375E0,1.269617921E0,-9.910325357E0,5.145073226E0,1.123824972E1
9.275949375E0,1.847420184E0,-9.684578978E0,5.801184032E0,1.143930800E1
9.285934375E0,2.634615625E0,-9.921681819E0,6.263650843E0,1.202556824E1
9.295920375E0,3.050132802E0,-1.042774898E1,6.126559364E0,1.247301040E1
9.305905375E0,3.763938962E0,-1.088341314E1,5.686181579E0,1.284323086E1
9.315891375E0,3.921992417E0,-1.168985294E1,5.121709507E0,1.335165137E1
9.325876375E0,2.245953831E0,-1.260096023E1,4.691472548E0,1.363225667E1
9.335862375E0,-7.018062115E-2,-1.285016622E1,4.058568757E0,1.347604087E1
9.345847375E0,-2.347186384E0,-1.269931741E1,3.067180359E0,1.327364087E1
9.355833375E0,-4.262138692E0,-1.223217751E1,1.944568748E0,1.309860071E1
9.365818375E0,-4.979929730E0,-1.129973489E1,9.696168745E-1,1.238643878E1
9.375804375E0,-5.053235688E0,-1.029969145E1,7.816078413E-1,1.149911934E1
9.385789375E0,-5.214376765E0,-9.667415646E0,1.484452518E0,1.108387340E1
9.395775375E0,-6.609049965E0,-9.310209827E0,3.294273351E0,1.188325651E1
9.405760375E0,-9.313839194E0,-8.480732000E0,4.999866396E0,1.355245660E1
9.415746375E0,-1.212832979E1,-7.570438637E0,5.463611408E0,1.530552104E1
9.425732375E0,-1.462700876E1,-6.994664481E0,4.439675655E0,1.681027770E1
9.435717375E0,-1.621727132E1,-6.205136586E0,2.675329787E0,1.756875063E1
9.445703375E0,-1.668788214E1,-4.983195984E0,1.294087057E0,1.746402914E1
9.455688375E0,-1.652218725E1,-3.751935505E0,5.871119070E-1,1.695300539E1
9.465674167E0,-1.616222914E1,-2.749091828E0,3.541851479E-1,1.639818904E1
9.475659167E0,-1.597751677E1,-1.896530364E0,1.260970328E-1,1.609017620E1
9.485645167E0,-1.598509242E1,-1.248404515E0,-2.756997263E-1,1.603613744E1
9.495630167E0,-1.584546091E1,-7.876485997E-1,-7.317065334E-1,1.588188957E1
9.505616167E0,-1.543281472E1,-4.509337628E-1,-1.084511812E0,1.547744415E1
9.515601167E0,-1.502956266E1,-3.093580538E-1,-1.189509678E0,1.507973440E1
9.525587167E0,-1.455257487E1,-2.485411638E-1,-9.519080702E-1,1.458579230E1
9.535572167E0,-1.389214473E1,-2.226099318E-1,-5.706924138E-1,1.390564383E1
9.545558167E0,-1.297457158E1,-3.347560197E-1,-2.489838346E-1,1.298127738E1
9.555543167E0,-1.196755709E1,-6.612674654E-1,1.421458125E-3,1.198581242E1
9.565529167E0,-1.101299913E1,-1.036618364E0,2.539194328E-1,1.106459229E1
9.575514167E0,-9.982222720E0,-1.466779894E0,7.022915304E-1,1.011382356E1
9.585500167E0,-9.026720440E0,-1.996040034E0,1.323353541E0,9.339010778E0
9.595485167E0,-8.232377948E0,-2.644544781E0,1.892030931E0,8.851296222E0
9.605471167E0,-7.623844766E0,-3.399341385E0,2.235986960E0,8.641653115E0
9.615456167E0,-7.155231947E0,-4.013258682E0,2.139527782E0,8.478276275E0
9.625442167E0,-6.753676166E0,-4.662612446E0,1.939418521E0,8.432878558E0
9.635427167E0,-6.574130393E0,-5.487472141E0,1.666045986E0,8.723946937E0
9.645413167E0,-6.347778243E0,-6.213298715E0,1.352160434E0,8.984859897E0
9.655398167E0,-5.886156939E0,-6.892783765E0,1.316964873E0,9.159241673E0
9.665384167E0,-5.478484971E0,-7.722375612E0,1.425506737E0,9.575017083E0
9.675369167E0,-4.926425368E0,-8.486450577E0,1.618572443E0,9.945314829E0
9.685355167E0,-4.119442657E0,-9.141124138E0,1.882811626E0,1.020171250E1
9.695340167E0,-3.437011487E0,-9.790347508E0,2.216222202E0,1.061016461E1
9.705326167E0,-2.977500736E0,-1.042513176E1,2.628922191E0,1.115616936E1
9.715311167E0,-2.605419600E0,-1.091554593E1,2.982330244E0,1.161170306E1
9.725297167E0,-2.321996140E0,-1.140119578E1,3.260477614E0,1.208344510E1
9.735282167E0,-2.212275623E0,-1.187376073E1,3.507120187E0,1.257697298E1
9.745268167E0,-2.101034684E0,-1.216000182E1,3.652814090E0,1.286946159E1
9.755253167E0,-1.814055972E0,-1.241999125E1,3.560385983E0,1.304696631E1
9.765239167E0,-1.737065683E0,-1.266103335E1,3.462198953E0,1.324031663E1
9.775225167E0,-1.761353555E0,-1.279793889E1,3.561558934E0,1.340053388E1
9.785210167E0,-1.464534709E0,-1.284459266E1,3.811711591E0,1.347804020E1
9.795196167E0,-6.812517866E-1,-1.285538896E1,3.927802210E0,1.345930011E1
9.805181167E0,1.949783295E-1,-1.248446966E1,4.068344716E0,1.313207630E1
9.815167167E0,1.122502560E0,-1.171829730E1,4.508885053E0,1.260589339E1
9.825152167E0,2.396286331E0,-1.081771850E1,5.116373922E0,1.220420025E1
9.835138167E0,3.019020937E0,-9.989275632E0,5.797295049E0,1.193770267E1
9.845123167E0,3.387052584E0,-9.070546491E0,6.392787185E0,1.160235609E1
9.855109167E0,4.226401972E0,-8.043991769E0,6.417000505E0,1.112412570E1
9.865094167E0,5.843699137E0,-6.931222191E0,6.088734895E0,1.092077622E1
9.875080167E0,7.990946998E0,-5.467879291E0,5.873338673E0,1.132470949E1
9.885065167E0,1.000844514E1,-3.981239914E0,5.628873603E0,1.215333137E1
9.895051167E0,1.195651287E1,-2.662499827E0,5.214817060E0,1.331320481E1
9.905036167E0,1.416447529E1,-1.267525495E0,4.882655450E0,1.503593381E1
9.915022167E0,1.636049419E1,-2.055436635E-1,4.754334210E0,1.703853609E1
9.925007167E0,1.796302071E1,8.626742238E-1,4.911261199E0,1.864228544E1
9.934993167E0,1.920470268E1,1.957408649E0,5.071141616E0,1.995917160E1
9.944978167E0,2.008626165E1,2.614440976E0,5.088026621E0,2.088495209E1
9.954964167E0,2.012191564E1,2.683658561E0,4.926071026E0,2.088922421E1
9.964949167E0,1.948106782E1,2.637677227E0,4.461836894E0,2.015880286E1
9.974935167E0,1.873949469E1,2.421739553E0,3.579675947E0,1.923142126E1
9.984920167E0,1.814237820E1,1.903444111E0,2.455635862E0,1.840649705E1
9.994906167E0,1.751040645E1,1.475586385E0,1.768816649E0,1.766126841E1
1.000489117E1,1.661831196E1,1.137765255E0,1.700599523E0,1.674380008E1
1.001487717E1,1.532165798E1,7.184514803E-1,2.145998311E0,1.548788832E1
1.002486217E1,1.398417055E1,1.683846080E-1,2.653949735E0,1.423477532E1
1.003484817E1,1.268477656E1,-5.244671774E-1,2.901918749E0,1.302304705E1
1.004483317E1,1.133252140E1,-1.365240070E0,2.926699834E0,1.178369609E1
1.005481917E1,9.843214524E0,-2.280566132E0,2.880911458E0,1.050664099E1
1.006480417E1,8.507950205E0,-3.120255536E0,2.858818046E0,9.502318239E0
1.007479017E1,7.568848194E0,-3.994589692E0,2.762874300E0,8.993202110E0
1.008477517E1,7.064420595E0,-4.648928207E0,2.517694408E0,8.823681598E0
1.009476117E1,6.989155819E0,-5.071653247E0,2.494230116E0,8.988389711E0
1.010474617E1,7.410405607E0,-5.393003941E0,2.854491398E0,9.599308512E0
1.011473217E1,7.854265409E0,-5.831167969E0,3.499914663E0,1.038948544E1
1.012471717E1,7.782787875E0,-6.328528039E0,4.532286780E0,1.100743738E1
1.013470317E1,7.131239651E0,-6.852799335E0,5.742306079E0,1.143632444E1
1.014468817E1,6.173121327E0,-7.533041015E0,6.722775970E0,1.183426595E1
1.015467417E1,4.898098824E0,-8.297673805E0,7.217580807E0,1.203894661E1
1.016465917E1,3.520577846E0,-9.092344326E0,7.093992888E0,1.205777462E1
1.017464517E1,2.150161090E0,-9.756472249E0,6.474020798E0,1.190482628E1
1.018463017E1,9.546557499E-1,-1.028962137E1,5.626764513E0,1.176639938E1
1.019461617E1,-1.340246878E-1,-1.044506375E1,4.585176015E0,1.140794278E1
1.020460217E1,-9.379092512E-1,-1.033154123E1,3.488675146E0,1.094491993E1
1.021458717E1,-1.272427655E0,-1.017052996E1,2.667032003E0,1.059111947E1
1.022457317E1,-1.633175279E0,-9.884184794E0,2.310544222E0,1.028119571E1
1.023455817E1,-1.874772874E0,-9.722806320E0,2.404797245E0,1.018973924E1
1.024454417E1,-1.574839216E0,-9.493762112E0,2.782018084E0,1.001754771E1
1.025452917E1,-1.157417308E0,-9.241044867E0,3.328170830E0,9.890057944E0
1.026451517E1,-1.088648643E0,-9.076164495E0,3.809698979E0,9.903318844E0
1.027450017E1,-1.285662974E0,-9.150284970E0,4.100034871E0,1.010895298E1
1.028448617E1,-1.886367903E0,-9.533234326E0,4.140098823E0,1.056320779E1
1.029447117E1,-3.046360763E0,-9.687232445E0,3.740607110E0,1.082196507E1
1.030445717E1,-4.185653311E0,-9.822731727E0,2.935606897E0,1.107355138E1
1.031444217E1,-5.723418403E0,-9.690225635E0,1.834118353E0,1.140271815E1
1.032442817E1,-7.084101738E0,-8.894151782E0,5.313165693E-1,1.138300183E1
1.033441317E1,-7.613006952E0,-7.977299012E0,-4.521803161E-1,1.103628748E1
1.034439917E1,-7.428751246E0,-7.211144777E0,-9.627779710E-1,1.039778320E1
1.035438417E1,-6.918241957E0,-6.457836875E0,-1.049693981E0,9.521952864E0
1.036437017E1,-6.433328855E0,-5.672614869E0,-7.774849695E-1,8.612244916E0
1.037435517E1,-6.359419464E0,-4.798461392E0,-6.149563479E-1,7.990345360E0
1.038434117E1,-6.861270196E0,-3.998731275E0,-6.066744979E-1,7.964605104E0
1.039432617E1,-8.140773128E0,-3.396144127E0,-6.719509131E-1,8.846326926E0
1.040431217E1,-9.876043131E0,-2.634698070E0,-9.540673739E-1,1.026587095E1
1.041429717E1,-1.157603688E1,-1.893996180E0,-1.353524735E0,1.180778898E1
1.042428317E1,-1.304840788E1,-1.125866171E0,-1.756877365E0,1.321420225E1
1.043426817E1,-1.413109938E1,-1.066567218E-1,-2.043803015E0,1.427853200E1
1.044425417E1,-1.484891878E1,8.022321403E-1,-2.038925267E0,1.500970291E1
1.045423917E1,-1.541370485E1,1.082825986E0,-1.808757956E0,1.555719816E1
1.046422550E1,-1.559138302E1,1.034693461E0,-1.743031597E0,1.572259439E1
1.047421050E1,-1.512996754E1,1.104569442E0,-1.915549163E0,1.529069390E1
1.048419650E1,-1.449933364E1,1.134996598E0,-1.906502497E0,1.466811661E1
1.049418150E1,-1.401979880E1,9.439744949E-1,-1.532083352E0,1.413481962E1
1.050416750E1,-1.330290444E1,6.585520184E-1,-1.164173108E0,1.336997593E1
1.051415250E1,-1.236145945E1,3.533636141E-1,-8.161894441E-1,1.239341401E1
1.052413850E1,-1.154798428E1,-1.076355457E-1,-3.151182190E-1,1.155278433E1
1.053412350E1,-1.082451764E1,-5.997003776E-1,3.065565066E-1,1.084545064E1
1.054410950E1,-1.000931989E1,-1.072626103E0,9.822251525E-1,1.011443412E1
1.055409450E1,-9.517840362E0,-1.731728345E0,1.742446291E0,9.829765373E0
1.056408050E1,-9.282145531E0,-2.490108122E0,2.305472347E0,9.883019116E0
1.057406550E1,-9.039646295E0,-3.249451520E0,2.390716565E0,9.898972977E0
1.058405150E1,-8.803069704E0,-3.976451629E0,2.042069900E0,9.873006292E0
1.059403650E1,-8.590141007E0,-4.664015193E0,1.697960674E0,9.921019639E0
1.060402250E1,-8.233867233E0,-5.523968123E0,1.308243751E0,1.000111470E1
1.061400750E1,-7.622474763E0,-6.361601061E0,8.265021783E-1,9.962690170E0
1.062399350E1,-6.826985632E0,-7.044441243E0,3.424269819E-1,9.815759853E0
1.063397950E1,-5.943743827E0,-7.788059725E0,1.354308518E-1,9.797974611E0
1.064396450E1,-5.218631784E0,-8.558297070E0,4.373832425E-2,1.002399519E1
1.065395050E1,-4.436239538E0,-9.181398590E0,1.499518637E-1,1.019807761E1
1.066393550E1,-3.423738892E0,-9.871432017E0,5.211716866E-1,1.046129906E1
1.067392150E1,-2.410236471E0,-1.059284862E1,8.695558119E-1,1.089833974E1
1.068390650E1,-1.764107740E0,-1.112397812E1,1.138497326E0,1.132038610E1
1.069389250E1,-1.362015185E0,-1.151748286E1,1.757740853E0,1.173018115E1
1.070387750E1,-1.327824030E0,-1.166609804E1,2.737630700E0,1.205635027E1
1.071386350E1,-1.570034413E0,-1.148379939E1,3.989192712E0,1.225790827E1
1.072384850E1,-1.704487482E0,-1.133620281E1,5.160487656E0,1.257161105E1
1.073383450E1,-1.867664268E0,-1.155538101E1,5.692699471E0,1.301621402E1
1.074381950E1,-1.896085244E0,-1.177844761E1,5.493708197E0,1.313422236E1
1.075380550E1,-1.659340107E0,-1.162468455E1,5.034745038E0,1.277635934E1
1.076379050E1,-1.412391286E0,-1.157599244E1,4.794315716E0,1.260888232E1
1.077377650E1,-1.160778142E0,-1.169036164E1,4.823690958E0,1.269960455E1
1.078376150E1,-7.047660720E-1,-1.167384443E1,4.901532016E0,1.268070799E1
1.079374750E1,-3.179511219E-2,-1.150578843E1,4.836992204E0,1.248121276E1
1.080373250E1,4.685376826E-1,-1.107283369E1,4.759785569E0,1.206162228E1
1.081371850E1,1.147591501E0,-1.034845840E1,4.711950082E0,1.142847457E1
1.082370350E1,2.103718556E0,-9.559087790E0,4.836594009E0,1.091762029E1
1.083368950E1,2.624726229E0,-9.064601626E0,5.401544384E0,1.087349402E1
1.084367450E1,3.472592964E0,-8.796844173E0,5.945452968E0,1.117102414E1
1.085366050E1,5.325779672E0,-8.090543207E0,5.585104271E0,1.118097528E1
1.086364550E1,7.576350172E0,-6.718975865E0,4.948858795E0,1.127106570E1
1.087363150E1,9.326761540E0,-5.234022240E0,4.759337672E0,1.170618489E1
1.088361650E1,1.056500886E1,-3.906404909E0,4.863528331E0,1.226920206E1
1.089360250E1,1.186327784E1,-2.838834309E0,5.009934717E0,1.318695519E1
1.090358750E1,1.387090998E1,-1.969865558E0,4.915538437E0,1.484739143E1
1.091357350E1,1.626617510E1,-8.209251040E-1,4.477328800E0,1.689108769E1
1.092355850E1,1.854856790E1,1.706316930E-1,4.093911959E0,1.899575219E1
1.093354450E1,2.029264498E1,7.524968934E-1,3.590059141E0,2.062149889E1
1.094352950E1,2.102800953E1,1.110349415E0,2.989263287E0,2.126842156E1
1.095351550E1,2.107122279E1,1.248165364E0,2.467688143E0,2.125191360E1
1.096350050E1,2.094207885E1,1.385762043E0,2.362774768E0,2.112045709E1
1.097348650E1,2.065658737E1,1.233193569E0,2.507065047E0,2.084468142E1
1.098347150E1,2.009318476E1,7.473694700E-1,2.113702970E0,2.021787266E1
1.099345750E1,1.927261575E1,3.756678182E-1,1.474159080E0,1.933256292E1
1.100344250E1,1.795074857E1,-1.580291891E-1,1.294682888E0,1.799807076E1
1.101342850E1,1.615203511E1,-9.348914301E-1,1.588224224E0,1.625683599E1
1.102341350E1,1.417575223E1,-1.631211784E0,1.999292255E0,1.440867699E1
1.103339950E1,1.247496326E1,-2.134802647E0,2.285620465E0,1.286103229E1
1.104338450E1,1.112492186E1,-2.845380852E0,2.445902587E0,1.174063533E1
1.105337050E1,9.785317149E0,-3.637169280E0,2.572904111E0,1.075180299E1
1.106335550E1,8.517354866E0,-4.405526161E0,2.678580839E0,9.956344208E0
1.107334150E1,7.282064486E0,-5.083998474E0,2.649103855E0,9.267861398E0
1.108332650E1,6.211915264E0,-5.566238814E0,2.656708744E0,8.753799582E0
1.109331250E1,5.290057277E0,-6.141694297E0,2.726899890E0,8.552256886E0
1.110329750E1,4.407353416E0,-6.624250386E0,2.785154530E0,8.429860205E0
1.111328350E1,3.868688907E0,-6.996064305E0,2.893421575E0,8.501973772E0
1.112326850E1,3.513574344E0,-7.265206963E0,3.017230520E0,8.615806225E0
1.113325450E1,3.208625383E0,-7.481306021E0,3.093119193E0,8.708191716E0
1.114324050E1,2.936361773E0,-7.653511199E0,3.055628600E0,8.748446735E0
1.115322550E1,2.542789780E0,-7.768520669E0,2.861594596E0,8.660509043E0
1.116321150E1,2.077385475E0,-7.838715908E0,2.648965861E0,8.531003319E0
1.117319650E1,1.613296061E0,-7.990786200E0,2.508690573E0,8.529297548E0
1.118318250E1,1.066493616E0,-8.205027012E0,2.413582102E0,8.618889456E0
1.119316750E1,6.270011736E-1,-8.490693317E0,2.318792304E0,8.823933433E0
1.120315350E1,3.927913161E-1,-8.611119647E0,2.187095466E0,8.893202639E0
1.121313850E1,2.223184481E-1,-8.658142371E0,2.055193245E0,8.901498417E0
1.122312450E1,-1.205445899E-1,-8.826599484E0,2.046125529E0,9.061457892E0
1.123310950E1,-5.405094521E-1,-9.114067901E0,2.026373634E0,9.352249691E0
1.124309550E1,-1.112919705E0,-9.044267934E0,2.249609218E0,9.386059576E0
1.125308050E1,-1.913198144E0,-8.770018317E0,2.885463515E0,9.428650387E0
1.126306650E1,-2.591817807E0,-8.643129060E0,3.477450830E0,9.670256654E0
1.127305150E1,-3.018789680E0,-8.386207666E0,3.630711615E0,9.624117465E0
1.128303750E1,-2.899007421E0,-8.035949509E0,3.391429517E0,9.191437466E0
1.129302250E1,-2.358722940E0,-7.868091150E0,2.804780125E0,8.679701827E0
1.130300850E1,-1.999409784E0,-7.609045463E0,2.327416947E0,8.204394066E0
1.131299350E1,-1.876008391E0,-7.269943208E0,2.249816794E0,7.837930680E0
1.132297950E1,-1.950105769E0,-6.851038738E0,2.343256470E0,7.498699567E0
1.133296450E1,-2.141958470E0,-6.310116327E0,2.499821516E0,7.117208846E0
1.134295050E1,-2.422526588E0,-6.027556062E0,2.822498943E0,7.082836115E0
1.135293550E1,-2.938908235E0,-5.887676046E0,3.023204035E0,7.241662342E0
1.136292150E1,-3.790216641E0,-5.741924255E0,3.038922520E0,7.521335415E0
1.137290650E1,-5.115437198E0,-5.284815833E0,3.003283741E0,7.944601270E0
1.138289250E1,-6.563339356E0,-4.629007328E0,2.976542670E0,8.565333538E0
1.139287750E1,-7.892209745E0,-4.016487515E0,2.677280418E0,9.251322989E0
1.140286350E1,-9.111376428E0,-3.424952189E0,2.096767679E0,9.957103626E0
1.141284850E1,-1.003382323E1,-2.935717410E0,1.279092457E0,1.053243195E1
1.142283450E1,-1.059789243E1,-2.494810452E0,2.484341598E-1,1.089041426E1
1.143281950E1,-1.140161210E1,-2.087207481E0,-6.238721824E-1,1.160785984E1
1.144280550E1,-1.268680203E1,-1.637064262E0,-9.548168407E-1,1.282757188E1
1.145279050E1,-1.413990997E1,-1.172311190E0,-8.584835243E-1,1.421437165E1
1.146277625E1,-1.517650436E1,-6.655464578E-1,-9.325537133E-1,1.521968768E1
1.147276125E1,-1.554961987E1,-5.613560915E-1,-1.323386724E0,1.561592620E1
1.148274725E1,-1.569054361E1,-6.077712893E-1,-1.778851202E0,1.580274838E1
1.149273225E1,-1.574286918E1,-6.988492745E-1,-2.112273179E0,1.589930873E1
1.150271825E1,-1.561551916E1,-8.990281177E-1,-2.386200176E0,1.582234627E1
1.151270325E1,-1.521863004E1,-1.255515899E0,-2.592750730E0,1.548887913E1
1.152268925E1,-1.459926957E1,-1.749997970E0,-2.590634038E0,1.493025618E1
1.153267425E1,-1.390558748E1,-2.195033646E0,-2.217409917E0,1.425133126E1
1.154266025E1,-1.319331826E1,-2.648969370E0,-1.467029570E0,1.353635332E1
1.155264525E1,-1.229274882E1,-3.126876338E0,-6.535865629E-1,1.270103163E1
1.156263125E1,-1.127254534E1,-3.652190777E0,1.195445698E-1,1.185002392E1
1.157261625E1,-1.033956010E1,-4.296508918E0,9.676112064E-1,1.123845022E1
1.158260225E1,-9.608232468E0,-4.972474530E0,1.727800185E0,1.095577143E1
1.159258725E1,-8.908385074E0,-5.506736378E0,2.304448500E0,1.072352335E1
1.160257325E1,-8.267472936E0,-5.966557909E0,2.585221855E0,1.051828380E1
1.161255825E1,-7.608246149E0,-6.696499752E0,2.664251068E0,1.047982596E1
1.162254425E1,-6.892123030E0,-7.374075687E0,2.548821768E0,1.041032394E1
1.163252925E1,-6.043755189E0,-7.970629093E0,2.486607394E0,1.030733337E1
1.164251525E1,-5.237489054E0,-8.569228440E0,2.526154452E0,1.035588837E1
1.165250125E1,-4.625292592E0,-9.188284855E0,2.668270444E0,1.062720929E1
1.166248625E1,-4.081562932E0,-9.683900117E0,2.795285416E0,1.087431368E1
1.167247225E1,-3.693644612E0,-1.023861728E1,2.877599595E0,1.125845788E1
1.168245725E1,-3.467055358E0,-1.089364109E1,2.767828646E0,1.176234519E1
1.169244325E1,-3.421652313E0,-1.125764430E1,2.515649929E0,1.203207190E1
1.170242825E1,-3.496710682E0,-1.151130704E1,2.586633373E0,1.230560228E1
1.171241425E1,-3.389690848E0,-1.191788148E1,3.000043214E0,1.274857491E1
1.172239925E1,-3.175682462E0,-1.227605385E1,3.679734671E0,1.320329142E1
1.173238525E1,-3.103405030E0,-1.257968338E1,4.482923416E0,1.371043979E1
1.174237025E1,-3.114002523E0,-1.287800131E1,5.435035481E0,1.432059845E1
1.175235625E1,-3.099971837E0,-1.292896564E1,6.242716057E0,1.468807277E1
1.176234125E1,-1.912114217E0,-1.332440465E1,6.165502405E0,1.480572051E1
1.177232725E1,4.150534934E-1,-1.362434927E1,4.685894305E0,1.441363132E1
1.178231225E1,2.725386339E0,-1.281735399E1,2.711366762E0,1.338147240E1
1.179229825E1,4.301799479E0,-1.148766440E1,2.082393176E0,1.244219730E1
1.180228325E1,4.855864970E0,-1.066946118E1,2.909625964E0,1.207819315E1
1.181226925E1,5.133025038E0,-1.011357340E1,4.389489003E0,1.216141138E1
1.182225425E1,5.869650834E0,-8.821124736E0,5.925616874E0,1.213993319E1
1.183224025E1,7.079310529E0,-7.008840471E0,7.064166825E0,1.221240907E1
1.184222525E1,8.438801617E0,-5.791316271E0,7.619057651E0,1.275941834E1
1.185221125E1,9.456845132E0,-5.076795874E0,7.147785518E0,1.289560444E1
1.186219625E1,1.016648837E1,-4.389100748E0,6.059399414E0,1.262291616E1
1.187218225E1,1.077003212E1,-3.553588595E0,5.010732277E0,1.239875081E1
1.188216725E1,1.092584755E1,-3.068252739E0,4.328028919E0,1.214578750E1
1.189215325E1,1.080833957E1,-2.724598426E0,3.790153491E0,1.177322829E1
1.190213825E1,1.086462019E1,-1.907172881E0,3.564230527E0,1.159228275E1
1.191212425E1,1.101390662E1,-1.429015067E0,3.807934290E0,1.174089378E1
1.192210925E1,1.149773331E1,-1.253065916E0,4.049161756E0,1.225413222E1
1.193209525E1,1.237119623E1,-7.842817730E-1,3.980242087E0,1.301936716E1
1.194208025E1,1.389951924E1,-2.826041186E-1,3.913877651E0,1.444281615E1
1.195206625E1,1.584833891E1,2.634018624E-1,3.751256644E0,1.628837479E1
1.196205125E1,1.742013246E1,7.179176295E-1,3.682150156E0,1.781950197E1
1.197203725E1,1.833860023E1,7.727826387E-1,3.947663740E0,1.877459721E1
1.198202225E1,1.876518034E1,1.069544036E0,4.254741965E0,1.927118955E1
1.199200825E1,1.903208936E1,1.310668591E0,4.367241809E0,1.957066884E1
1.200199325E1,1.867974901E1,8.168747377E-1,4.138716542E0,1.915017708E1
1.201197925E1,1.720967012E1,-4.600998580E-2,3.526850155E0,1.756739977E1
1.202196425E1,1.512189721E1,-1.020477710E0,3.171028079E0,1.548446218E1
1.203195025E1,1.283453662E1,-2.021769537E0,3.093351035E0,1.335596132E1
1.204193525E1,1.071048290E1,-3.067480906E0,2.979499314E0,1.153261893E1
1.205192125E1,8.911433228E0,-3.837428230E0,2.722753045E0,1.007734497E1
1.206190625E1,7.878783953E0,-4.248351835E0,2.576105169E0,9.314507380E0
1.207189225E1,7.240038208E0,-4.777946436E0,2.841022045E0,9.127887579E0
1.208187725E1,6.545900036E0,-5.226547744E0,3.559378800E0,9.101361768E0
1.209186325E1,6.133145083E0,-5.645515949E0,4.286609582E0,9.373491379E0
1.210184825E1,5.967439084E0,-6.221374889E0,4.726013513E0,9.831126001E0
1.211183425E1,5.803599517E0,-6.883013068E0,5.106011487E0,1.035031350E1
1.212181925E1,5.272976391E0,-7.478823293E0,5.534478493E0,1.069427557E1
1.213180525E1,4.784322824E0,-7.995038295E0,6.101934984E0,1.113750388E1
1.214179025E1,4.538227259E0,-8.546247713E0,6.492277560E0,1.165261878E1
1.215177625E1,4.122859477E0,-9.073563654E0,6.472070167E0,1.188340102E1
1.216176125E1,3.497669625E0,-9.826594398E0,6.362900312E0,1.221810749E1
1.217174725E1,2.616236072E0,-1.041384430E1,6.291967739E0,1.244514774E1
1.218173225E1,1.921051247E0,-1.076622324E1,6.161623946E0,1.255259377E1
1.219171825E1,1.551753386E0,-1.100321557E1,5.803890708E0,1.253650026E1
1.220170325E1,1.260707934E0,-1.113945803E1,5.326379596E0,1.241157643E1
1.221168925E1,1.184508920E0,-1.136745501E1,4.662720035E0,1.234354296E1
1.222167425E1,1.338574574E0,-1.160610443E1,4.186751418E0,1.241057329E1
1.223166025E1,1.135819740E0,-1.175783734E1,3.906530625E0,1.244177668E1
1.224164625E1,3.381428732E-1,-1.176433594E1,4.060056288E0,1.244981918E1
1.225163125E1,-5.544084299E-1,-1.161016123E1,4.366306547E0,1.241643449E1
1.226161725E1,-9.287091690E-1,-1.115807089E1,4.328520670E0,1.200421334E1
1.227160225E1,-1.196074567E0,-1.075567720E1,4.086269356E0,1.156774757E1
1.228158825E1,-1.999760032E0,-1.058222891E1,3.764446793E0,1.140849107E1
1.229157325E1,-3.350276814E0,-1.026640559E1,3.157808694E0,1.125145298E1
1.230155925E1,-5.253154914E0,-1.010179126E1,2.205632894E0,1.159769976E1
1.231154425E1,-7.633391515E0,-9.460482100E0,1.039028075E0,1.220036749E1
1.232153025E1,-1.020546123E1,-8.481809058E0,-3.405277332E-1,1.327435433E1
1.233151525E1,-1.237526706E1,-7.623333135E0,-1.797110156E0,1.464554703E1
1.234150125E1,-1.371172304E1,-6.470347577E0,-3.152865458E0,1.548603588E1
1.235148625E1,-1.403939867E1,-5.362513050E0,-3.819540428E0,1.550645512E1
1.236147225E1,-1.396437071E1,-4.352221189E0,-3.723906877E0,1.509347412E1
1.237145725E1,-1.362225363E1,-3.356109996E0,-3.145892068E0,1.437796596E1
1.238144325E1,-1.321069618E1,-2.722512724E0,-2.585836397E0,1.373394041E1
1.239142825E1,-1.313091210E1,-2.178571980E0,-2.151989368E0,1.348325208E1
1.240141425E1,-1.332181199E1,-1.833316115E0,-1.738791196E0,1.355931848E1
1.241139925E1,-1.381410779E1,-1.620961030E0,-1.866240617E0,1.403352923E1
1.242138525E1,-1.463662392E1,-1.614633173E0,-2.089628813E0,1.487294015E1
1.243137025E1,-1.553068658E1,-1.730194620E0,-2.303987739E0,1.579570064E1
1.244135625E1,-1.637931053E1,-1.856756433E0,-2.627564467E0,1.669231719E1
1.245134125E1,-1.664406544E1,-1.955951523E0,-3.222779446E0,1.706566635E1
1.246132725E1,-1.606954259E1,-2.203790436E0,-3.624427028E0,1.661996879E1
1.247131237E1,-1.478383108E1,-2.494894652E0,-3.441291064E0,1.538273854E1
1.248129838E1,-1.324992632E1,-2.595196620E0,-2.860547944E0,1.380138861E1
1.249128338E1,-1.173336908E1,-2.686050657E0,-2.233168602E0,1.224229799E1
1.250126937E1,-1.037397681E1,-3.002703697E0,-1.704098496E0,1.093341557E1
1.251125437E1,-9.178601866E0,-3.316142523E0,-1.196755475E0,9.832383084E0
1.252124038E1,-8.287774469E0,-3.579878846E0,-5.765670383E-1,9.046279221E0
1.253122538E1,-7.779777144E0,-3.965034356E0,8.622888923E-2,8.732345920E0
1.254121137E1,-7.353849583E0,-4.416851048E0,7.214223775E-1,8.608607734E0
1.255119637E1,-6.930938601E0,-4.783930476E0,1.220055387E0,8.509549685E0
1.256118238E1,-6.448993546E0,-5.350064328E0,1.500304320E0,8.512556556E0
1.257116738E1,-6.058286104E0,-5.967316877E0,1.348933940E0,8.609954936E0
1.258115337E1,-5.541938955E0,-6.322183810E0,1.143068606E0,8.484674499E0
1.259113837E1,-4.677921918E0,-6.802168295E0,1.289871215E0,8.355609776E0
1.260112438E1,-3.996582131E0,-7.270412155E0,1.676310189E0,8.464134774E0
1.261110937E1,-3.338834690E0,-7.679498565E0,2.330474457E0,8.692158908E0
1.262109537E1,-2.789530879E0,-8.217876268E0,2.967685307E0,9.171811651E0
1.263108037E1,-2.384659873E0,-8.714470353E0,3.333912796E0,9.630346348E0
1.264106638E1,-2.224130268E0,-9.082212855E0,3.611215829E0,1.002368323E1
1.265105137E1,-2.275275571E0,-9.700150698E0,4.042549725E0,1.075230258E1
1.266103737E1,-2.139201361E0,-1.003214274E1,4.339754341E0,1.113793240E1
1.267102237E1,-1.715970683E0,-9.825965238E0,4.629720104E0,1.099674754E1
1.268100838E1,-1.587891371E0,-1.002796315E1,5.045564141E0,1.133751125E1
1.269099337E1,-1.853049299E0,-1.028929042E1,5.276323337E0,1.171080172E1
1.270097937E1,-2.189062470E0,-1.047913665E1,5.379757658E0,1.198107223E1
1.271096438E1,-2.358365675E0,-1.091191715E1,5.496008492E0,1.244338916E1
1.272095037E1,-2.390174236E0,-1.129753985E1,5.523576359E0,1.280067324E1
1.273093537E1,-2.445920713E0,-1.146102332E1,5.619457832E0,1.299676460E1
1.274092137E1,-2.180425840E0,-1.154275687E1,5.833061882E0,1.311541474E1
1.275090638E1,-1.297473472E0,-1.150257013E1,5.813629246E0,1.295341044E1
1.276089237E1,-7.804796210E-1,-1.144100362E1,5.518934255E0,1.272652143E1
1.277087737E1,-4.115124196E-1,-1.114882995E1,5.067091835E0,1.225321066E1
1.278086337E1,4.454566759E-1,-1.054690354E1,4.676187927E0,1.154566323E1
1.279084838E1,1.201900440E0,-9.930238634E0,4.226366889E0,1.085893094E1
1.280083437E1,2.032765810E0,-9.193397076E0,3.757835931E0,1.013765345E1
1.281081937E1,2.634580541E0,-8.547786115E0,3.452745175E0,9.587862710E0
1.282080537E1,3.875861394E0,-7.991234681E0,3.258530199E0,9.460452015E0
1.283079038E1,6.263383625E0,-6.977868354E0,3.398572184E0,9.973510620E0
1.284077637E1,8.877121181E0,-5.704178140E0,3.785078401E0,1.121016268E1
1.285076137E1,1.127177234E1,-4.049438329E0,4.270340289E0,1.271560493E1
1.286074738E1,1.270465709E1,-2.702059164E0,4.592878260E0,1.377693603E1
1.287073238E1,1.355849091E1,-1.731909608E0,4.426187298E0,1.436743960E1
1.288071837E1,1.423288771E1,-1.042176728E0,4.038061109E0,1.483128998E1
1.289070337E1,1.486325498E1,-8.736938864E-1,3.424871498E0,1.527774311E1
1.290068938E1,1.566438668E1,-7.937238568E-1,2.673968555E0,1.591078613E1
1.291067438E1,1.658506119E1,-4.175236496E-1,2.096527066E0,1.672226080E1
1.292066037E1,1.746866669E1,-2.171182269E-1,1.740901164E0,1.755654274E1
1.293064537E1,1.791322933E1,-2.343011472E-1,1.392363842E0,1.796878847E1
1.294063138E1,1.792148676E1,-2.147711545E-1,1.059014955E0,1.795403373E1
1.295061638E1,1.755530605E1,-2.783917844E-1,8.558011141E-1,1.757835795E1
1.296060237E1,1.707733360E1,-4.371825734E-1,6.925296038E-1,1.709696022E1
1.297058737E1,1.661765240E1,-4.289575875E-1,7.183894998E-1,1.663870365E1
1.298057338E1,1.585431126E1,-4.053278196E-1,9.736733803E-1,1.588935228E1
1.299055937E1,1.477245942E1,-7.703180373E-1,1.352120672E0,1.485419730E1
1.300054437E1,1.338072386E1,-1.530684698E0,1.476166429E0,1.354864694E1
1.301053038E1,1.165516608E1,-2.085639843E0,1.232695678E0,1.190429874E1
1.302051538E1,1.017972412E1,-2.679746189E0,1.173024258E0,1.059168583E1
1.303050137E1,9.003145051E0,-3.194990553E0,1.246390442E0,9.634213750E0
1.304048637E1,7.932730365E0,-3.473765330E0,1.591012176E0,8.804917737E0
1.305047238E1,7.135168980E0,-3.777784292E0,2.143716143E0,8.353311285E0
1.306045738E1,6.621802157E0,-4.143653930E0,2.477243370E0,8.194807284E0
1.307044337E1,6.397870755E0,-4.568269376E0,2.909506681E0,8.382545222E0
1.308042837E1,6.772235813E0,-5.012967083E0,3.405566915E0,9.087953724E0
1.309041438E1,7.356919371E0,-5.752261548E0,3.569551494E0,9.997723412E0
1.310039937E1,6.875694108E0,-6.859250568E0,3.668439020E0,1.038180777E1
1.311038537E1,6.138197077E0,-7.540430142E0,3.728486416E0,1.041331652E1
1.312037037E1,5.448214520E0,-8.275358491E0,4.099473538E0,1.072241964E1
1.313035638E1,4.153826331E0,-9.219186805E0,4.525936704E0,1.107843769E1
1.314034137E1,2.679562002E0,-1.020416081E1,4.828089818E0,1.160238775E1
1.315032737E1,1.504335390E0,-1.056600756E1,4.591172335E0,1.161819281E1
1.316031237E1,1.165444220E0,-1.070638518E1,3.910493283E0,1.145761325E1
1.317029838E1,1.343627884E0,-1.107559474E1,3.178179808E0,1.160064488E1
1.318028337E1,1.586684506E0,-1.131267127E1,2.945133766E0,1.179694503E1
1.319026937E1,1.956378078E0,-1.129831285E1,3.447725340E0,1.197355830E1
1.320025437E1,2.279296994E0,-1.133885277E1,4.417289005E0,1.238051772E1
1.321024038E1,2.456174683E0,-1.152680099E1,5.522039126E0,1.301510089E1
1.322022537E1,2.106564396E0,-1.203796224E1,6.166951345E0,1.368873396E1
1.323021137E1,8.704428345E-1,-1.264714739E1,6.519312161E0,1.425515482E1
1.324019638E1,-4.776347807E-1,-1.267935736E1,6.243138226E0,1.414111074E1
1.325018237E1,-1.500350659E0,-1.248258452E1,5.445384468E0,1.370102844E1
1.326016737E1,-2.634716781E0,-1.218887888E1,4.461969334E0,1.324460913E1
1.327015337E1,-4.046913209E0,-1.115577060E1,2.909277470E0,1.221853590E1
1.328013838E1,-5.254672852E0,-1.005316231E1,1.570566217E0,1.145182682E1
1.329012437E1,-6.138131588E0,-9.266853307E0,1.025178360E0,1.116253646E1
1.330010937E1,-7.435251596E0,-8.752797098E0,1.103128688E0,1.153738776E1
1.331009537E1,-9.026398258E0,-8.002358424E0,1.451109356E0,1.214986931E1
1.332008038E1,-9.844744155E0,-7.134719914E0,1.647026017E0,1.226930766E1
1.333006637E1,-1.004906107E1,-6.393767179E0,1.453428946E0,1.199901425E1
1.334005137E1,-1.062654262E1,-5.450675613E0,1.373778175E0,1.202166956E1
1.335003737E1,-1.208789746E1,-4.517435437E0,1.326843013E0,1.297247087E1
1.336002238E1,-1.334638901E1,-3.759055075E0,8.506611192E-1,1.389173204E1
1.337000837E1,-1.397921562E1,-2.866391067E0,1.340034185E-1,1.427069108E1
1.337999337E1,-1.452152967E1,-1.970877711E0,-5.290858930E-1,1.466421204E1
1.338997938E1,-1.504459702E1,-1.288308839E0,-8.483747117E-1,1.512347112E1
1.339996438E1,-1.555413041E1,-7.925093901E-1,-8.185675067E-1,1.559580382E1
1.340995037E1,-1.577005990E1,-4.478072566E-1,-9.483347636E-1,1.580489353E1
1.341993537E1,-1.575155346E1,-6.526720583E-2,-1.441007121E0,1.581746496E1
1.342992138E1,-1.554456787E1,3.285532933E-1,-1.787930758E0,1.565050268E1
1.343990638E1,-1.520011542E1,4.619183421E-1,-1.594893119E0,1.529053829E1
1.344989237E1,-1.449457400E1,6.118163931E-1,-1.084063403E0,1.454792729E1
1.345987737E1,-1.344387847E1,7.753501511E-1,-5.334946936E-1,1.347678199E1
1.346986350E1,-1.207139194E1,7.491476083E-1,1.249327791E-1,1.209526080E1
1.347984850E1,-1.052234874E1,5.547458142E-1,1.090425612E0,1.059323340E1
1.348983450E1,-9.117607221E0,1.332796794E-1,2.184605576E0,9.376621269E0
1.349981950E1,-7.985053589E0,-6.203264308E-1,3.312617821E0,8.667140390E0
1.350980550E1,-7.277358647E0,-1.200595926E0,3.909957093E0,8.348002391E0
1.351979050E1,-6.801316940E0,-1.610433118E0,3.875350932E0,7.991855341E0
1.352977650E1,-6.447707158E0,-2.383375386E0,3.529616180E0,7.727327883E0
1.353976150E1,-6.386875066E0,-3.107177069E0,2.833527961E0,7.646934232E0
1.354974750E1,-6.196558721E0,-3.566186421E0,2.046852338E0,7.436708282E0
1.355973250E1,-5.963669969E0,-4.282893092E0,1.370458710E0,7.469048789E0
1.356971850E1,-5.784166296E0,-5.041770467E0,8.216109824E-1,7.716934222E0
1.357970350E1,-5.586964270E0,-5.640068682E0,4.312947196E-1,7.950506879E0
1.358968950E1,-5.280710503E0,-6.343125613E0,2.958422148E-1,8.258853951E0
1.359967450E1,-4.879758739E0,-7.058951694E0,2.206313071E-1,8.584260163E0
1.360966050E1,-4.532514237E0,-7.767018519E0,2.475903700E-1,8.996197139E0
1.361964550E1,-4.041237609E0,-8.370325459E0,3.768799094E-1,9.302472154E0
1.362963150E1,-3.394326520E0,-8.781484122E0,5.555655938E-1,9.431042840E0
1.363961650E1,-2.885292484E0,-9.318693552E0,1.020137476E0,9.808345564E0
1.364960250E1,-2.659437640E0,-9.957859712E0,1.576029856E0,1.042667007E1
1.365958750E1,-2.329075510E0,-1.020233765E1,2.099210061E0,1.067328296E1
1.366957350E1,-1.878722961E0,-1.048578844E1,2.641722915E0,1.097542979E1
1.367955850E1,-1.544999852E0,-1.068273904E1,2.720463275E0,1.113143559E1
1.368954450E1,-1.066335522E0,-1.071080801E1,2.209680921E0,1.098822868E1
1.369952950E1,-6.480575819E-1,-1.067767301E1,1.835443186E0,1.085364138E1
1.370951550E1,-6.336835179E-1,-1.062836344E1,1.872849725E0,1.081069981E1
1.371950050E1,-9.824792871E-1,-1.055555274E1,2.419481943E0,1.087376899E1
1.372948650E1,-1.269004548E0,-1.045106066E1,3.185951927E0,1.099933321E1
1.373947150E1,-1.324864169E0,-1.031481352E1,3.678538916E0,1.103096965E1
1.374945750E1,-1.247685600E0,-1.039839362E1,3.733074142E0,1.111841498E1
1.375944250E1,-9.032223254E-1,-1.053463842E1,3.736144807E0,1.121397321E1
1.376942850E1,-1.142987403E-1,-1.036725836E1,3.826989781E0,1.105164969E1
1.377941350E1,1.385510028E0,-9.681230278E0,4.094001714E0,1.060220297E1
1.378939950E1,3.306050228E0,-8.846382369E0,4.604989305E0,1.050687278E1
1.379938450E1,5.255491462E0,-7.911932403E0,5.095137420E0,1.077864974E1
1.380937050E1,6.822266344E0,-6.533208069E0,5.379333150E0,1.087029673E1
1.381935550E1,7.536166937E0,-5.124588091E0,5.386669067E0,1.058637893E1
1.382934150E1,7.789961824E0,-4.229668812E0,5.345358489E0,1.035115746E1
1.383932650E1,8.543350418E0,-3.453105948E0,5.183536211E0,1.057269241E1
1.384931250E1,9.818724046E0,-2.611793942E0,4.773030682E0,1.122544571E1
1.385929750E1,1.100999015E1,-1.518173996E0,3.910883877E0,1.178217926E1
1.386928350E1,1.211094953E1,-1.078777959E0,3.159203839E0,1.256262032E1
1.387926850E1,1.326811584E1,-7.440155071E-1,2.555205173E0,1.353238821E1
1.388925450E1,1.416447529E1,-4.200516933E-1,2.272599885E0,1.435177738E1
1.389924050E1,1.497729557E1,1.428521562E-1,2.254838676E0,1.514675169E1
1.390922550E1,1.584896223E1,7.578590825E-1,2.120012115E0,1.600807313E1
1.391921150E1,1.645945364E1,8.937109521E-1,1.888085230E0,1.659147972E1
1.392919650E1,1.684521785E1,1.007045487E0,1.775779513E0,1.696846775E1
1.393918250E1,1.695088171E1,1.226752568E0,1.762822668E0,1.708639390E1
1.394916750E1,1.662808032E1,1.138028087E0,1.695279726E0,1.675297396E1
1.395915350E1,1.602735844E1,7.873188168E-1,1.335936457E0,1.610219909E1
1.396913850E1,1.540428966E1,4.568318492E-1,8.505336499E-1,1.543451466E1
1.397912350E1,1.439393173E1,-1.143130660E-3,5.857851738E-1,1.440584660E1
1.398910950E1,1.296974061E1,-7.796876156E-1,5.211909825E-1,1.300360429E1
1.399909550E1,1.136520500E1,-1.499540089E0,4.995545304E-1,1.147458321E1
1.400908050E1,9.794500785E0,-2.048469093E0,3.565281272E-1,1.001277102E1
1.401906650E1,8.259379220E0,-2.537345438E0,2.808672032E-1,8.644903317E0
1.402905150E1,7.112482368E0,-3.148638505E0,2.793828875E-1,7.783275960E0
1.403903750E1,6.562914264E0,-3.568780246E0,3.514059663E-1,7.478738010E0
1.404902250E1,6.105706438E0,-3.958282576E0,6.071853983E-1,7.301802940E0
1.405900850E1,5.386557970E0,-4.536109689E0,9.866644317E-1,7.110893374E0
1.406899350E1,4.722166337E0,-5.000675651E0,1.517708850E0,7.043369367E0
1.407897950E1,4.609975811E0,-5.250306736E0,1.992360089E0,7.265472904E0
1.408896450E1,4.657143545E0,-5.608395485E0,2.209081582E0,7.617291339E0
1.409895050E1,4.661588014E0,-6.100617022E0,2.564466871E0,8.094715634E0
1.410893550E1,5.135883157E0,-6.340744042E0,2.881854029E0,8.653751410E0
1.411892150E1,5.404163936E0,-6.707674366E0,3.352895197E0,9.243364618E0
1.412890650E1,5.294851994E0,-7.241589475E0,3.868642421E0,9.769466206E0
1.413889250E1,4.933645509E0,-7.791813637E0,4.276496823E0,1.016570917E1
1.414887750E1,4.399956688E0,-8.355002246E0,4.746914678E0,1.056876910E1
1.415886350E1,3.955190276E0,-9.026712254E0,5.097909000E0,1.109566313E1
1.416884850E1,3.340229835E0,-9.798719552E0,5.406435580E0,1.167910895E1
1.417883450E1,2.735078976E0,-1.038892230E1,5.639121433E0,1.213301504E1
1.418881950E1,2.135867279E0,-1.083761073E1,5.702439178E0,1.243115232E1
1.419880550E1,1.545295867E0,-1.099907106E1,5.522525615E0,1.240426510E1
1.420879050E1,1.414910705E0,-1.085142536E1,5.339396083E0,1.217639336E1
1.421877650E1,1.599392990E0,-1.091431684E1,5.175589845E0,1.218470764E1
1.422876150E1,1.412666983E0,-1.121344987E1,5.101224371E0,1.239998291E1
1.423874750E1,1.069598561E0,-1.130688370E1,5.074448217E0,1.243944069E1
1.424873250E1,9.038299242E-1,-1.121637699E1,5.515008434E0,1.253153380E1
1.425871850E1,5.987687699E-1,-1.103452507E1,6.344001526E0,1.274227699E1
1.426870350E1,1.309833317E-1,-1.096980926E1,6.673168193E0,1.284075720E1
1.427868950E1,-2.659451088E-1,-1.097184877E1,6.332142788E0,1.267076258E1
1.428867450E1,-3.933834198E-1,-1.073515815E1,5.699471716E0,1.216068867E1
1.429866050E1,-9.202830389E-1,-1.043535971E1,5.133374702E0,1.166598427E1
1.430864550E1,-2.344856561E0,-1.021743165E1,4.862636338E0,1.155592895E1
1.431863150E1,-4.174183120E0,-9.881200376E0,4.695607699E0,1.170942600E1
1.432861650E1,-5.904036555E0,-9.401087837E0,4.224687569E0,1.187796638E1
1.433860250E1,-7.094936044E0,-8.969888427E0,3.477286524E0,1.195359935E1
1.434858750E1,-8.343158711E0,-8.294680615E0,2.459350598E0,1.201908604E1
1.435857350E1,-9.556988055E0,-7.273163270E0,1.680451041E0,1.212678194E1
1.436855850E1,-1.009417702E1,-6.337653789E0,1.229040876E0,1.198202014E1
1.437854450E1,-1.041739707E1,-5.561444682E0,1.128955840E0,1.186281459E1
1.438852950E1,-1.128343286E1,-4.729287077E0,1.212260098E0,1.229437220E1
1.439851550E1,-1.260938958E1,-4.084681252E0,1.563593413E0,1.334639093E1
1.440850050E1,-1.387135905E1,-3.826207423E0,1.616596815E0,1.447991196E1
1.441848650E1,-1.493074004E1,-3.425396578E0,9.638626295E-1,1.534892084E1
1.442847150E1,-1.559087782E1,-2.846422241E0,-7.556298316E-2,1.584876338E1
1.443845750E1,-1.591384761E1,-2.417604402E0,-9.374297065E-1,1.612371332E1
1.444844250E1,-1.629300563E1,-2.223883224E0,-1.584079717E0,1.652019968E1
1.445842850E1,-1.664974192E1,-2.065980334E0,-2.073512717E0,1.690507722E1
1.446841325E1,-1.664664991E1,-1.862135287E0,-2.344072741E0,1.691369794E1
1.447839925E1,-1.606753349E1,-1.874409177E0,-2.392291805E0,1.635243414E1
1.448838425E1,-1.521892006E1,-2.018115027E0,-2.111192614E0,1.549662706E1
1.449837025E1,-1.402241602E1,-2.079788534E0,-1.629704226E0,1.426918383E1
1.450835525E1,-1.251707608E1,-2.179573608E0,-1.151598452E0,1.275750421E1
1.451834125E1,-1.096617346E1,-2.279204316E0,-7.007331012E-1,1.122242218E1
1.452832625E1,-9.671684114E0,-2.472494554E0,-1.566720504E-1,9.983949572E0
1.453831225E1,-8.338402585E0,-2.781915758E0,4.903532057E-1,8.803888869E0
1.454829725E1,-7.144397056E0,-3.089159458E0,1.054237195E0,7.854726699E0
1.455828325E1,-6.293169342E0,-3.348362435E0,1.540093453E0,7.292969162E0
1.456826825E1,-5.837642006E0,-3.486930336E0,2.097065887E0,7.115787567E0
1.457825425E1,-5.361315540E0,-3.657308845E0,2.504881112E0,6.956582616E0
1.458823925E1,-4.922559773E0,-3.892438250E0,2.677312578E0,6.822805354E0
1.459822525E1,-4.557470738E0,-4.137393901E0,2.563819292E0,6.667963496E0
1.460821025E1,-4.004604803E0,-4.508828335E0,2.166174129E0,6.407706528E0
1.461819625E1,-3.408396968E0,-4.895767246E0,1.608680123E0,6.178475424E0
1.462818125E1,-2.938417654E0,-5.040936069E0,1.068592694E0,5.931882088E0
1.463816725E1,-2.762767881E0,-5.091526179E0,7.895559615E-1,5.846359877E0
1.464815225E1,-2.833963578E0,-5.178601161E0,7.823018327E-1,5.954935407E0
1.465813825E1,-2.752384687E0,-5.390746915E0,8.409793726E-1,6.110893558E0
1.466812325E1,-2.534892239E0,-5.724405997E0,8.274225301E-1,6.314992536E0
1.467810925E1,-2.308833911E0,-6.154035430E0,1.004859213E0,6.649256210E0
1.468809425E1,-1.913746905E0,-6.369005390E0,1.453406727E0,6.807279044E0
1.469808025E1,-1.423601276E0,-6.551081253E0,1.896057909E0,6.966946374E0
1.470806525E1,-1.131149715E0,-6.770026735E0,2.063685302E0,7.167395531E0
1.471805125E1,-7.453330310E-1,-7.132669296E0,1.948958838E0,7.431617130E0
1.472803625E1,-2.226904772E-2,-7.300179745E0,1.610244838E0,7.475694527E0
1.473802225E1,9.666716319E-1,-7.306582446E0,1.343155137E0,7.491639794E0
1.474800725E1,1.789198288E0,-7.310719936E0,1.372419282E0,7.650581101E0
1.475799325E1,2.071874912E0,-7.240545747E0,1.814547138E0,7.746660550E0
1.476797825E1,2.048009648E0,-7.080760639E0,2.553222383E0,7.800670438E0
1.477796425E1,2.371904026E0,-6.561201029E0,3.217176351E0,7.682806215E0
1.478794925E1,3.119709991E0,-6.192635239E0,3.321067632E0,7.688355601E0
1.479793525E1,4.108992221E0,-6.124532134E0,2.728168736E0,7.863626109E0
1.480792025E1,5.062632748E0,-5.684432092E0,1.941581991E0,7.855746889E0
1.481790625E1,5.495790975E0,-5.019663899E0,1.474862500E0,7.587882675E0
1.482789125E1,5.349232854E0,-4.533500077E0,1.608932430E0,7.194135017E0
1.483787725E1,5.200657443E0,-4.320812870E0,2.057472636E0,7.067492861E0
1.484786225E1,5.445633559E0,-4.149578914E0,1.962223247E0,7.122095906E0
1.485784825E1,6.134456613E0,-3.586787331E0,1.172286924E0,7.202142593E0
1.486783325E1,6.991235674E0,-2.710641707E0,2.961100173E-1,7.504174562E0
1.487781925E1,7.195540313E0,-2.027088164E0,-7.795361727E-2,7.476025922E0
1.488780425E1,6.599067013E0,-1.726363524E0,-2.600549161E-3,6.821145302E0
1.489779025E1,5.742248776E0,-1.529200090E0,4.541383293E-1,5.959707673E0
1.490777525E1,5.114999242E0,-1.178151389E0,8.314585707E-1,5.314374967E0
1.491776125E1,4.615927399E0,-8.315202588E-1,8.950946957E-1,4.774872376E0
1.492774625E1,3.788638770E0,-7.971339530E-1,8.519293803E-1,3.964213660E0
1.493773225E1,3.044765643E0,-6.291346765E-1,6.650260556E-1,3.179413140E0
1.494771725E1,3.054695092E0,-3.744966209E-1,3.980304945E-1,3.103198044E0
1.495770325E1,3.532502658E0,-2.003402263E-1,1.623464808E-1,3.541901695E0
1.496768825E1,3.810345389E0,1.522620803E-1,-8.556137109E-1,3.908195306E0
1.497767425E1,4.181187500E0,7.458187884E-1,-1.659832443E0,4.560002008E0
1.498765925E1,4.578602867E0,9.576447004E-1,5.108098358E-2,4.677958621E0
1.499764525E1,4.406605265E0,9.345166236E-1,1.408343990E0,4.719631773E0
1.500763025E1,3.978656030E0,8.616456985E-1,2.254767632E0,4.653613025E0
1.501761625E1,3.568038526E0,1.050266935E0,2.302876768E0,4.374608665E0
1.502760125E1,3.160558054E0,1.223964908E0,1.955148700E0,3.912776987E0
1.503758725E1,2.748019156E0,1.112770162E0,1.712297462E0,3.423715718E0
1.504757225E1,2.319950345E0,8.780588329E-1,1.650939120E0,2.979724299E0
1.505755825E1,1.898178401E0,7.127364117E-1,1.615873368E0,2.592705378E0
1.506754325E1,1.426595489E0,7.494575107E-1,1.633448929E0,2.294562410E0
1.507752925E1,1.141598105E0,6.671491796E-1,1.524075006E0,2.017706342E0
1.508751425E1,9.620815676E-1,4.719129878E-1,1.082093330E0,1.522901437E0
1.509750025E1,7.100876230E-1,3.977492434E-1,4.527724198E-1,9.313601650E-1
1.510748525E1,1.693619701E-1,4.065884793E-1,-2.095349729E-2,4.409497902E-1
1.511747125E1,-2.725723431E-1,5.359101784E-1,-1.083120686E-1,6.109229949E-1
1.512745625E1,-4.785536706E-2,6.323909909E-1,1.253584564E-2,6.343229847E-1
1.513744225E1,3.992318049E-1,6.647541600E-1,2.722627330E-1,8.218339997E-1
1.514742725E1,6.559190172E-1,6.900153011E-1,6.659312046E-1,1.161815494E0
1.515741325E1,7.215528435E-1,7.028008229E-1,1.037960300E0,1.446350265E0
1.516739825E1,9.111067110E-1,7.858862489E-1,1.150157844E0,1.664510649E0
1.517738425E1,1.100321148E0,6.747546530E-1,9.176614398E-1,1.583699147E0
1.518736925E1,9.301399827E-1,6.895586336E-1,6.609569782E-1,1.333235022E0
1.519735525E1,8.276891631E-1,8.423972493E-1,6.188748595E-1,1.333307379E0
1.520734025E1,8.548588353E-1,8.020216405E-1,6.809053391E-1,1.355601129E0
1.521732625E1,9.090131155E-1,5.282742995E-1,7.222205955E-1,1.275531720E0
1.522731125E1,7.462719476E-1,4.419992173E-1,6.854854631E-1,1.105520442E0
1.523729725E1,5.380049434E-1,4.364490402E-1,5.187667269E-1,8.654802139E-1
1.524728225E1,1.731819561E-1,4.690922910E-1,2.950984490E-1,5.806226503E-1
1.525726825E1,-5.769593865E-2,3.957167512E-1,9.198313415E-2,4.103431070E-1
1.526725425E1,-9.455941737E-2,3.437542999E-1,-4.064984322E-2,3.588327073E-1
1.527723925E1,8.506529331E-3,3.605387324E-1,-5.298805296E-2,3.645110045E-1
1.528722525E1,1.981527829E-1,4.885103095E-1,1.259864473E-1,5.420142367E-1
1.529721025E1,2.021876541E-1,4.033742648E-1,4.917063975E-1,6.673573453E-1
1.530719525E1,1.640491900E-1,2.034614700E-1,7.661197364E-1,8.094740002E-1
1.531718125E1,2.015827596E-2,1.655183029E-1,8.118125108E-1,8.287594448E-1
1.532716725E1,-1.075870138E-1,1.815010822E-1,4.852531180E-1,5.291391092E-1
1.533715225E1,-2.457160816E-1,1.718654555E-1,2.467086464E-2,3.008700369E-1
1.534713825E1,-4.119003823E-1,1.610942996E-1,-2.611348969E-1,5.136192487E-1
1.535712325E1,-4.945952144E-1,1.999800378E-1,-4.140580049E-1,6.753224956E-1
1.536710925E1,-3.101743251E-1,1.032062799E-1,-6.113673270E-1,6.932745896E-1
1.537709425E1,-7.326765865E-2,1.438198704E-1,-7.584142756E-1,7.753995863E-1
1.538708025E1,-1.767934889E-1,1.387240219E-1,-1.506321689E0,1.522992227E0
1.539706525E1,-3.801967791E-1,1.532134223E-1,-2.296460034E0,2.332756445E0
1.540705125E1,1.918974316E-1,4.162866712E-2,-1.055626493E0,1.073734075E0
1.541703625E1,8.542217812E-1,1.227552760E-1,1.922576201E-1,8.841530986E-1
1.542702225E1,8.722733054E-1,5.877159244E-1,5.721208155E-1,1.197327422E0
1.543700725E1,9.847906914E-1,1.117046231E-1,1.039637282E0,1.436362178E0
1.544699325E1,8.423262057E-1,1.918225873E-1,1.152471587E0,1.440312501E0
1.545697825E1,3.278791094E-1,3.591909492E-1,1.337589757E0,1.423260063E0
1.546696462E1,-2.832859039E-1,2.901680768E-1,1.603897101E0,1.654368256E0
1.547694963E1,-8.383430824E-1,-7.743233800E-2,1.689566996E0,1.887710657E0
1.548693562E1,-1.165759531E0,-3.372925419E-1,1.428749018E0,1.874589368E0
1.549692062E1,-8.099319001E-1,-5.567326981E-1,8.184862304E-1,1.279007697E0
1.550690662E1,-4.273955038E-1,-3.728155464E-1,-9.406298876E-2,5.748966813E-1
1.551689163E1,-3.507696430E-1,7.128516018E-2,-9.042868111E-1,9.725510543E-1
1.552687762E1,-3.855209613E-1,-2.539796591E-2,-1.220866761E0,1.280541728E0