"Time (s)","Linear Acceleration x (m/s^2)","Linear Acceleration y (m/s^2)","Linear Acceleration z (m/s^2)","Absolute acceleration (m/s^2)"
-1.297208364E-3,1.977392020E-1,6.906473851E-1,-4.446374810E-1,8.448651325E-1
8.687791647E-3,5.889790691E-3,1.234401603E0,6.853685188E-1,1.411917850E0
1.867379167E-2,-1.395130160E0,8.373452550E-1,1.206285267E0,2.025502255E0
2.865879168E-2,-1.783141742E0,3.921294844E-1,1.060804203E0,2.111555247E0
3.864379163E-2,-1.620262580E0,5.182802385E-1,5.423994184E-1,1.785514593E0
4.862979165E-2,-1.587937564E0,8.859490657E-1,1.161046529E-1,1.822067986E0
5.861479166E-2,-1.367365533E0,8.195521778E-1,2.341377175E-1,1.611264952E0
6.860079168E-2,-1.114533244E0,7.694397855E-1,7.429980916E-1,1.544755029E0
7.858579163E-2,-1.031536330E0,9.503169698E-1,1.405885820E0,1.985871215E0
8.857079165E-2,-9.788575217E-1,1.054033127E0,1.959325367E0,2.430659123E0
9.855679167E-2,-9.469736780E-1,1.104405136E0,2.162309119E0,2.606156284E0
1.085417917E-1,-1.127615146E0,1.311581926E0,2.024384996E0,2.662686178E0
1.185267916E-1,-1.534668114E0,1.375216005E0,1.839939256E0,2.762571582E0
1.285127916E-1,-1.941138041E0,1.284813958E0,1.707804462E0,2.887102333E0
1.384977917E-1,-2.072516937E0,1.173285336E0,1.570052247E0,2.852540796E0
1.484837917E-1,-1.812719298E0,1.074501305E0,1.416673933E0,2.539186748E0
1.584687916E-1,-1.279306758E0,1.085323332E0,1.239472893E0,2.085868061E0
1.684537916E-1,-9.645589598E-1,1.045538292E0,1.093476689E0,1.794217260E0
1.784397917E-1,-1.116886748E0,7.562116295E-1,1.011280040E0,1.685817118E0
1.884247917E-1,-1.332291302E0,3.976434088E-1,8.445677358E-1,1.626780580E0
1.984097917E-1,-1.295255769E0,8.219898820E-2,5.975915793E-1,1.428831648E0
2.083957916E-1,-1.156896468E0,-1.838961017E-1,4.558691052E-1,1.256997953E0
2.183807917E-1,-8.916039810E-1,-3.343168938E-1,4.131198192E-1,1.037975640E0
2.283667917E-1,-7.809797041E-1,-4.948019135E-1,5.098193175E-1,1.055781212E0
2.383517916E-1,-1.010313057E0,-7.743350744E-1,6.227050781E-1,1.417070533E0
2.483367916E-1,-1.099275885E0,-8.686535865E-1,6.550781876E-1,1.546639569E0
2.583227917E-1,-1.018903494E0,-9.504134488E-1,5.955713663E-1,1.515307000E0
2.683077917E-1,-1.106881724E0,-1.199838712E0,4.431537500E-1,1.691503866E0
2.782927917E-1,-1.301552197E0,-1.382481755E0,2.715979046E-1,1.918087419E0
2.882787916E-1,-1.677977376E0,-1.496922875E0,1.726864046E-1,2.255262016E0
2.982637917E-1,-1.654976038E0,-1.662034796E0,1.039015138E-1,2.347786378E0
3.082497917E-1,-1.283156857E0,-1.768931254E0,-8.755211413E-2,2.187069883E0
3.182347916E-1,-9.525637624E-1,-1.787044759E0,-2.979551062E-1,2.046871744E0
3.282197916E-1,-7.570162064E-1,-1.856324909E0,-3.136703753E-1,2.029138933E0
3.382057917E-1,-1.750487820E0,-2.151926218E0,-1.311076435E0,3.068210468E0
3.481907917E-1,-1.653551217E0,-2.856678842E0,-1.518706092E0,3.633361230E0
3.581757917E-1,-5.710835195E-1,-2.472287562E0,-8.217413753E-1,2.667133492E0
3.681617916E-1,-1.162759763E0,-2.143986869E0,-1.513767826E0,2.870571893E0
3.781467917E-1,-1.461269478E0,-2.915687188E0,-1.087003822E0,3.437748911E0
3.881327917E-1,-1.390471098E0,-2.908892723E0,-1.001189500E0,3.376010540E0
3.981177917E-1,-1.312135950E0,-2.792391044E0,-1.016497803E0,3.248448288E0
4.081027916E-1,-1.428211952E0,-2.957502381E0,-8.879333183E-1,3.402210354E0
4.180887917E-1,-1.525241818E0,-3.021296673E0,-7.095090410E-1,3.458034018E0
4.280737917E-1,-1.524019165E0,-2.930459594E0,-4.489313838E-1,3.333431750E0
4.380587917E-1,-1.528671210E0,-2.928807755E0,-3.055784136E-1,3.317850012E0
4.480447916E-1,-1.725069243E0,-2.926285266E0,-2.925122255E-1,3.409482769E0
4.580297917E-1,-1.783470941E0,-2.899032564E0,-3.176578841E-1,3.418488691E0
4.680157917E-1,-1.398782915E0,-2.862879814E0,-6.612145481E-1,3.254209451E0
4.780007917E-1,-9.253505284E-1,-2.649895568E0,-1.181271755E0,3.045262400E0
4.879857916E-1,-7.463201872E-1,-2.330461008E0,-1.240371318E0,2.743458281E0
4.979717917E-1,-6.031081349E-1,-1.986792077E0,-8.556464553E-1,2.245709918E0
5.079566250E-1,-3.564959675E-1,-1.635380849E0,-4.278024700E-1,1.727592211E0
5.179416250E-1,-2.487335372E-1,-1.289823852E0,-2.095411125E-1,1.330196008E0
5.279276250E-1,-3.706550002E-2,-9.111108041E-1,-1.369789204E-1,9.220954252E-1
5.379126250E-1,5.908330750E-1,-5.494634396E-1,-5.783656418E-2,8.089121474E-1
5.478986250E-1,1.323303255E0,-3.297350156E-1,5.798566818E-2,1.364997810E0
5.578836250E-1,2.307401928E0,-5.948606372E-2,-3.886351883E-3,2.308171864E0
5.678686250E-1,3.174631133E0,3.598212790E-1,-3.553674549E-2,3.195155246E0
5.778546250E-1,3.714953620E0,6.855667394E-1,1.726384574E-1,3.781624809E0
5.878396250E-1,4.335948973E0,8.447478300E-1,3.035123000E-1,4.427885738E0
5.978246250E-1,5.029197199E0,9.061985582E-1,5.269539982E-2,5.110459578E0
6.078106250E-1,5.819240819E0,1.046463906E0,-3.901320755E-1,5.925441203E0
6.177956250E-1,6.976819949E0,1.304155378E0,-7.261747751E-1,7.134715667E0
6.277816250E-1,8.291726017E0,1.648076323E0,-8.931487423E-1,8.500975861E0
6.377666250E-1,9.065110919E0,1.869726727E0,-7.799165341E-1,9.288723476E0
6.477516250E-1,9.467195873E0,1.895865535E0,-5.077277684E-1,9.668499951E0
6.577376250E-1,9.709679321E0,1.813530892E0,-1.853397793E-1,9.879327793E0
6.677226250E-1,9.726364936E0,1.678312275E0,1.652317894E-1,9.871484615E0
6.777076250E-1,9.745194139E0,1.509008485E0,4.444062236E-1,9.871342984E0
6.876936250E-1,9.620567170E0,1.208154037E0,5.385443491E-1,9.711075062E0
6.976786250E-1,9.220412382E0,7.808050185E-1,6.035653871E-1,9.273076736E0
7.076636250E-1,8.746216641E0,4.411028391E-1,6.777706468E-1,8.783521520E0
7.176496250E-1,8.266475986E0,-1.687506437E-3,7.173083496E-1,8.297539354E0
7.276346250E-1,7.735932382E0,-4.922700691E-1,6.816415036E-1,7.781491809E0
7.376206250E-1,7.247816759E0,-8.790435040E-1,7.424712574E-1,7.338584934E0
7.476056250E-1,6.968793476E0,-1.236044671E0,8.943471292E-1,7.133845087E0
7.575906250E-1,6.881688673E0,-1.534415222E0,1.035175272E0,7.126265285E0
7.675766250E-1,6.836689087E0,-1.871935805E0,1.153888660E0,7.181637722E0
7.775616250E-1,6.671999334E0,-2.428712942E0,1.294075070E0,7.217260696E0
7.875466250E-1,6.347771226E0,-3.105563822E0,1.543424612E0,7.233317753E0
7.975326250E-1,5.904586194E0,-3.621725614E0,1.865575204E0,7.173660529E0
8.075176250E-1,5.161724927E0,-4.235794939E0,2.191665358E0,7.027713713E0
8.175036250E-1,4.464963693E0,-4.609581708E0,2.509582858E0,6.890729310E0
8.274886250E-1,3.876189130E0,-4.979256130E0,2.732329615E0,6.876296889E0
8.374736250E-1,3.320187042E0,-5.465384284E0,2.786248544E0,6.975474774E0
8.474596250E-1,2.721737968E0,-5.936148294E0,2.703351399E0,7.067801845E0
8.574446250E-1,2.202724197E0,-6.335989671E0,2.605968361E0,7.196376178E0
8.674296250E-1,1.720118259E0,-6.674578541E0,2.404856595E0,7.300146626E0
8.774156250E-1,1.297165324E0,-6.905306747E0,2.312628608E0,7.396901394E0
8.874006250E-1,9.435691367E-1,-7.102584786E0,2.280553268E0,7.519172599E0
8.973866250E-1,7.211329403E-1,-7.209511065E0,2.106687480E0,7.545542701E0
9.073716250E-1,5.273326785E-1,-7.302326843E0,1.777611446E0,7.534053326E0
9.173566250E-1,2.340323945E-1,-7.308775152E0,1.500584109E0,7.464899065E0
9.273426250E-1,-6.215254024E-2,-7.317081122E0,1.436147500E0,7.456947011E0
9.373276250E-1,-5.073387824E-1,-7.483264253E0,1.581344244E0,7.665330139E0
9.473126250E-1,-8.769458154E-1,-7.394059131E0,1.433880535E0,7.582688032E0
9.572986250E-1,-8.879277635E-1,-6.936327395E0,1.034840519E0,7.069083982E0
9.672836250E-1,-7.973032299E-1,-6.739986665E0,7.377107468E-1,6.826956117E0
9.772696250E-1,-8.046128342E-1,-6.713053805E0,4.978604458E-1,6.779406922E0
9.872546250E-1,-9.755898052E-1,-6.649842480E0,3.647596912E-1,6.730915993E0
9.972396250E-1,-1.380737823E0,-6.491256636E0,4.035869573E-1,6.648739135E0
1.007225625E0,-1.732514210E0,-6.158481068E0,3.890322143E-1,6.409355710E0
1.017210625E0,-2.023848222E0,-5.864495929E0,1.458362827E-1,6.205605720E0
1.027195625E0,-2.284476750E0,-5.644379250E0,-1.632643475E-1,6.091346845E0
1.037181625E0,-2.801581698E0,-5.513456583E0,-2.596475114E-1,6.189869169E0
1.047166625E0,-3.730944586E0,-5.190257585E0,-1.142037231E-1,6.393102830E0
1.057152625E0,-4.855979283E0,-4.793666675E0,2.221605733E-1,6.827087982E0
1.067137625E0,-5.722067111E0,-4.418819806E0,4.553375933E-1,7.243987357E0
1.077122625E0,-6.458592335E0,-3.749553350E0,3.443442839E-1,7.476037604E0
1.087108625E0,-6.942285708E0,-2.919093776E0,2.288307846E-3,7.531032105E0
1.097093625E0,-7.202652866E0,-2.286008136E0,-1.932905307E-1,7.559193259E0
1.107078625E0,-7.398324675E0,-1.762320977E0,-1.126474866E-1,7.606160180E0
1.117064625E0,-7.790724885E0,-1.282550501E0,1.503023860E-1,7.897019744E0
1.127049625E0,-8.348080312E0,-6.722362572E-1,2.822316509E-1,8.379856871E0
1.137034625E0,-8.851905064E0,-4.213445127E-2,2.468343616E-1,8.855446108E0
1.147020625E0,-9.282252535E0,5.414422292E-1,1.456070718E-1,9.299170566E0
1.157005625E0,-9.507158668E0,1.100620818E0,-1.343441650E-1,9.571597593E0
1.166991625E0,-9.371790948E0,1.603831027E0,-5.705309576E-1,9.525137538E0
1.176976625E0,-9.092321522E0,2.050553041E0,-1.008767199E0,9.375110116E0
1.186961625E0,-8.956707049E0,2.389008009E0,-1.245672112E0,9.353163071E0
1.196947625E0,-8.797144720E0,2.496097425E0,-1.014670256E0,9.200533316E0
1.206932625E0,-8.610303376E0,2.514812023E0,-3.549049401E-1,8.977057494E0
1.216917625E0,-8.080505292E0,2.342906222E0,4.544748366E-1,8.425575512E0
1.226903625E0,-7.576403967E0,2.139481004E0,1.114116484E0,7.951133980E0
1.236888625E0,-7.288284169E0,1.848490224E0,1.680609646E0,7.704573384E0
1.246874625E0,-7.122103377E0,1.503159515E0,2.217295458E0,7.609220998E0
1.256859625E0,-7.227504117E0,1.079387823E0,2.514382545E0,7.728131302E0
1.266844625E0,-7.404153764E0,5.467123246E-1,2.352060915E0,7.787976494E0
1.276830625E0,-7.482680701E0,-1.042617023E-1,1.957422390E0,7.735171840E0
1.286815625E0,-7.497547247E0,-6.945656043E-1,1.648050011E0,7.707898866E0
1.296800625E0,-7.400441952E0,-1.264985465E0,1.556866483E0,7.667500411E0
1.306786625E0,-7.130922148E0,-1.902009789E0,1.443018563E0,7.519973038E0
1.316771625E0,-6.720569816E0,-2.522703425E0,1.320244576E0,7.298844906E0
1.326757625E0,-6.158002181E0,-3.183884937E0,1.279856688E0,7.049549439E0
1.336742625E0,-5.589301987E0,-3.816429709E0,1.289195861E0,6.889663155E0
1.346727625E0,-5.242118880E0,-4.397963957E0,1.405267477E0,6.985461617E0
1.356713625E0,-4.982247566E0,-4.988089519E0,1.432661683E0,7.194188443E0
1.366698625E0,-4.667659763E0,-5.570652877E0,1.242909010E0,7.373197674E0
1.376683625E0,-4.329042826E0,-6.170666665E0,8.872725829E-1,7.589795223E0
1.386669625E0,-3.956659974E0,-6.766840587E0,6.319857788E-1,7.864139858E0
1.396654625E0,-3.568066593E0,-7.250380763E0,5.361493295E-1,8.098553978E0
1.406640625E0,-3.156906761E0,-7.703161077E0,3.409708790E-1,8.331927269E0
1.416625625E0,-2.639511498E0,-8.090987595E0,6.717500612E-2,8.510911449E0
1.426610625E0,-2.028540028E0,-8.462181709E0,-7.241776586E-3,8.701927738E0
1.436596625E0,-1.588397594E0,-8.881347549E0,1.210660154E-1,9.023081413E0
1.446581625E0,-1.019972730E0,-9.145808927E0,3.272480486E-1,9.208325395E0
1.456566625E0,-1.933802490E-1,-9.134626127E0,3.753642015E-1,9.144380169E0
1.466552625E0,5.299965969E-1,-8.929367808E0,2.602759409E-1,8.948868610E0
1.476537625E0,6.569511969E-1,-8.713645311E0,4.005605847E-1,8.747550987E0
1.486523625E0,4.735481617E-1,-8.452049069E0,8.626964432E-1,8.509149574E0
1.496508625E0,4.704519148E-1,-8.031153038E0,1.436638666E0,8.172189105E0
1.506493667E0,5.747774979E-1,-7.543004671E0,2.260607246E0,7.895418530E0
1.516479667E0,5.263879877E-1,-7.182189365E0,3.018293836E0,7.808394590E0
1.526464667E0,4.571815127E-1,-6.987436738E0,3.303724791E0,7.742601927E0
1.536449667E0,4.766071326E-1,-6.824930336E0,2.995588513E0,7.468626312E0
1.546435667E0,7.849787611E-1,-6.602669483E0,2.471619810E0,7.093683137E0
1.556420667E0,1.505722350E0,-6.320501567E0,1.851112116E0,6.755927465E0
1.566405667E0,2.305230565E0,-5.898477607E0,1.354109018E0,6.476089659E0
1.576391667E0,3.226833905E0,-5.549777148E0,8.411132008E-1,6.474562136E0
1.586376667E0,4.035847061E0,-4.902761686E0,4.814231917E-1,6.368430100E0
1.596362667E0,4.373069437E0,-4.114441241E0,6.553568074E-1,6.040021156E0
1.606347667E0,4.551351042E0,-3.495113515E0,1.173654295E0,5.857309894E0
1.616332667E0,4.861100274E0,-2.758650271E0,1.673115855E0,5.834360621E0
1.626318667E0,4.991375654E0,-2.162773973E0,2.043359503E0,5.810915611E0
1.636303667E0,4.791946424E0,-1.972861671E0,2.065552610E0,5.578659453E0
1.646288667E0,4.904661446E0,-1.761942662E0,1.614891620E0,5.456007770E0
1.656274667E0,5.946280349E0,-1.260997079E0,9.856549099E-1,6.157911921E0
1.666259667E0,7.761505764E0,-6.571492714E-1,1.643167001E-1,7.791008720E0
1.676245667E0,9.672256556E0,7.439997196E-3,-6.150583819E-1,9.691795451E0
1.686230667E0,1.153973971E1,7.718833369E-1,-9.760146055E-1,1.160663607E1
1.696215667E0,1.326352578E1,1.497573670E0,-8.329791391E-1,1.337376900E1
1.706201667E0,1.420811891E1,1.865500944E0,-3.658161369E-1,1.433473258E1
1.716186667E0,1.442993888E1,2.053128739E0,7.685989559E-2,1.457547190E1
1.726171667E0,1.425460661E1,2.107227178E0,2.775494930E-1,1.441219101E1
1.736157667E0,1.378842682E1,1.868374851E0,2.738891360E-1,1.391713167E1
1.746142667E0,1.309510258E1,1.611311955E0,2.206201243E-1,1.319570805E1
1.756128667E0,1.225443552E1,1.278974344E0,2.676264757E-1,1.232390316E1
1.766113667E0,1.150683041E1,7.794174743E-1,3.138376057E-1,1.153746643E1
1.776098667E0,1.072471737E1,3.725430661E-1,2.622949845E-1,1.073439097E1
1.786084667E0,9.907140963E0,-8.252526283E-2,2.614924541E-1,9.910934910E0
1.796069667E0,9.242625954E0,-5.341805720E-1,3.684853908E-1,9.265379911E0
1.806054667E0,8.597789750E0,-9.307855153E-1,5.783521932E-1,8.667343394E0
1.816040667E0,8.004801975E0,-1.364215638E0,9.459064150E-1,8.175125560E0
1.826025667E0,7.544983369E0,-1.760816488E0,1.425448265E0,7.877763102E0
1.836011667E0,7.083936262E0,-2.235212204E0,1.894699308E0,7.666042788E0
1.845996667E0,6.578632164E0,-2.676798023E0,2.343573389E0,7.479036371E0
1.855981667E0,6.311391020E0,-3.040901218E0,2.661255539E0,7.494198948E0
1.865967667E0,6.054550903E0,-3.464914400E0,2.790134604E0,7.513193032E0
1.875952667E0,5.669214714E0,-3.962891352E0,2.826773842E0,7.472292398E0
1.885937667E0,5.109178923E0,-4.593204827E0,3.008656455E0,7.500216898E0
1.895923667E0,4.331584611E0,-5.239477108E0,3.436180598E0,7.617222768E0
1.905908667E0,3.396420408E0,-5.781575979E0,3.884604151E0,7.749351057E0
1.915893667E0,2.591646191E0,-6.189336825E0,4.030992703E0,7.827734186E0
1.925879667E0,2.079746288E0,-6.458611631E0,3.889366415E0,7.820881020E0
1.935864667E0,1.762204763E0,-6.678117276E0,3.537714574E0,7.760028375E0
1.945850667E0,1.338126239E0,-6.974554737E0,3.098972840E0,7.748459736E0
1.955835667E0,8.448702561E-1,-7.379540495E0,2.708161318E0,7.906045876E0
1.965820667E0,4.827432372E-1,-7.817515073E0,2.165302309E0,8.126199422E0
1.975806667E0,4.483363565E-2,-7.989619095E0,1.572018519E0,8.142927334E0
1.985791667E0,-4.274485673E-1,-8.001243360E0,1.172775459E0,8.098025059E0
1.995776667E0,-6.468092014E-1,-8.003670539E0,1.006995639E0,8.092659913E0
2.005762667E0,-6.567962457E-1,-8.060472731E0,1.047024508E0,8.154683457E0
2.015747667E0,-7.125684504E-1,-8.196259696E0,9.552010028E-1,8.282441413E0
2.025733667E0,-1.003279295E0,-8.075739811E0,6.570368586E-1,8.164302804E0
2.035718667E0,-1.185037655E0,-7.894254516E0,3.743521947E-1,7.991477221E0
2.045703667E0,-1.165912289E0,-7.879664544E0,1.873909825E-1,7.967658387E0
2.055689667E0,-1.193725740E0,-7.914380048E0,1.044743948E-1,8.004580413E0
2.065674667E0,-1.089454390E0,-7.845066569E0,2.236916667E-1,7.923510478E0
2.075659667E0,-1.195198361E0,-7.720615016E0,3.540798980E-1,7.820598949E0
2.085645667E0,-1.818666501E0,-7.486957355E0,4.550542957E-1,7.718105511E0
2.095630667E0,-2.835363986E0,-7.060916943E0,5.933454774E-1,7.632030914E0
2.105616667E0,-3.976798369E0,-6.384519222E0,7.160514906E-1,7.555775321E0
2.115601667E0,-4.915873482E0,-5.481585165E0,8.812120901E-1,7.415532534E0
2.125586667E0,-5.609224035E0,-4.788521125E0,8.790584144E-1,7.427386656E0
2.135572667E0,-6.487010388E0,-4.003071663E0,3.379392439E-1,7.630209004E0
2.145557667E0,-7.375798861E0,-3.070006319E0,-3.720206174E-1,7.997858900E0
2.155542667E0,-8.075656781E0,-2.109646756E0,-8.354130426E-1,8.388370332E0
2.165528667E0,-8.716397011E0,-1.274163839E0,-8.939939573E-1,8.854281198E0
2.175513667E0,-9.142598805E0,-5.593838257E-1,-6.583280700E-1,9.183322875E0
2.185499667E0,-9.141532273E0,5.653321981E-2,-5.156150776E-1,9.156236520E0
2.195484667E0,-9.049148605E0,6.220472664E-1,-7.331882179E-1,9.100087815E0
2.205469667E0,-9.122532915E0,1.182235669E0,-1.102007777E0,9.264594385E0
2.215455667E0,-9.292071179E0,1.527079890E0,-1.368499893E0,9.515637222E0
2.225440667E0,-9.462789411E0,1.729311690E0,-1.681546663E0,9.765372575E0
2.235425667E0,-9.726845577E0,1.954831197E0,-2.040519803E0,1.012899852E1
2.245411667E0,-1.002636218E1,2.010192634E0,-2.176714904E0,1.045499406E1
2.255396667E0,-1.014310418E1,1.933570136E0,-1.907793563E0,1.050052057E1
2.265381667E0,-1.002792222E1,1.840350900E0,-1.287211316E0,1.027633341E1
2.275367667E0,-9.809709978E0,1.583661641E0,-4.535044912E-1,9.947062902E0
2.285352667E0,-9.598544801E0,1.091659960E0,4.706561288E-1,9.671881976E0
2.295338667E0,-9.424027049E0,6.802574676E-1,1.298188879E0,9.537312536E0
2.305323667E0,-8.967460079E0,3.663572967E-1,1.971343441E0,9.188892909E0
2.315308667E0,-8.382144436E0,2.570143640E-2,2.301243056E0,8.692337172E0
2.325294667E0,-7.767789767E0,-3.845865762E-1,2.311265476E0,8.113471070E0
2.335279667E0,-7.099909101E0,-7.930601978E-1,2.152547777E0,7.461307905E0
2.345264667E0,-6.585842950E0,-1.199162773E0,1.992113044E0,6.984256088E0
2.355250667E0,-6.385556518E0,-1.600409821E0,1.819663744E0,6.829920921E0
2.365235667E0,-6.184989420E0,-2.101600403E0,1.617729859E0,6.729626162E0
2.375221667E0,-5.953872959E0,-2.711312383E0,1.354005815E0,6.680804577E0
2.385206667E0,-5.795981764E0,-3.387444055E0,9.612688047E-1,6.781756377E0
2.395191667E0,-5.670687627E0,-4.068257008E0,5.846736181E-1,7.003517437E0
2.405177667E0,-5.441625878E0,-4.748860631E0,3.377782993E-1,7.230287938E0
2.415162667E0,-5.112352207E0,-5.388575844E0,2.849212240E-1,7.433308471E0
2.425147667E0,-4.754424257E0,-5.938409413E0,4.321098214E-1,7.619447176E0
2.435133667E0,-4.367288294E0,-6.515161223E0,7.990388297E-1,7.884097657E0
2.445118667E0,-3.977443902E0,-7.033183014E0,1.256608013E0,8.177089152E0
2.455104667E0,-3.599051574E0,-7.561095371E0,1.602057567E0,8.525838603E0
2.465089667E0,-3.288183769E0,-7.970578222E0,1.908173924E0,8.830820880E0
2.475074667E0,-2.729583762E0,-8.284791804E0,2.290318118E0,9.018534240E0
2.485060667E0,-2.041475969E0,-8.602312571E0,2.823018760E0,9.280993515E0
2.495045667E0,-1.310968553E0,-8.928111826E0,3.275000929E0,9.599763039E0
2.505030417E0,-7.317949726E-1,-9.154012570E0,3.483258870E0,9.821637459E0
2.515016417E0,-2.287011956E-1,-9.086563768E0,3.262098463E0,9.657081947E0
2.525001417E0,1.346589097E-1,-8.983267441E0,2.791379476E0,9.407923593E0
2.534986417E0,5.005456700E-1,-8.927797830E0,2.276696299E0,9.227104968E0
2.544972417E0,6.619216226E-1,-9.019735356E0,1.852837629E0,9.231834780E0
2.554957417E0,7.905423868E-1,-8.961567839E0,1.304588072E0,9.090467834E0
2.564943417E0,1.128158572E0,-8.570098506E0,8.000796340E-1,8.680982524E0
2.574928417E0,1.724880963E0,-8.016321575E0,6.445062755E-1,8.225084454E0
2.584913417E0,2.083212079E0,-7.578704261E0,7.210751259E-1,7.892811931E0
2.594899417E0,2.387996441E0,-7.237292356E0,9.025064801E-1,7.674336818E0
2.604884417E0,2.776546260E0,-6.906069224E0,1.342789686E0,7.563470460E0
2.614869417E0,2.793815134E0,-6.474791461E0,1.807524632E0,7.279798951E0
2.624855417E0,3.013774815E0,-5.937923509E0,1.921996742E0,6.930789689E0
2.634840417E0,3.494378812E0,-5.335451551E0,1.589229360E0,6.572927544E0
2.644825417E0,3.530631257E0,-4.930204423E0,1.018120113E0,6.148889435E0
2.654811417E0,3.608307716E0,-4.568612607E0,4.308111548E-1,5.837611153E0
2.664796417E0,3.866148584E0,-4.120118303E0,1.195767295E-1,5.651263425E0
2.674782417E0,4.007057126E0,-3.589498100E0,4.832519084E-1,5.401345742E0
2.684767417E0,4.022887293E0,-2.999766641E0,1.195136966E0,5.158543829E0
2.694752417E0,4.103268966E0,-2.381774418E0,1.685851383E0,5.035053175E0
2.704738417E0,4.294268850E0,-1.800490431E0,1.711365416E0,4.960975946E0
2.714723417E0,4.522823646E0,-1.294070685E0,1.758899771E0,5.022378030E0
2.724708417E0,5.074296189E0,-8.482643455E-1,1.992153974E0,5.516947677E0
2.734694417E0,6.013675357E0,-3.459089988E-1,1.984988796E0,6.342249195E0
2.744679417E0,7.526513184E0,2.769434291E-1,1.642995678E0,7.708730970E0
2.754665417E0,9.524019114E0,9.196951014E-1,1.287786098E0,9.654593321E0
2.764650417E0,1.131287826E1,1.511699374E0,1.126953753E0,1.146893519E1
2.774635417E0,1.257087981E1,1.907098036E0,9.940120429E-1,1.275351333E1
2.784621417E0,1.370277563E1,2.160928591E0,6.620673645E-1,1.388790861E1
2.794606417E0,1.443418045E1,2.201666728E0,3.479602021E-1,1.460527227E1
2.804591417E0,1.454345205E1,2.144825944E0,2.175941902E-1,1.470236794E1
2.814577417E0,1.416764448E1,2.071002508E0,1.264331746E-1,1.431877044E1
2.824562417E0,1.347579257E1,1.732377385E0,1.714204824E-1,1.358777030E1
2.834548417E0,1.267574378E1,1.220009851E0,2.439201093E-1,1.273665582E1
2.844533417E0,1.203333826E1,7.632949466E-1,3.039873862E-1,1.206135387E1
2.854518417E0,1.151455107E1,3.360272044E-1,4.764065731E-1,1.152930023E1
2.864504417E0,1.092562068E1,-7.965603411E-2,8.149287844E-1,1.095626037E1
2.874489417E0,1.033795680E1,-5.097637689E-1,1.136398468E0,1.041271393E1
2.884474417E0,9.631207933E0,-1.076186473E0,1.539934701E0,9.812733689E0
2.894460417E0,8.739961874E0,-1.819672807E0,2.107611633E0,9.172795075E0
2.904445417E0,7.819680297E0,-2.646674922E0,2.575987347E0,8.648005487E0
2.914430417E0,6.781313031E0,-3.213709829E0,2.750359797E0,7.992409918E0
2.924416417E0,5.979859155E0,-3.552572933E0,2.779961033E0,7.490505544E0
2.934401417E0,5.589348764E0,-4.005611694E0,2.715465075E0,7.393206018E0
2.944387417E0,5.433567245E0,-4.432720976E0,2.715683177E0,7.519814052E0
2.954372417E0,5.184003988E0,-4.878443116E0,2.896465636E0,7.685220736E0
2.964357417E0,4.758988593E0,-5.411272981E0,3.300581620E0,7.926139460E0
2.974343417E0,4.334886826E0,-5.990671826E0,3.805194577E0,8.316182928E0
2.984328417E0,3.921856762E0,-6.511009700E0,4.084746156E0,8.628983656E0
2.994313417E0,3.325500407E0,-7.064287863E0,4.090264174E0,8.814384662E0
3.004299417E0,2.815446616E0,-7.682085373E0,4.002748897E0,9.108412269E0
3.014284417E0,2.457472472E0,-8.251967289E0,3.757400898E0,9.394264027E0
3.024270417E0,1.926189196E0,-8.492876083E0,3.337450361E0,9.326184852E0
3.034255417E0,1.450413683E0,-8.739354349E0,2.827157419E0,9.299077017E0
3.044240417E0,1.084869442E0,-9.008784106E0,2.214120128E0,9.340099609E0
3.054226417E0,8.696900055E-1,-9.007248042E0,1.610835553E0,9.191391036E0
3.064211417E0,7.182816187E-1,-8.940581598E0,1.061578374E0,9.031991831E0
3.074196417E0,4.420243603E-1,-8.870051898E0,7.976878305E-1,8.916810645E0
3.084182417E0,1.069289097E-1,-8.669715765E0,7.627401920E-1,8.703859939E0
3.094167417E0,-1.514697826E-1,-8.567609931E0,7.214695206E-1,8.599267486E0
3.104152417E0,-3.845240110E-1,-8.446081985E0,4.808190282E-1,8.468491398E0
3.114138417E0,-5.582836720E-1,-8.031406222E0,1.407302016E-1,8.052016614E0
3.124123417E0,-7.764529359E-1,-7.720440769E0,2.471910417E-2,7.759426258E0
3.134109417E0,-1.035629016E0,-7.532064530E0,-7.526229009E-2,7.603301122E0
3.144094417E0,-1.564635971E0,-7.265581185E0,-2.008074188E-1,7.434855701E0
3.154079417E0,-2.207572415E0,-6.989533550E0,-2.832381029E-1,7.335337690E0
3.164065417E0,-2.932818945E0,-6.716926416E0,-3.092750233E-1,7.335814779E0
3.174050417E0,-4.125776069E0,-6.314623945E0,-2.692005461E-1,7.547779321E0
3.184035417E0,-5.855758435E0,-5.778754113E0,-3.115704940E-1,8.232920631E0
3.194021417E0,-8.076398792E0,-5.169132180E0,-3.889367585E-1,9.596844103E0
3.204006417E0,-1.009840573E1,-4.389669097E0,-7.046709086E-1,1.103374615E1
3.213992417E0,-1.166813872E1,-3.616114626E0,-1.148666365E0,1.226952242E1
3.223977417E0,-1.290781275E1,-3.148394676E0,-1.531828998E0,1.337424836E1
3.233962417E0,-1.382780899E1,-2.658321406E0,-1.967363095E0,1.421778786E1
3.243948417E0,-1.408777619E1,-2.282974015E0,-2.226040261E0,1.444412212E1
3.253933417E0,-1.382739033E1,-2.077895206E0,-2.410406479E0,1.418888407E1
3.263918417E0,-1.299954270E1,-1.777488070E0,-2.565678121E0,1.336900440E1
3.273904417E0,-1.178062277E1,-1.543749132E0,-2.276248548E0,1.209741880E1
3.283889417E0,-1.082156480E1,-1.410493426E0,-1.740426663E0,1.105101088E1
3.293874417E0,-1.001463150E1,-1.330665484E0,-1.167123686E0,1.016984230E1
3.303860417E0,-9.307690262E0,-1.374562286E0,-6.673687425E-1,9.432279710E0
3.313845417E0,-8.844904777E0,-1.424454238E0,-3.365768427E-1,8.965193493E0
3.323831417E0,-8.459615366E0,-1.536488060E0,-1.112030782E-1,8.598735594E0
3.333816417E0,-8.143090380E0,-1.703866362E0,-4.470196366E-3,8.319441177E0
3.343801417E0,-7.927431033E0,-1.869447815E0,-1.664848477E-3,8.144875732E0
3.353787417E0,-7.653644516E0,-2.146021115E0,9.416209906E-3,7.948821904E0
3.363772417E0,-7.429558162E0,-2.491479294E0,3.662929773E-2,7.836271132E0
3.373757417E0,-7.176491253E0,-2.852077083E0,-1.389283821E-2,7.722471328E0
3.383743417E0,-6.746947190E0,-3.199976474E0,-1.146719389E-1,7.468219030E0
3.393728417E0,-6.195327297E0,-3.565643215E0,-3.450851262E-2,7.148222345E0
3.403714417E0,-5.616969257E0,-3.947833017E0,2.780557157E-1,6.871174874E0
3.413699417E0,-5.068679354E0,-4.246294785E0,5.697404140E-1,6.636801483E0
3.423684417E0,-4.473970159E0,-4.558136736E0,7.164400381E-1,6.426998196E0
3.433670417E0,-3.963721656E0,-4.928658419E0,8.334328830E-1,6.379449314E0
3.443655417E0,-3.688454624E0,-5.372416479E0,1.061108696E0,6.602537997E0
3.453640417E0,-3.297805362E0,-5.729593062E0,1.313964082E0,6.740197213E0
3.463626417E0,-2.662148117E0,-6.073341515E0,1.489875372E0,6.796487209E0
3.473611417E0,-2.285372251E0,-6.472120453E0,1.436128789E0,7.012398690E0
3.483596417E0,-2.096192020E0,-6.905114374E0,1.279095966E0,7.328759239E0
3.493582417E0,-1.674874990E0,-7.226629958E0,1.100723144E0,7.499398524E0
3.503568000E0,-1.039516245E0,-7.452893815E0,9.907896423E-1,7.589985794E0
3.513554000E0,-7.044088072E-1,-7.721776857E0,1.122315742E0,7.834642444E0
3.523539000E0,-5.016139197E-1,-7.892755875E0,1.390405902E0,8.029971382E0
3.533524000E0,-1.317067784E-1,-7.955588885E0,1.717056073E0,8.139841690E0
3.543510000E0,3.067399995E-1,-7.927305903E0,2.103370939E0,8.207340471E0
3.553495000E0,5.365334916E-1,-7.901160663E0,2.416716794E0,8.279899037E0
3.563480000E0,2.221198621E-1,-7.823700258E0,2.472382287E0,8.208062935E0
3.573466000E0,-1.108254942E-1,-7.754082724E0,2.325132440E0,8.095944790E0
3.583451000E0,-6.340442911E-2,-7.762797414E0,2.100570708E0,8.042228616E0
3.593436000E0,1.875566049E-1,-7.628731284E0,1.836988020E0,7.849028187E0
3.603422000E0,5.530846202E-1,-7.360032429E0,1.562456129E0,7.544352133E0
3.613407000E0,1.080793202E0,-7.006889255E0,1.299129696E0,7.207797787E0
3.623393000E0,1.410748657E0,-6.543177572E0,1.066202352E0,6.777917967E0
3.633378000E0,1.519963536E0,-6.174176749E0,1.166834688E0,6.464692635E0
3.643363000E0,1.539853425E0,-5.919884264E0,1.528775582E0,6.305024429E0
3.653349000E0,2.090494494E0,-5.574082854E0,1.723236726E0,6.197589185E0
3.663334000E0,2.689814217E0,-5.012931415E0,1.391062544E0,5.856589186E0
3.673319000E0,2.964508515E0,-4.392227254E0,1.118631996E0,5.415838673E0
3.683305000E0,3.279506793E0,-3.922523929E0,1.062260159E0,5.222045138E0
3.693290000E0,3.564499499E0,-3.422172423E0,1.200495646E0,5.085087076E0
3.703276000E0,3.854360012E0,-2.767649136E0,1.752478066E0,5.058374464E0
3.713261000E0,4.462230120E0,-2.157298640E0,2.378736497E0,5.497619702E0
3.723246000E0,5.149784328E0,-1.728903555E0,2.431849388E0,5.951745758E0
3.733232000E0,5.957394737E0,-1.330046264E0,1.933631239E0,6.403007488E0
3.743217000E0,7.323271569E0,-8.090260202E-1,1.199576756E0,7.464838509E0
3.753202000E0,9.110638509E0,-2.088075793E-1,6.015019047E-1,9.132860406E0
3.763188000E0,1.115416378E1,4.044542456E-1,2.687789619E-1,1.116472996E1
3.773173000E0,1.289573007E1,1.123737785E0,8.514218420E-2,1.294487890E1
3.783158000E0,1.398431907E1,1.651982263E0,2.606504551E-1,1.408396833E1
3.793144000E0,1.458287865E1,1.898420768E0,5.834690917E-1,1.471749936E1
3.803129000E0,1.517183594E1,2.087015108E0,6.908520377E-1,1.533028096E1
3.813115000E0,1.556736617E1,2.080114809E0,6.554997718E-1,1.571939716E1
3.823100000E0,1.544505060E1,1.838846412E0,4.968955091E-1,1.556206443E1
3.833085000E0,1.488526858E1,1.432170224E0,2.910749799E-1,1.495683980E1
3.843071000E0,1.400809852E1,9.242027199E-1,1.587527820E-1,1.403945075E1
3.853056000E0,1.308477873E1,4.554027897E-1,1.911150742E-1,1.309409604E1
3.863041000E0,1.209899197E1,-1.312641442E-2,4.899037009E-1,1.210891344E1
3.873027000E0,1.112554985E1,-4.976530159E-1,9.115347272E-1,1.117391666E1
3.883012000E0,1.014271710E1,-1.022635333E0,1.268594659E0,1.027277107E1
3.892997000E0,9.334840638E0,-1.480460039E0,1.580467308E0,9.582739096E0
3.902983000E0,8.961726884E0,-1.911837789E0,1.888411505E0,9.355948401E0
3.912968000E0,8.586716877E0,-2.484753826E0,2.347281693E0,9.242047373E0
3.922954000E0,7.946230416E0,-3.204596944E0,2.808637241E0,9.016676913E0
3.932939000E0,7.222441013E0,-3.850682698E0,3.127770670E0,8.762097967E0
3.942924000E0,6.577556276E0,-4.261703952E0,3.412290921E0,8.548104847E0
3.952910000E0,5.851658367E0,-4.835773060E0,3.711580069E0,8.449996056E0
3.962895000E0,5.167096764E0,-5.622612405E0,4.014707330E0,8.627313265E0
3.972880000E0,4.330078368E0,-6.312775640E0,3.944964958E0,8.611821148E0
3.982866000E0,3.528829730E0,-6.895831919E0,3.616512529E0,8.548935605E0
3.992851000E0,2.494109956E0,-7.534453703E0,3.262889006E0,8.581085114E0
4.002837000E0,1.510019469E0,-7.852080889E0,2.944532087E0,8.520892107E0
4.012822000E0,7.412312092E-1,-8.032705473E0,2.740513963E0,8.519636008E0
4.022807000E0,3.059197814E-1,-8.271023950E0,2.698146792E0,8.705367322E0
4.032793000E0,-3.536396027E-3,-8.465827448E0,2.704367060E0,8.887285754E0
4.042778000E0,-3.667780770E-1,-8.601509748E0,2.551586332E0,8.979481550E0
4.052763000E0,-7.348097970E-1,-8.738656191E0,2.283901384E0,9.062023118E0
4.062749000E0,-1.154420172E0,-8.944188745E0,1.959750459E0,9.228858006E0
4.072734000E0,-1.891138061E0,-9.095058603E0,1.673293464E0,9.439089214E0
4.082719000E0,-2.782366870E0,-8.841165483E0,1.546114185E0,9.396714403E0
4.092705000E0,-3.197804818E0,-8.343399616E0,1.596689530E0,9.076766509E0
4.102690000E0,-3.269800707E0,-7.843707676E0,1.419287054E0,8.615667270E0
4.112676000E0,-3.103291594E0,-7.381482940E0,1.042624624E0,8.074885461E0
4.122661000E0,-3.160654241E0,-6.882269302E0,7.056028086E-1,7.606131822E0
4.132646000E0,-3.495907567E0,-6.473310946E0,6.878126550E-1,7.389060195E0
4.142632000E0,-4.019714593E0,-6.008557289E0,6.521901747E-1,7.258527270E0
4.152617000E0,-4.620373330E0,-5.313880003E0,2.665178436E-1,7.046715700E0
4.162602000E0,-5.359879464E0,-4.880304285E0,-1.557813732E-1,7.250513473E0
4.172588000E0,-5.907672939E0,-4.354397523E0,-5.637674832E-1,7.360652900E0
4.182573000E0,-6.210756930E0,-3.622281100E0,-8.712191986E-1,7.242475054E0
4.192558000E0,-6.487143120E0,-2.958901620E0,-8.201754910E-1,7.177103349E0
4.202544000E0,-6.675870776E0,-2.404218956E0,-5.560022347E-1,7.117349077E0
4.212529000E0,-7.084066070E0,-1.633789237E0,-4.561091334E-1,7.284318423E0
4.222515000E0,-7.712492648E0,-9.744390732E-1,-5.383255170E-1,7.792423803E0
4.232500000E0,-8.440383874E0,-4.357070285E-1,-8.505757499E-1,8.494315726E0
4.242485000E0,-9.007459127E0,1.224868888E-1,-1.352850990E0,9.109310004E0
4.252471000E0,-9.361475290E0,6.086056870E-1,-1.671561519E0,9.528994616E0
4.262456000E0,-9.623824069E0,1.039112787E0,-1.683415871E0,9.825051353E0
4.272441000E0,-9.519311521E0,1.367457919E0,-1.575053955E0,9.745154076E0
4.282427000E0,-9.340093192E0,1.551824722E0,-1.281445523E0,9.554454638E0
4.292412000E0,-9.252587855E0,1.645409408E0,-8.459950411E-1,9.435754435E0
4.302397000E0,-9.060752404E0,1.617231676E0,-3.395472282E-1,9.210209810E0
4.312383000E0,-8.828407443E0,1.468422961E0,2.015165399E-1,8.951963633E0
4.322368000E0,-8.454106119E0,1.202852367E0,6.755356948E-1,8.565927420E0
4.332354000E0,-8.027631844E0,8.544004136E-1,1.009903021E0,8.135894370E0
4.342339000E0,-7.619471049E0,5.006561458E-1,1.122477125E0,7.717962849E0
4.352324000E0,-7.168585818E0,6.941346645E-2,1.029592935E0,7.242479028E0
4.362310000E0,-6.793223224E0,-4.672977805E-1,9.603314960E-1,6.876662386E0
4.372295000E0,-6.524012738E0,-9.977215165E-1,9.643492641E-1,6.669944522E0
4.382280000E0,-6.175915126E0,-1.485928940E0,8.810374045E-1,6.412966503E0
4.392266000E0,-5.749720933E0,-2.082003459E0,7.403971039E-1,6.159725406E0
4.402251000E0,-5.393659998E0,-2.685950670E0,5.770418322E-1,6.053005572E0
4.412237000E0,-5.111279243E0,-3.199801642E0,3.965091951E-1,6.043271101E0
4.422222000E0,-4.680283609E0,-3.680816406E0,2.257785380E-1,5.958560231E0
4.432207000E0,-4.319751601E0,-4.115998939E0,1.428555914E-1,5.968425997E0
4.442193000E0,-3.960377341E0,-4.519771984E0,2.662313300E-1,6.015297715E0
4.452178000E0,-3.558540894E0,-4.944630089E0,5.301611960E-1,6.115034824E0
4.462163000E0,-3.307507647E0,-5.333064133E0,9.459057572E-1,6.346331033E0
4.472149000E0,-3.119751213E0,-5.708792762E0,1.271139659E0,6.628646805E0
4.482134000E0,-2.970341990E0,-5.944419181E0,1.415182309E0,6.794246971E0
4.492119000E0,-2.863972659E0,-6.200895016E0,1.513332355E0,6.995971213E0
4.502105000E0,-2.799728131E0,-6.524955309E0,1.716754210E0,7.304845269E0
4.512090125E0,-2.601808652E0,-6.665635809E0,2.114636185E0,7.461353443E0
4.522076125E0,-2.217186992E0,-6.789219051E0,2.546536676E0,7.582497117E0
4.532061125E0,-2.021390637E0,-7.005145615E0,2.802676882E0,7.811087178E0
4.542046125E0,-1.853558883E0,-7.180737501E0,2.661273081E0,7.879152620E0
4.552032125E0,-1.495290186E0,-7.329529844E0,2.035190797E0,7.752412660E0
4.562017125E0,-1.187651872E0,-7.414574087E0,1.284967155E0,7.618239065E0
4.572002125E0,-1.043057099E0,-7.610872133E0,7.098975885E-1,7.714745448E0
4.581988125E0,-8.437271985E-1,-7.736760932E0,4.344966549E-1,7.794750326E0
4.591973125E0,-5.297064288E-1,-7.766903914E0,4.611986960E-1,7.798595357E0
4.601958125E0,-3.714567997E-1,-7.719422184E0,6.493941092E-1,7.755589708E0
4.611944125E0,1.641029844E-1,-7.466323115E0,1.205471188E0,7.564791566E0
4.621929125E0,6.902506515E-1,-7.200718607E0,1.804282204E0,7.455348998E0
4.631915125E0,8.317909849E-1,-6.998913653E0,1.917811890E0,7.304428178E0
4.641900125E0,1.021228493E0,-6.712039897E0,1.623242029E0,6.980637643E0
4.651885125E0,1.293656410E0,-6.245401683E0,1.590192981E0,6.573226210E0
4.661871125E0,1.565193796E0,-5.707820370E0,1.797052268E0,6.185340884E0
4.671856125E0,2.216359904E0,-5.065073376E0,1.965757889E0,5.867829548E0
4.681841125E0,2.754023077E0,-4.391940740E0,1.925024138E0,5.529873824E0
4.691827125E0,2.921670644E0,-3.833860259E0,2.004427280E0,5.220380499E0
4.701812125E0,3.204005790E0,-3.391743513E0,2.325102620E0,5.213029767E0
4.711797125E0,4.009107159E0,-2.806179948E0,2.248377210E0,5.385423493E0
4.721783125E0,5.537430752E0,-1.987458075E0,1.848078580E0,6.166727120E0
4.731768125E0,7.894928116E0,-9.859469783E-1,1.576810459E0,8.110999483E0
4.741754125E0,1.042527678E1,3.625390649E-2,1.771537943E0,1.057478401E1
4.751739125E0,1.295186568E1,1.241342248E0,2.172038594E0,1.319126630E1
4.761724125E0,1.474420567E1,2.147032099E0,2.654616610E0,1.513434297E1
4.771710125E0,1.583379455E1,2.490095258E0,3.020202659E0,1.631046438E1
4.781695125E0,1.602438103E1,2.498183711E0,3.267018602E0,1.654373355E1
4.791680125E0,1.541330022E1,2.376867435E0,3.348794252E0,1.595097945E1
4.801666125E0,1.472833165E1,2.192228737E0,3.166099753E0,1.522346241E1
4.811651125E0,1.426541110E1,1.845571294E0,2.570827472E0,1.461222916E1
4.821637125E0,1.400642037E1,1.443560600E0,1.760987227E0,1.419030496E1
4.831622125E0,1.351423334E1,9.452100116E-1,9.865691221E-1,1.358312347E1
4.841607125E0,1.243690607E1,5.637575430E-1,6.978616798E-1,1.246922075E1
4.851593125E0,1.145176016E1,1.255461520E-1,1.079808238E0,1.150324122E1
4.861578125E0,1.060537570E1,-4.450426930E-1,1.646683224E0,1.074167688E1
4.871563125E0,9.763167311E0,-9.937126654E-1,2.176955225E0,1.005216568E1
4.881549125E0,9.033741192E0,-1.499495650E0,2.479448647E0,9.487077143E0
4.891534125E0,8.467454728E0,-1.971099320E0,2.498335446E0,9.045700752E0
4.901519125E0,7.945898294E0,-2.613655695E0,2.571196139E0,8.750973968E0
4.911505125E0,7.300410125E0,-3.313469176E0,2.698979436E0,8.459288148E0
4.921490125E0,6.575172951E0,-3.828582562E0,2.780077101E0,8.100603216E0
4.931476125E0,5.916891659E0,-4.365726503E0,3.112995633E0,7.984980690E0
4.941461125E0,5.315731816E0,-4.891622740E0,3.539498852E0,8.044440931E0
4.951446125E0,4.520159362E0,-5.298273785E0,3.786484656E0,7.927232292E0
4.961432125E0,3.788065743E0,-5.558588902E0,3.873458188E0,7.762153760E0
4.971417125E0,3.438264253E0,-5.665966001E0,3.866218458E0,7.672840215E0
4.981402125E0,3.165224133E0,-5.958630254E0,3.978436174E0,7.832743626E0
4.991388125E0,2.947518845E0,-6.384531502E0,4.116087525E0,8.148146191E0
5.001373125E0,2.730443011E0,-6.703937995E0,4.118489268E0,8.328268580E0
5.011358125E0,2.580737041E0,-7.045344054E0,3.909299866E0,8.460478825E0
5.021344125E0,2.520247010E0,-7.557681182E0,3.358869297E0,8.645935045E0
5.031329125E0,2.311826516E0,-8.371014846E0,2.806938917E0,9.126737505E0
5.041315125E0,1.598977107E0,-8.986117959E0,2.089025965E0,9.363283251E0
5.051300125E0,1.069334705E0,-9.139070011E0,1.161917179E0,9.274488067E0
5.061285125E0,8.753552265E-1,-9.599734125E0,5.786125405E-1,9.656911231E0
5.071271125E0,5.142193472E-1,-1.011041825E1,-9.051767573E-2,1.012389115E1
5.081256125E0,-2.592857149E-1,-1.013210908E1,-6.168637097E-1,1.015418063E1
5.091241125E0,-9.874719322E-1,-9.920767314E0,-5.669413519E-1,9.985897427E0
5.101227125E0,-1.603209176E0,-9.769966453E0,-4.614916416E-1,9.911382280E0
5.111212125E0,-1.958325493E0,-9.642843307E0,-6.662212265E-1,9.862216612E0
5.121197125E0,-2.160736218E0,-9.501144222E0,-9.270506063E-1,9.787744651E0
5.131183125E0,-2.562235866E0,-9.163228952E0,-9.513188902E-1,9.562155880E0
5.141168125E0,-2.809870126E0,-8.772934908E0,-6.530223066E-1,9.235052526E0
5.151154125E0,-3.193780764E0,-8.457999195E0,-2.505607921E-1,9.044377628E0
5.161139125E0,-3.911648108E0,-7.986861548E0,1.357483739E-1,8.894345166E0
5.171124125E0,-4.744579884E0,-7.141439534E0,3.786165690E-1,8.582222755E0
5.181110125E0,-5.786581780E0,-6.231634414E0,5.279527026E-1,8.520359747E0
5.191095125E0,-7.071080573E0,-5.555241956E0,5.501776770E-1,9.009083701E0
5.201080125E0,-8.499778136E0,-4.764214250E0,1.919627742E-1,9.745810150E0
5.211066125E0,-9.580197993E0,-3.690584764E0,-4.320747381E-1,1.027556802E1
5.221051125E0,-1.031531989E1,-2.602331393E0,-1.052928588E0,1.069049165E1
5.231036125E0,-1.087850148E1,-1.831531545E0,-1.501919028E0,1.113337608E1
5.241022125E0,-1.147090862E1,-1.377114596E0,-1.721338427E0,1.168080456E1
5.251007125E0,-1.203841248E1,-9.584258884E-1,-1.792684398E0,1.220883584E1
5.260993125E0,-1.235795229E1,-4.573154140E-1,-1.720644070E0,1.248554116E1
5.270978125E0,-1.223099052E1,-8.190808922E-2,-1.644038236E0,1.234126006E1
5.280963125E0,-1.179339777E1,2.100018731E-1,-1.342099714E0,1.187137580E1
5.290949125E0,-1.116556000E1,3.864828283E-1,-8.924906382E-1,1.120783827E1
5.300934125E0,-1.052275688E1,3.582916474E-1,-3.416756147E-1,1.053439734E1
5.310919125E0,-9.993282144E0,2.927718419E-1,2.667447156E-1,1.000112774E1
5.320905125E0,-9.349100243E0,1.929931998E-1,1.012766402E0,9.405775753E0
5.330890125E0,-8.841580635E0,-2.651946187E-2,1.675976897E0,8.999063839E0
5.340875125E0,-8.413261564E0,-3.438379151E-1,1.914886235E0,8.635275557E0
5.350861125E0,-7.989711481E0,-6.589151305E-1,1.773677147E0,8.210699685E0
5.360846125E0,-7.706334361E0,-9.702214766E-1,1.454835494E0,7.902244321E0
5.370832125E0,-7.387113224E0,-1.353053303E0,1.175947866E0,7.601516191E0
5.380817125E0,-6.945027468E0,-1.740827197E0,8.482234150E-1,7.209949294E0
5.390802125E0,-6.460885613E0,-2.210508302E0,5.438378334E-1,6.850193388E0
5.400788125E0,-6.183655670E0,-2.742583877E0,2.732085201E-1,6.770081733E0
5.410773125E0,-5.920823327E0,-3.327617683E0,1.935808450E-2,6.791874782E0
5.420758125E0,-5.645058696E0,-3.822034850E0,-4.052032739E-2,6.817351390E0
5.430744125E0,-5.424342678E0,-4.304883885E0,1.030622922E-1,6.925759207E0
5.440729125E0,-5.164185435E0,-4.828705530E0,2.373441844E-1,7.074004564E0
5.450714125E0,-4.767405660E0,-5.355411022E0,2.153696170E-1,7.173211834E0
5.460700125E0,-4.298507204E0,-5.831686032E0,5.976468354E-2,7.244949826E0
5.470685125E0,-3.813587670E0,-6.280836394E0,-5.977550089E-2,7.348192284E0
5.480671125E0,-3.341786949E0,-6.803265817E0,9.772904679E-2,7.580337509E0
5.490656125E0,-2.919444609E0,-7.293212203E0,4.481996047E-1,7.868607497E0
5.500641125E0,-2.437354542E0,-7.686299461E0,8.216720858E-1,8.105247781E0
5.510626875E0,-1.806401674E0,-7.865060538E0,1.083690643E0,8.142275461E0
5.520611875E0,-1.215594619E0,-7.949677935E0,1.141156494E0,8.122640438E0
5.530596875E0,-9.957637225E-1,-8.129782117E0,1.127551777E0,8.267785415E0
5.540582875E0,-1.051057113E0,-8.439896216E0,1.049232270E0,8.569565773E0
5.550567875E0,-1.107167141E0,-8.639531268E0,1.007743059E0,8.768287500E0
5.560552875E0,-1.143661733E0,-8.706021711E0,1.145402157E0,8.855208767E0
5.570538875E0,-1.128055880E0,-8.778550574E0,1.474858845E0,8.972773755E0
5.580523875E0,-9.139403448E-1,-8.821645138E0,1.715119621E0,9.033180238E0
5.590509875E0,-4.648445812E-1,-8.708662899E0,1.685226316E0,8.882391440E0
5.600494875E0,9.499094188E-2,-8.503928490E0,1.598128238E0,8.653313637E0
5.610479875E0,2.575765738E-1,-8.508825533E0,1.566160048E0,8.655594430E0
5.620465875E0,3.660210818E-1,-8.399351622E0,1.572619759E0,8.553140477E0
5.630450875E0,7.966644216E-1,-7.906645936E0,1.512014977E0,8.089246779E0
5.640435875E0,1.550119381E0,-7.377263004E0,1.339557637E0,7.656454414E0
5.650421875E0,2.151624794E0,-6.954540887E0,1.176217715E0,7.374185807E0
5.660406875E0,2.755568789E0,-6.623993694E0,9.297452956E-1,7.234284907E0
5.670391875E0,3.750982409E0,-6.151319398E0,4.193017879E-1,7.216953191E0
5.680377875E0,4.912585593E0,-5.203526087E0,-2.112224793E-1,7.159245483E0
5.690362875E0,5.981542568E0,-4.124273919E0,-1.850924420E-1,7.267925843E0
5.700348875E0,6.429788951E0,-3.428064662E0,5.773075882E-1,7.309384196E0
5.710333875E0,6.353928344E0,-3.030799568E0,1.590245314E0,7.217134583E0
5.720318875E0,6.225269719E0,-2.381396688E0,2.489533340E0,7.114970802E0
5.730304875E0,6.334295148E0,-1.399432833E0,2.986918554E0,7.141665753E0
5.740289875E0,7.018455632E0,-7.743409216E-1,3.156973419E0,7.734649604E0
5.750274875E0,7.584327528E0,-5.143555874E-1,2.741911155E0,8.081130027E0
5.760260875E0,7.669643083E0,-4.324191391E-1,1.642142861E0,7.855383154E0
5.770245875E0,7.847277986E0,-1.796469301E-1,4.801034752E-1,7.864003062E0
5.780230875E0,8.250116061E0,7.668506384E-2,-3.305998188E-1,8.257093427E0
5.790216875E0,8.496924110E0,1.357162142E-1,-9.574999818E-1,8.551780191E0
5.800201875E0,8.827490015E0,1.664339769E-1,-1.528169518E0,8.960333828E0
5.810187875E0,9.673014355E0,2.553777283E-1,-2.002800584E0,9.881479377E0
5.820172875E0,1.064965783E1,5.329263443E-1,-2.068852487E0,1.086183101E1
5.830157875E0,1.131723444E1,5.516596538E-1,-1.692462830E0,1.145637614E1
5.840143875E0,1.156484531E1,4.489521414E-1,-1.157302557E0,1.163127484E1
5.850128875E0,1.155718195E1,1.612855035E-1,-6.630017495E-1,1.157730707E1
5.860113875E0,1.138079367E1,-5.744304657E-3,-4.546221864E-1,1.138987177E1
5.870099875E0,1.118576681E1,-7.863394082E-2,-3.880376029E-1,1.119277158E1
5.880084875E0,1.076288214E1,-3.391437703E-1,-1.596181700E-1,1.076940706E1
5.890069875E0,1.018188292E1,-6.866110522E-1,6.944445670E-2,1.020524360E1
5.900055875E0,9.430195277E0,-1.107994741E0,1.713514853E-1,9.496609744E0
5.910040875E0,8.592706765E0,-1.645032263E0,3.237115064E-1,8.754743276E0
5.920025875E0,7.955566666E0,-2.158741148E0,4.531337777E-1,8.255697096E0
5.930011875E0,7.372256033E0,-2.548382642E0,6.860198987E-1,7.830391843E0
5.939996875E0,6.781244034E0,-2.885350079E0,1.039091152E0,7.442461027E0
5.949982875E0,6.227613868E0,-3.305080760E0,1.538394252E0,7.216189451E0
5.959967875E0,5.820896165E0,-3.714023328E0,1.939992718E0,7.172194448E0
5.969952875E0,5.481498041E0,-4.099586974E0,2.300788727E0,7.221292329E0
5.979938875E0,4.966592231E0,-4.518702528E0,2.728656979E0,7.247846565E0
5.989923875E0,4.576704569E0,-4.981597356E0,3.196011477E0,7.481779620E0
5.999908875E0,4.360069614E0,-5.305356517E0,3.373166909E0,7.650834582E0
6.009894875E0,4.171291672E0,-5.769894996E0,3.352901629E0,7.869772031E0
6.019879875E0,3.652606806E0,-6.354578555E0,3.368797284E0,8.066659794E0
6.029864875E0,2.801008379E0,-7.075662451E0,3.594219142E0,8.416000137E0
6.039850875E0,1.754390837E0,-7.586003340E0,3.582125931E0,8.570703593E0
6.049835875E0,1.322156762E0,-7.562256044E0,3.351015902E0,8.376462412E0
6.059821875E0,1.308299007E0,-7.703057581E0,3.211117759E0,8.447485996E0
6.069806875E0,1.396253117E0,-8.014459237E0,3.039126003E0,8.684317273E0
6.079791875E0,1.446335689E0,-8.273254078E0,2.813913476E0,8.857580314E0
6.089777875E0,1.138284634E0,-8.301189736E0,2.618448073E0,8.778480122E0
6.099762875E0,7.683348079E-1,-8.266672452E0,2.320523080E0,8.620501098E0
6.109747875E0,4.639860637E-1,-8.356843534E0,2.122598777E0,8.634670954E0
6.119733875E0,3.986690104E-2,-8.420698053E0,1.794853715E0,8.609950344E0
6.129718875E0,-4.517520806E-1,-8.270663177E0,1.111067453E0,8.357177766E0
6.139703875E0,-8.426948726E-1,-7.916030717E0,4.906803574E-1,7.975866359E0
6.149689875E0,-1.271815890E0,-7.619445906E0,1.457069130E-1,7.726234663E0
6.159674875E0,-1.836328016E0,-7.338286049E0,-3.516734764E-2,7.564640075E0
6.169660875E0,-2.179695815E0,-6.983845963E0,-1.800059491E-1,7.318304477E0
6.179645875E0,-2.573337389E0,-6.506644753E0,-1.183211862E-1,6.998034807E0
6.189630875E0,-3.135417951E0,-5.904644666E0,-2.054126859E-3,6.685482673E0
6.199616875E0,-3.737871782E0,-5.484573677E0,1.502042989E-1,6.638885088E0
6.209601875E0,-4.479677042E0,-5.160328612E0,1.300473386E-1,6.834720923E0
6.219586875E0,-5.385952199E0,-4.702736040E0,-1.841258973E-1,7.152489755E0
6.229572875E0,-6.448661424E0,-4.300016078E0,-5.658280420E-1,7.771456350E0
6.239557875E0,-7.600161204E0,-3.940153869E0,-1.038180740E0,8.623519124E0
6.249542875E0,-8.590411148E0,-3.506873435E0,-1.516585307E0,9.401774087E0
6.259528875E0,-9.587377789E0,-3.023906870E0,-1.684515002E0,1.019310632E1
6.269513875E0,-1.045131793E1,-2.671358943E0,-1.635016567E0,1.091052173E1
6.279499875E0,-1.115802411E1,-2.296843611E0,-1.730640178E0,1.152267799E1
6.289484875E0,-1.182716076E1,-2.061168076E0,-1.766562547E0,1.213469772E1
6.299469875E0,-1.227835531E1,-2.023125506E0,-1.693985006E0,1.255868748E1
6.309455875E0,-1.227244962E1,-1.941043462E0,-1.784615241E0,1.255251055E1
6.319440875E0,-1.192383161E1,-1.865858209E0,-1.987223017E0,1.223144482E1
6.329425875E0,-1.145872069E1,-1.863114111E0,-1.851368955E0,1.175589388E1
6.339411875E0,-1.071685403E1,-1.933776543E0,-1.546175142E0,1.099914131E1
6.349396875E0,-9.925453273E0,-2.035191820E0,-1.267973977E0,1.021099341E1
6.359381875E0,-9.286974161E0,-2.233190237E0,-7.738189115E-1,9.582996578E0
6.369367875E0,-8.592285181E0,-2.377519984E0,-1.213232929E-1,8.915979208E0
6.379352875E0,-8.025136253E0,-2.511146404E0,3.757850549E-1,8.417237227E0
6.389338875E0,-7.642406167E0,-2.736562999E0,6.781179714E-1,8.145857417E0
6.399323875E0,-7.635221109E0,-2.958071315E0,8.890789340E-1,8.236337089E0
6.409308875E0,-7.736774381E0,-3.136155285E0,8.298830384E-1,8.389389349E0
6.419294875E0,-7.768925881E0,-3.383362699E0,5.381099010E-1,8.490754664E0
6.429279875E0,-7.451368861E0,-3.700780554E0,1.620484190E-1,8.321354115E0
6.439264875E0,-6.702400178E0,-4.095429019E0,-6.001289785E-2,7.854827085E0
6.449250875E0,-5.813011780E0,-4.505909405E0,-1.269285800E-1,7.355979635E0
6.459235875E0,-4.825387820E0,-4.885798329E0,4.664323926E-3,6.866980026E0
6.469220875E0,-3.810970749E0,-5.199281008E0,2.879168987E-1,6.452822420E0
6.479206875E0,-2.843802396E0,-5.448872917E0,6.064439714E-1,6.176180245E0
6.489191875E0,-2.178889191E0,-5.838446583E0,9.520033067E-1,6.304072248E0
6.499176875E0,-1.538525814E0,-6.070151274E0,1.109792175E0,6.359672700E0
6.509162792E0,-7.985369924E-1,-6.231691716E0,1.160378046E0,6.388906024E0
6.519147792E0,-3.371215108E-1,-6.455387476E0,1.235263337E0,6.581151411E0
6.529133792E0,-1.757544386E-1,-6.565211050E0,1.342687359E0,6.703409215E0
6.539118792E0,-1.364782526E-1,-6.634124579E0,1.427834514E0,6.787410894E0
6.549103792E0,-2.998854914E-1,-6.947889680E0,1.519384954E0,7.118401011E0
6.559089792E0,-5.462918733E-1,-7.152484340E0,1.424273852E0,7.313345544E0
6.569074792E0,-5.563617288E-1,-7.373112066E0,1.214119366E0,7.493090534E0
6.579059792E0,-5.158430825E-1,-7.654937335E0,1.096765748E0,7.750293852E0
6.589045792E0,-5.922661545E-1,-7.857758535E0,1.007541330E0,7.944198382E0
6.599030792E0,-2.929260622E-1,-7.942489952E0,1.085089151E0,8.021618963E0
6.609015792E0,1.232372327E-1,-7.829265053E0,1.482569422E0,7.969353222E0
6.619001792E0,5.931662603E-1,-7.557389406E0,2.119464523E0,7.871347452E0
6.628986792E0,7.693014988E-1,-7.326447192E0,2.468082245E0,7.769175196E0
6.638971792E0,1.140008247E0,-6.971264509E0,2.135423914E0,7.379578779E0
6.648957792E0,1.764888782E0,-6.537012268E0,1.787182022E0,7.002955189E0
6.658942792E0,2.393030308E0,-6.038930651E0,1.822185355E0,6.746527769E0
6.668928792E0,2.795151515E0,-5.521648532E0,1.932408879E0,6.483492776E0
6.678913792E0,3.309734559E0,-4.847365165E0,1.794800506E0,6.137800970E0
6.688898792E0,3.827110233E0,-4.319940466E0,1.645995592E0,6.001496468E0
6.698884792E0,4.127961173E0,-3.968214657E0,1.456529725E0,5.908322084E0
6.708869792E0,4.305314825E0,-3.528693489E0,1.178008424E0,5.689913649E0
6.718854792E0,4.732866742E0,-3.017724609E0,7.360200244E-1,5.661131944E0
6.728840792E0,5.443734968E0,-2.410284272E0,4.342437628E-1,5.969278711E0
6.738825792E0,5.930339670E0,-1.852117837E0,3.201946986E-1,6.221076573E0
6.748810792E0,6.383514086E0,-1.158191918E0,5.604550356E-1,6.511894536E0
6.758796792E0,6.674325356E0,-4.813351911E-1,1.120509537E0,6.784824548E0
6.768781792E0,7.106461490E0,5.248051465E-2,1.847190388E0,7.342796569E0
6.778767792E0,7.842059931E0,4.717135978E-1,2.351703942E0,8.200666382E0
6.788752792E0,8.838813148E0,9.298365122E-1,2.483593154E0,9.228079365E0
6.798737792E0,1.022127912E1,1.397619612E0,2.231745390E0,1.055502605E1
6.808723792E0,1.171256469E1,1.775627486E0,1.612605359E0,1.195564806E1
6.818708792E0,1.283669190E1,2.025946788E0,9.025484338E-1,1.302688424E1
6.828693792E0,1.361811380E1,2.122251014E0,3.317716008E-1,1.378648052E1
6.838679792E0,1.401292482E1,2.157047210E0,2.786730355E-1,1.418071131E1
6.848664792E0,1.369572506E1,2.041098093E0,8.148387372E-1,1.387093827E1
6.858649792E0,1.280529001E1,1.782368740E0,1.434234291E0,1.300804823E1
6.868635792E0,1.173575592E1,1.443565278E0,1.824489743E0,1.196413852E1
6.878620792E0,1.071503204E1,1.014178505E0,1.960708525E0,1.094005702E1
6.888605792E0,9.967676017E0,5.795228058E-1,1.890711799E0,1.016194878E1
6.898591792E0,9.263027474E0,1.118899798E-1,1.767390513E0,9.430793529E0
6.908576792E0,8.458180459E0,-3.830867654E-1,1.766258492E0,8.649117944E0
6.918562792E0,7.853554387E0,-7.342430556E-1,1.884306467E0,8.109749702E0
6.928547792E0,7.422321063E0,-1.117835020E0,2.123676565E0,7.800667103E0
6.938532792E0,7.052697512E0,-1.521506324E0,2.440567587E0,7.616553934E0
6.948518792E0,6.766725397E0,-1.887543193E0,2.833660693E0,7.575026391E0
6.958503792E0,6.498399010E0,-2.425038552E0,3.450829627E0,7.747143137E0
6.968488792E0,5.748274916E0,-3.132991356E0,3.947213212E0,7.644526898E0
6.978474792E0,4.459795047E0,-3.796802360E0,3.876340865E0,7.023638553E0
6.988459792E0,3.492734575E0,-4.211351824E0,3.435781817E0,6.460594067E0
6.998444792E0,3.049995685E0,-4.671194404E0,2.911647931E0,6.292870928E0
7.008430792E0,2.790048358E0,-5.075393711E0,2.515265475E0,6.314313230E0
7.018415792E0,2.503117592E0,-5.447924498E0,2.545766306E0,6.513555488E0
7.028401792E0,2.166641029E0,-5.892944972E0,2.907085349E0,6.918979622E0
7.038386792E0,1.780165656E0,-6.669825339E0,3.325027367E0,7.662334292E0
7.048371792E0,1.233442952E0,-7.206645344E0,3.704045055E0,8.196161809E0
7.058357792E0,9.018955922E-1,-7.468303567E0,3.939028280E0,8.491461454E0
7.068342792E0,6.222109884E-1,-7.976470461E0,4.008946361E0,8.948903758E0
7.078327792E0,4.692134745E-1,-8.527675202E0,3.920413669E0,9.397395861E0
7.088313792E0,8.316655621E-2,-8.856071790E0,3.235348620E0,9.428913242E0
7.098298792E0,-2.725786288E-1,-9.028503256E0,2.435410928E0,9.355180198E0
7.108283792E0,-6.983722879E-1,-9.234125857E0,1.363526251E0,9.360342303E0
7.118269792E0,-1.345465664E0,-8.995640150E0,-1.517456981E-1,9.096969073E0
7.128254792E0,-1.593965313E0,-8.501120657E0,-1.560120751E0,8.788842620E0
7.138240792E0,-1.338911228E0,-8.002919757E0,-2.615441435E0,8.525253181E0
7.148225792E0,-1.085168965E0,-7.472719384E0,-3.130782278E0,8.174406667E0
7.158210792E0,-6.488330689E-1,-6.874652719E0,-3.007864450E0,7.531871142E0
7.168196792E0,-1.197881064E-1,-6.285294312E0,-2.389122614E0,6.725115660E0
7.178181792E0,-3.577238828E-2,-5.787234914E0,-1.520592404E0,5.983775470E0
7.188166792E0,-3.620946765E-2,-5.517525660E0,-5.097795564E-1,5.541143901E0
7.198152792E0,-1.700516492E-1,-5.458161219E0,2.590000784E-1,5.466948188E0
7.208137792E0,-7.945658559E-1,-5.519487401E0,8.527058905E-1,5.641204074E0
7.218122792E0,-1.640381387E0,-5.145825178E0,9.670002455E-1,5.486844023E0
7.228108792E0,-2.390198502E0,-4.454665577E0,6.537409294E-1,5.097496590E0
7.238093792E0,-3.144085279E0,-4.074547443E0,3.163419682E-1,5.156285615E0
7.248079792E0,-4.108674717E0,-3.558379803E0,-2.050736935E-1,5.439239834E0
7.258064792E0,-5.206647331E0,-3.081287937E0,-6.743659593E-1,6.087551332E0
7.268049792E0,-6.224427720E0,-2.798804271E0,-9.325445040E-1,6.888137995E0
7.278035792E0,-7.222202446E0,-2.455913604E0,-9.804963501E-1,7.691104791E0
7.288020792E0,-8.289801698E0,-1.985636083E0,-9.734644885E-1,8.579696729E0
7.298005792E0,-9.349055804E0,-1.565962120E0,-1.100329626E0,9.542945409E0
7.307991792E0,-1.010581766E1,-1.123078219E0,-1.366240236E0,1.025940873E1
7.317976792E0,-1.069717230E1,-6.950064844E-1,-1.630370370E0,1.084299944E1
7.327961792E0,-1.101871654E1,-3.309336948E-1,-1.718756297E0,1.115687028E1
7.337947792E0,-1.087404590E1,1.010281920E-2,-1.569731527E0,1.098676628E1
7.347932792E0,-1.070794521E1,3.250543195E-1,-1.298428615E0,1.079127740E1
7.357917792E0,-1.029489205E1,4.579550993E-1,-7.926997170E-1,1.033551634E1
7.367903792E0,-9.645591499E0,5.425929612E-1,-9.936436683E-2,9.661351653E0
7.377888792E0,-9.101494634E0,5.908921319E-1,5.657941282E-1,9.138188063E0
7.387873792E0,-8.809519767E0,5.250144768E-1,1.108890535E0,8.894544224E0
7.397859792E0,-8.636915808E0,2.527564216E-1,1.459493971E0,8.763008795E0
7.407844792E0,-8.478134083E0,-2.143940091E-2,1.426256058E0,8.597291638E0
7.417830792E0,-8.246294321E0,-2.813972533E-1,1.003585104E0,8.311903362E0
7.427815792E0,-7.976031336E0,-7.433664662E-1,4.924007544E-1,8.025716670E0
7.437800792E0,-7.773949224E0,-1.254403174E0,-4.794249058E-2,7.874649982E0
7.447786792E0,-7.358633775E0,-1.754116164E0,-4.557278949E-1,7.578529044E0
7.457771792E0,-6.788457744E0,-2.329000958E0,-5.155706388E-1,7.195360803E0
7.467756792E0,-6.142284281E0,-2.855700603E0,-4.929664725E-1,6.791590245E0
7.477742792E0,-5.468058801E0,-3.223474680E0,-5.245659953E-1,6.369114973E0
7.487727792E0,-4.919862453E0,-3.610401896E0,-5.454373392E-1,6.126789559E0
7.497712792E0,-4.368707998E0,-4.004297240E0,-5.720029941E-1,5.953754562E0
7.507699000E0,-3.941295830E0,-4.389108934E0,-4.189863306E-1,5.913851503E0
7.517684000E0,-3.428966888E0,-4.701526836E0,6.923264131E-2,5.819532770E0
7.527670000E0,-3.082009191E0,-5.088700805E0,5.545111947E-1,5.975043029E0
7.537655000E0,-2.895021374E0,-5.269203767E0,7.994089584E-1,6.065040130E0
7.547640000E0,-2.755333438E0,-5.465213546E0,9.064184135E-1,6.187246221E0
7.557626000E0,-2.632650375E0,-5.830588510E0,8.783143562E-1,6.457402456E0
7.567611000E0,-2.351707451E0,-6.141145243E0,9.245599848E-1,6.640708094E0
7.577596000E0,-2.008594590E0,-6.477273020E0,1.049610293E0,6.862302803E0
7.587582000E0,-1.804756852E0,-6.786501850E0,1.143936699E0,7.114938216E0
7.597567000E0,-1.804154735E0,-6.936860662E0,1.123323802E0,7.255126912E0
7.607552000E0,-1.806249939E0,-7.135478883E0,1.067277947E0,7.437518400E0
7.617538000E0,-1.652661417E0,-7.367763033E0,1.071156990E0,7.626440793E0
7.627523000E0,-1.601918257E0,-7.628636559E0,8.968994388E-1,7.846442918E0
7.637508000E0,-1.621285112E0,-7.914254918E0,6.322491959E-1,8.103316319E0
7.647494000E0,-1.642165373E0,-8.194639433E0,4.614265913E-1,8.370288947E0
7.657479000E0,-1.639596106E0,-8.453536600E0,5.139246476E-1,8.626394090E0
7.667465000E0,-1.479015631E0,-8.603886057E0,8.683372521E-1,8.773160895E0
7.677450000E0,-1.169128039E0,-8.621569791E0,1.381471649E0,8.809471604E0
7.687435000E0,-7.548765640E-1,-8.599707052E0,1.938489691E0,8.847742214E0
7.697421000E0,1.166199388E-1,-8.370787389E0,2.749796417E0,8.811643551E0
7.707406000E0,1.051911172E0,-7.861667984E0,3.366672991E0,8.616659888E0
7.717391000E0,1.992625844E0,-7.218748496E0,3.531613881E0,8.279685031E0
7.727377000E0,3.285297291E0,-6.395784468E0,3.250832340E0,7.890953564E0
7.737362000E0,4.459500347E0,-5.480881160E0,2.702067935E0,7.564943672E0
7.747347000E0,5.492483790E0,-4.691694742E0,2.445005624E0,7.626101903E0
7.757333000E0,6.800007749E0,-3.600192073E0,2.322064991E0,8.037006543E0
7.767318000E0,7.829042859E0,-2.505493900E0,2.273740677E0,8.528851531E0
7.777304000E0,8.888781699E0,-1.529433979E0,2.630619930E0,9.395199285E0
7.787289000E0,9.881496245E0,-7.271609080E-1,2.975613547E0,1.034538578E1
7.797274000E0,1.048360743E1,1.115765691E-2,2.953625677E0,1.089174246E1
7.807260000E0,1.094683204E1,5.539388984E-1,2.489588304E0,1.124001912E1
7.817245000E0,1.112220173E1,8.575128865E-1,1.815612500E0,1.130199754E1
7.827230000E0,1.116020980E1,9.398878759E-1,1.344269031E0,1.128010334E1
7.837216000E0,1.152026848E1,1.133515499E0,1.085425658E0,1.162667588E1
7.847201000E0,1.191911641E1,1.300396788E0,1.047133997E0,1.203548327E1
7.857186000E0,1.214327878E1,1.493518626E0,1.129716855E0,1.228682537E1
7.867172000E0,1.238755323E1,1.598083799E0,1.185907720E0,1.254638291E1
7.877157000E0,1.232248308E1,1.524463845E0,1.124506693E0,1.246724085E1
7.887142000E0,1.200052018E1,1.365841749E0,1.049736593E0,1.212352899E1
7.897128000E0,1.172166296E1,1.219623351E0,1.114487489E0,1.183752280E1
7.907113000E0,1.143832911E1,1.046498989E0,1.335017859E0,1.156342534E1
7.917099000E0,1.089972687E1,7.288858366E-1,1.681206647E0,1.105268186E1
7.927084000E0,1.015315321E1,3.031243372E-1,1.861193300E0,1.032678289E1
7.937069000E0,9.267127542E0,-1.775986505E-1,1.841277099E0,9.449946852E0
7.947055000E0,8.687007735E0,-5.279901248E-1,1.862355142E0,8.900069867E0
7.957040000E0,8.382714540E0,-9.119989961E-1,2.002694750E0,8.666742842E0
7.967025000E0,8.016281229E0,-1.294217450E0,2.210277337E0,8.415526690E0
7.977011000E0,7.654239178E0,-1.573910825E0,2.377853276E0,8.168155170E0
7.986996000E0,7.114797866E0,-2.109424562E0,2.598797336E0,7.862809183E0
7.996981000E0,6.477472994E0,-2.710697256E0,2.956793114E0,7.618934409E0
8.006967000E0,6.040088400E0,-3.197094381E0,3.487816190E0,7.672609864E0
8.016952000E0,5.761262752E0,-3.632857543E0,3.879853873E0,7.838562910E0
8.026938000E0,5.684549037E0,-4.090998584E0,3.942473459E0,8.037005919E0
8.036923000E0,5.483080298E0,-4.612863750E0,3.755370160E0,8.089838476E0
8.046908000E0,4.752394103E0,-5.253829683E0,3.466577056E0,7.887023047E0
8.056894000E0,3.817065302E0,-6.133895865E0,3.297183511E0,7.941415812E0
8.066879000E0,2.906329596E0,-6.860100753E0,3.156187261E0,8.091307193E0
8.076864000E0,2.381452383E0,-7.102919247E0,2.680047028E0,7.956470911E0
8.086850000E0,2.067242017E0,-7.502815588E0,2.169583786E0,8.079159926E0
8.096835000E0,1.714986597E0,-8.005669702E0,1.599108816E0,8.342006678E0
8.106820000E0,1.257471939E0,-8.417590842E0,1.154166110E0,8.588898106E0
8.116806000E0,7.843291354E-1,-8.666712050E0,9.518705750E-1,8.754034929E0
8.126791000E0,3.975741193E-1,-8.753485900E0,6.807071185E-1,8.788910214E0
8.136776000E0,7.903096676E-2,-8.783272201E0,6.097125649E-1,8.804763816E0
8.146762000E0,-2.732324937E-1,-8.712386990E0,6.821309155E-1,8.743320059E0
8.156747000E0,-4.189176258E-1,-8.607261069E0,7.215266772E-1,8.647602896E0
8.166733000E0,-6.518306440E-1,-8.467223178E0,6.627772164E-1,8.518099857E0
8.176718000E0,-1.369603263E0,-8.068334897E0,3.884767288E-1,8.192969869E0
8.186703000E0,-2.062305944E0,-7.519801750E0,1.107110350E-1,7.798255003E0
8.196689000E0,-2.500119724E0,-7.060411159E0,-7.265589371E-2,7.490346003E0
8.206674000E0,-2.860685354E0,-6.497039532E0,-2.956166585E-1,7.105099055E0
8.216659000E0,-3.123408939E0,-5.951080329E0,-6.283764388E-1,6.750251657E0
8.226645000E0,-3.240082526E0,-5.529223600E0,-7.982754757E-1,6.458149281E0
8.236630000E0,-3.631161266E0,-5.304677070E0,-8.089137536E-1,6.479141334E0
8.246615000E0,-4.341795604E0,-5.152285182E0,-8.199369246E-1,6.787453736E0
8.256601000E0,-5.346699255E0,-4.760348656E0,-9.094925871E-1,7.216321017E0
8.266586000E0,-6.629190114E0,-4.321917994E0,-9.727158988E-1,7.973162041E0
8.276571000E0,-7.949980820E0,-3.863999147E0,-1.106664792E0,8.908276568E0
8.286557000E0,-8.970660260E0,-3.287365451E0,-1.473302170E0,9.666961073E0
8.296542000E0,-9.659825960E0,-2.774043651E0,-2.042174858E0,1.025563425E1
8.306528000E0,-1.006855218E1,-2.485471280E0,-2.694391418E0,1.071508542E1
8.316513000E0,-1.007230843E1,-2.315583352E0,-3.198683070E0,1.081872898E1
8.326498000E0,-9.986136847E0,-2.050078247E0,-3.397213583E0,1.074554838E1
8.336484000E0,-9.681570001E0,-1.671402621E0,-3.213109613E0,1.033684951E1
8.346469000E0,-9.205558115E0,-1.403422973E0,-2.684235974E0,9.691079353E0
8.356454000E0,-8.888542548E0,-1.243313345E0,-2.018625489E0,9.199286144E0
8.366440000E0,-8.492108928E0,-1.060248132E0,-1.253862891E0,8.649405315E0
8.376425000E0,-8.314782173E0,-9.243313587E-1,-4.414843699E-1,8.377642836E0
8.386410000E0,-8.499724926E0,-9.499532729E-1,2.226514471E-1,8.555542573E0
8.396396000E0,-8.696231133E0,-1.100301560E0,5.121438780E-1,8.780511990E0
8.406381000E0,-8.841102918E0,-1.302117038E0,4.977436477E-1,8.950327275E0
8.416366000E0,-8.914693050E0,-1.483467262E0,3.666189596E-1,9.044713194E0
8.426352000E0,-8.878444406E0,-1.803077824E0,2.741826662E-1,9.063831466E0
8.436337000E0,-8.645925783E0,-2.180900341E0,2.775880846E-1,8.921065748E0
8.446323000E0,-8.567576017E0,-2.641042299E0,2.848216751E-1,8.969926790E0
8.456308000E0,-8.484570113E0,-3.254930946E0,2.301275508E-1,9.090405060E0
8.466293000E0,-8.086218022E0,-3.803515549E0,3.254136309E-2,8.936146337E0
8.476279000E0,-7.365617105E0,-4.340109851E0,-1.793542770E-1,8.551083955E0
8.486264000E0,-6.602248483E0,-4.904136951E0,-1.763172331E-1,8.226258690E0
8.496249000E0,-5.808416453E0,-5.300762944E0,5.737975046E-2,7.863782927E0
8.506235125E0,-4.904462933E0,-5.736545402E0,3.842293113E-1,7.557072315E0
8.516220125E0,-4.189765073E0,-6.226899338E0,6.107334888E-1,7.530033342E0
8.526205125E0,-3.614239132E0,-6.587470230E0,6.136746383E-1,7.538838445E0
8.536191125E0,-2.996127041E0,-6.820563051E0,4.935859850E-1,7.465955043E0
8.546176125E0,-2.369831188E0,-7.158503464E0,4.841336685E-1,7.556100655E0
8.556161125E0,-1.812554991E0,-7.410483375E0,5.858867691E-1,7.651397438E0
8.566147125E0,-9.789708115E-1,-7.590350161E0,8.289392978E-1,7.697982838E0
8.576132125E0,-2.722336431E-1,-7.811411165E0,1.121326393E0,7.896178090E0
8.586118125E0,8.669491231E-2,-7.903334658E0,1.343692203E0,8.017214195E0
8.596103125E0,6.153018453E-1,-7.859015687E0,1.451192094E0,8.015527582E0
8.606088125E0,1.057671484E0,-7.767758777E0,1.394766170E0,7.962544697E0
8.616074125E0,1.274913014E0,-7.786290357E0,1.260500943E0,7.990030247E0
8.626059125E0,1.636627475E0,-7.795631869E0,1.173496420E0,8.051553861E0
8.636044125E0,1.999121516E0,-7.670361121E0,1.096778320E0,8.002115298E0
8.646030125E0,2.152680948E0,-7.481023015E0,9.431017980E-1,7.841503786E0
8.656015125E0,2.399293407E0,-7.044096258E0,7.613150793E-1,7.480341008E0
8.666000125E0,3.000929067E0,-6.579695188E0,8.046154654E-1,7.276356923E0
8.675986125E0,3.393019375E0,-6.110527468E0,1.209007438E0,7.093153417E0
8.685971125E0,3.928347756E0,-5.429356665E0,1.708122550E0,6.915743816E0
8.695956125E0,4.349470659E0,-4.836969985E0,1.947699640E0,6.790265645E0
8.705942125E0,4.681371191E0,-4.308744217E0,1.988815214E0,6.666025721E0
8.715927125E0,5.218449351E0,-3.522135837E0,2.009956992E0,6.608901693E0
8.725913125E0,5.562379067E0,-2.872676239E0,2.012746698E0,6.575977413E0
8.735898125E0,5.386368520E0,-2.578241449E0,1.914927458E0,6.271143594E0
8.745883125E0,5.246879683E0,-2.032586301E0,1.478250961E0,5.817764122E0
8.755869125E0,5.323995101E0,-1.515221736E0,1.165922522E0,5.656871580E0
8.765854125E0,5.875035535E0,-8.674239171E-1,1.069486733E0,6.034257921E0
8.775839125E0,6.654493355E0,-2.933489621E-1,1.017892656E0,6.738281746E0
8.785825125E0,7.260336818E0,2.466226923E-1,9.438730457E-1,7.325585969E0
8.795810125E0,8.017641292E0,7.214978796E-1,1.085481207E0,8.122893605E0
8.805795125E0,8.817550333E0,1.101166363E0,1.272693849E0,8.976720496E0
8.815781125E0,9.827249286E0,1.682224063E0,1.382722368E0,1.006561610E1
8.825766125E0,1.124315723E1,2.086487689E0,1.584132927E0,1.154432729E1
8.835751125E0,1.266326699E1,2.360750170E0,1.691660884E0,1.299204329E1
8.845737125E0,1.327937290E1,2.555153718E0,1.850606917E0,1.364900367E1
8.855722125E0,1.310832547E1,2.517597637E0,2.060023191E0,1.350593166E1
8.865708125E0,1.253398622E1,2.318193550E0,2.126483229E0,1.292272274E1
8.875693125E0,1.162911908E1,1.787414303E0,1.950502503E0,1.192626179E1
8.885678125E0,1.076937372E1,1.231262818E0,1.535846035E0,1.094779620E1
8.895664125E0,1.010345070E1,8.311928147E-1,1.067478215E0,1.019363072E1
8.905649125E0,9.647169662E0,4.242090636E-1,8.532254156E-1,9.694113133E0
8.915634125E0,9.180311007E0,-6.537187099E-4,9.787408698E-1,9.232336882E0
8.925620125E0,8.640242874E0,-3.447834098E-1,1.231018112E0,8.734304673E0
8.935605125E0,8.300839487E0,-6.957572669E-1,1.536476950E0,8.470464910E0
8.945590125E0,8.128395742E0,-1.201398749E0,1.913120084E0,8.436480590E0
8.955576125E0,7.656921880E0,-1.769934636E0,2.247504805E0,8.173885193E0
8.965561125E0,7.125311744E0,-2.357825977E0,2.479162134E0,7.904154330E0
8.975546125E0,6.677375264E0,-2.896739286E0,2.709817834E0,7.766695024E0
8.985532125E0,6.036549080E0,-3.422991618E0,2.740162545E0,7.460917315E0
8.995517125E0,5.414257400E0,-3.942901475E0,2.645875023E0,7.201479700E0
9.005503125E0,4.942968895E0,-4.484240794E0,2.582934717E0,7.156319497E0
9.015488125E0,4.511713936E0,-4.953710815E0,2.536065190E0,7.164247352E0
9.025473125E0,4.040921275E0,-5.281419770E0,2.488542530E0,7.100372065E0
9.035459125E0,3.538851272E0,-5.667113809E0,2.511608626E0,7.137774523E0
9.045444125E0,3.080950845E0,-6.024511417E0,2.554210854E0,7.232633615E0
9.055429125E0,2.739417610E0,-6.203532695E0,2.491517885E0,7.224672180E0
9.065415125E0,2.606132960E0,-6.388530412E0,2.360006696E0,7.292110904E0
9.075400125E0,2.673730281E0,-6.632389126E0,2.208717885E0,7.484373977E0
9.085385125E0,2.831656852E0,-6.987095261E0,2.077724175E0,7.820148237E0
9.095371125E0,2.630909659E0,-7.361258005E0,2.000182786E0,8.069110003E0
9.105356125E0,2.449770227E0,-7.553232036E0,1.764306107E0,8.134215659E0
9.115341125E0,2.361229934E0,-7.830518696E0,1.461215537E0,8.308283860E0
9.125327125E0,1.933167555E0,-8.354216965E0,1.311198349E0,8.674636534E0
9.135312125E0,1.178839021E0,-8.812416478E0,9.286121053E-1,8.939276596E0
9.145298125E0,5.453776976E-1,-8.889052425E0,2.717037392E-1,8.909910929E0
9.155283125E0,-1.564428395E-1,-8.705950375E0,-3.894049743E-1,8.716058888E0
9.165268125E0,-9.853511471E-1,-8.613380765E0,-6.306385803E-1,8.692465134E0
9.175254125E0,-2.158265769E0,-8.618643844E0,-5.233774026E-1,8.900171726E0
9.185239125E0,-3.805560905E0,-8.256060925E0,-4.243132903E-1,9.100817412E0
9.195224125E0,-5.300434915E0,-7.536366327E0,-4.277578850E-1,9.223578726E0
9.205210125E0,-6.335197958E0,-6.849598569E0,-5.046107639E-1,9.343787549E0
9.215195125E0,-6.921517568E0,-6.234701278E0,-6.921216144E-1,9.341195737E0
9.225180125E0,-7.257519044E0,-5.571491953E0,-8.590077272E-1,9.189722495E0
9.235166125E0,-7.406842899E0,-5.365904435E0,-8.122121680E-1,9.182262289E0
9.245151125E0,-8.370503799E0,-5.101340731E0,-7.543815972E-1,9.831485274E0
9.255136125E0,-9.559169067E0,-4.343747989E0,-9.266896869E-1,1.054061733E1
9.265122125E0,-1.014386900E1,-3.726924040E0,-8.475028919E-1,1.084003239E1
9.275107125E0,-1.055629651E1,-3.097599329E0,-8.594104542E-1,1.103490389E1
9.285092125E0,-1.070111333E1,-2.539549254E0,-1.017276506E0,1.104526995E1
9.295078125E0,-1.066231354E1,-2.125666373E0,-1.267282982E0,1.094574775E1
9.305063125E0,-1.038383873E1,-1.827110465E0,-1.586159133E0,1.066200451E1
9.315049125E0,-1.020732298E1,-1.730914997E0,-1.769335881E0,1.050314518E1
9.325034125E0,-1.023684791E1,-1.658858004E0,-1.813437482E0,1.052774527E1
9.335019125E0,-1.024857626E1,-1.612494262E0,-1.715351609E0,1.051550684E1
9.345005125E0,-1.008956123E1,-1.617923402E0,-1.565427392E0,1.033767309E1
9.354990125E0,-9.820270050E0,-1.606465783E0,-1.425807430E0,1.005243070E1
9.364975125E0,-9.593504502E0,-1.666788583E0,-1.126657446E0,9.802186991E0
9.374961125E0,-9.316011434E0,-1.750345879E0,-7.247983405E-1,9.506687771E0
9.384946125E0,-9.008263119E0,-1.862534652E0,-4.410129382E-1,9.209361116E0
9.394931125E0,-8.677765042E0,-2.101754769E0,-3.319829777E-1,8.934830268E0
9.404917125E0,-8.181474427E0,-2.430032074E0,-3.169290286E-1,8.540610264E0
9.414902125E0,-7.631739092E0,-2.792239017E0,-2.647375126E-1,8.130813381E0
9.424887125E0,-6.997649485E0,-3.199715104E0,-1.226289761E-1,7.695473535E0
9.434873125E0,-6.143252580E0,-3.548616123E0,-2.064607993E-2,7.094551071E0
9.444858125E0,-5.294774226E0,-3.925044079E0,9.615512252E-2,6.591650092E0
9.454844125E0,-4.544359526E0,-4.329421141E0,1.673388335E-1,6.278781188E0
9.464829125E0,-3.746613954E0,-4.575695339E0,2.178660858E-1,5.917902466E0
9.474814125E0,-2.876295373E0,-4.819775662E0,4.205200553E-1,5.628512204E0
9.484800125E0,-2.400867332E0,-5.142957703E0,6.537748432E-1,5.713282719E0
9.494785125E0,-2.009435712E0,-5.262260783E0,8.714377382E-1,5.699879311E0
9.504770125E0,-1.525173990E0,-5.385204340E0,1.283236379E0,5.742236244E0
9.514756250E0,-1.154956946E0,-5.466149685E0,1.565824125E0,5.802113677E0
9.524741250E0,-8.460188685E-1,-5.562538111E0,1.617031116E0,5.854260653E0
9.534726250E0,-8.038595666E-1,-5.669913456E0,1.479041505E0,5.914530630E0
9.544712250E0,-4.951093309E-1,-5.703598680E0,1.375309560E0,5.887923874E0
9.554697250E0,-1.267939478E-2,-5.790877145E0,1.229326659E0,5.919937745E0
9.564682250E0,4.407503982E-1,-5.936845282E0,1.061999373E0,6.047167559E0
9.574668250E0,6.525510941E-1,-6.175363149E0,8.070050763E-1,6.261963761E0
9.584653250E0,7.335033828E-1,-6.311312082E0,5.574846500E-1,6.378203238E0
9.594638250E0,7.033978236E-1,-6.439153851E0,2.220038679E-1,6.481261956E0
9.604624250E0,4.487183990E-1,-6.407875341E0,-4.405292273E-2,6.423718179E0
9.614609250E0,-3.614430774E-2,-6.467588276E0,-1.781877574E-1,6.470143383E0
9.624595250E0,-5.933883814E-1,-6.555722188E0,-2.953700522E-1,6.589146124E0
9.634580250E0,-7.675290616E-1,-6.535277399E0,-1.850059032E-1,6.582794143E0
9.644565250E0,-9.179445912E-1,-6.541547953E0,-4.485282183E-2,6.605791676E0
9.654551250E0,-5.983808072E-1,-6.516201442E0,3.567842352E-1,6.553337762E0
9.664536250E0,1.768630707E-1,-6.183757412E0,9.870064938E-1,6.264528561E0
9.674521250E0,1.015481411E0,-5.657830185E0,1.423692931E0,5.921920842E0
9.684507250E0,1.245784086E0,-5.346102839E0,1.755418046E0,5.763183675E0
9.694492250E0,1.225327602E0,-4.874190436E0,1.885913574E0,5.368037830E0
9.704477250E0,1.266093805E0,-4.323734724E0,1.891153556E0,4.886116787E0
9.714463250E0,1.462742391E0,-3.869837008E0,1.961843762E0,4.578655339E0
9.724448250E0,2.341226317E0,-3.270339528E0,1.993362009E0,4.488869946E0
9.734433250E0,3.926438932E0,-2.603316064E0,2.010977916E0,5.122324608E0
9.744419250E0,5.610988725E0,-1.794640877E0,1.838671288E0,6.171275593E0
9.754404250E0,7.881721594E0,-8.378884614E-1,1.638635409E0,8.093745633E0
9.764390250E0,1.047546927E1,1.233943766E-1,1.646216616E0,1.060474949E1
9.774375250E0,1.282853854E1,1.053605695E0,1.842530742E0,1.300293835E1
9.784360250E0,1.456084868E1,1.938584123E0,2.355132457E0,1.487693086E1
9.794346250E0,1.549385497E1,2.598525440E0,3.207819637E0,1.603439999E1
9.804331250E0,1.566551051E1,2.995415143E0,3.904953631E0,1.642039568E1
9.814316250E0,1.541145133E1,3.162769471E0,3.937225583E0,1.621782008E1
9.824302250E0,1.500852438E1,2.994813464E0,3.426612506E0,1.568331550E1
9.834287250E0,1.431866520E1,2.498321121E0,2.629442885E0,1.477090896E1
9.844272250E0,1.338729262E1,2.100982937E0,1.853918487E0,1.367738085E1
9.854258250E0,1.252537444E1,1.772983375E0,1.426797802E0,1.273044488E1
9.864243250E0,1.182387580E1,1.493702229E0,1.258051544E0,1.198406771E1
9.874228250E0,1.125535686E1,1.147054726E0,1.253808512E0,1.138291828E1
9.884214250E0,1.045603079E1,6.209269398E-1,1.504782995E0,1.058198951E1
9.894199250E0,9.448996414E0,5.691211939E-2,1.934608601E0,9.645179245E0
9.904185250E0,8.766328139E0,-2.852166545E-1,2.135677391E0,9.027235208E0
9.914170250E0,8.430890919E0,-7.656373411E-1,2.196477908E0,8.745892603E0
9.924155250E0,7.924878139E0,-1.323030775E0,2.332244409E0,8.366209890E0
9.934141250E0,7.476383834E0,-1.702502791E0,2.487890565E0,8.061292109E0
9.944126250E0,7.170101416E0,-2.194378758E0,2.608123937E0,7.939015236E0
9.954111250E0,6.792368946E0,-2.728558161E0,2.613582605E0,7.772523372E0
9.964097250E0,6.415324109E0,-3.199018700E0,2.544662059E0,7.606931645E0
9.974082250E0,6.078264871E0,-3.627673402E0,2.509954741E0,7.510338937E0
9.984067250E0,5.674673674E0,-4.137730701E0,2.684550261E0,7.518613354E0
9.994053250E0,5.156490499E0,-4.648308987E0,2.921141763E0,7.531881565E0
1.000403825E1,4.557503482E0,-5.181378588E0,3.081910080E0,7.557492428E0
1.001402325E1,4.071894269E0,-5.770133563E0,3.112650647E0,7.717730127E0
1.002400925E1,3.663484382E0,-6.356170751E0,2.943644480E0,7.904876170E0
1.003399425E1,3.293793295E0,-6.920976115E0,2.745378261E0,8.141626770E0
1.004397925E1,2.867495021E0,-7.424362326E0,2.600147750E0,8.372840138E0
1.005396525E1,2.372583326E0,-8.029290115E0,2.517463735E0,8.742784170E0
1.006395025E1,1.708765305E0,-8.573395166E0,2.345831876E0,9.051293318E0
1.007393625E1,9.862745686E-1,-8.864596446E0,1.875723339E0,9.114392229E0
1.008392125E1,4.192998876E-1,-9.059286507E0,1.342782084E0,9.167854064E0
1.009390625E1,1.503532568E-1,-8.799401160E0,5.981700151E-1,8.820990548E0
1.010389225E1,4.509273309E-1,-8.509927733E0,-5.706502408E-2,8.522057375E0
1.011387725E1,8.914299533E-1,-8.478358031E0,-4.214480084E-1,8.535503540E0
1.012386225E1,8.388547137E-1,-8.451715193E0,-5.555913216E-1,8.511395223E0
1.013384825E1,3.884442768E-1,-8.362921130E0,-3.667221630E-1,8.379965628E0
1.014383325E1,-6.766690314E-2,-8.235861719E0,-4.342975572E-2,8.236254197E0
1.015381825E1,-4.471868670E-1,-7.914921500E0,1.883250752E-1,7.929780878E0
1.016380425E1,-9.782964814E-1,-7.763278640E0,5.395282893E-1,7.843255065E0
1.017378925E1,-1.901590544E0,-7.643011939E0,9.445339273E-1,7.932453746E0
1.018377425E1,-3.103989167E0,-6.891896158E0,1.047828646E0,7.630919097E0
1.019376025E1,-3.959006462E0,-6.241256592E0,1.044316078E0,7.464423091E0
1.020374525E1,-4.910170108E0,-5.687797750E0,9.266835473E-1,7.570967978E0
1.021373125E1,-6.067150483E0,-5.089663256E0,5.760951680E-1,7.940206086E0
1.022371625E1,-6.949994093E0,-4.556187859E0,1.238849580E-1,8.311234155E0
1.023370125E1,-7.469391734E0,-4.062999777E0,-3.171751964E-1,8.508841294E0
1.024368725E1,-8.087953475E0,-3.591832893E0,-6.008376610E-1,8.870020341E0
1.025367225E1,-8.790919189E0,-3.068158014E0,-7.255821598E-1,9.339182152E0
1.026365725E1,-9.446289153E0,-2.404258132E0,-9.503008899E-1,9.793666714E0
1.027364325E1,-9.988235997E0,-1.980389961E0,-1.113995154E0,1.024342657E1
1.028362825E1,-1.035375129E1,-1.770419371E0,-1.306722305E0,1.058499286E1
1.029361325E1,-1.063674250E1,-1.427835683E0,-1.503686349E0,1.083697736E1
1.030359925E1,-1.059888762E1,-1.083465087E0,-1.406792139E0,1.074659851E1
1.031358425E1,-1.036197248E1,-8.576994127E-1,-1.075823653E0,1.045291914E1
1.032356925E1,-1.025250559E1,-6.454068929E-1,-8.180336559E-1,1.030531901E1
1.033355525E1,-1.005971470E1,-6.136284453E-1,-7.519115871E-1,1.010642225E1
1.034354025E1,-9.923483931E0,-5.975959647E-1,-8.011308172E-1,9.973688628E0
1.035352625E1,-9.749580136E0,-5.783627182E-1,-7.408138642E-1,9.794775211E0
1.036351125E1,-9.700636017E0,-7.053806144E-1,-5.201928627E-1,9.740148950E0
1.037349625E1,-9.806536694E0,-8.483953232E-1,-2.200719479E-1,9.845626858E0
1.038348225E1,-9.779031392E0,-1.032787269E0,-3.951577574E-2,9.833497140E0
1.039346725E1,-9.596488336E0,-1.359461852E0,-9.383231610E-2,9.692756543E0
1.040345225E1,-9.309878874E0,-1.740286329E0,-1.082910186E-1,9.471756337E0
1.041343825E1,-8.910694140E0,-2.143346014E0,-1.124390334E-1,9.165535703E0
1.042342325E1,-8.350123914E0,-2.497842818E0,-1.234203967E-1,8.716594560E0
1.043340825E1,-7.726006148E0,-2.883873072E0,-1.035188136E-1,8.247339635E0
1.044339425E1,-7.217933394E0,-3.449139197E0,4.906866431E-2,7.999845712E0
1.045337925E1,-6.614655690E0,-3.992302846E0,2.065900227E-1,7.728831176E0
1.046336425E1,-5.808587192E0,-4.336736593E0,3.021911216E-1,7.255224939E0
1.047335025E1,-5.017450143E0,-4.699805415E0,4.738896391E-1,6.891120973E0
1.048333525E1,-4.152254600E0,-5.044550818E0,6.876898634E-1,6.569751028E0
1.049332025E1,-3.289183935E0,-5.333170552E0,8.551234218E-1,6.323976215E0
1.050330625E1,-2.608064295E0,-5.554820371E0,9.065645939E-1,6.203215947E0
1.051329100E1,-2.177368623E0,-5.816234180E0,9.693261217E-1,6.285627040E0
1.052327700E1,-1.824443258E0,-5.836300655E0,1.027512934E0,6.200546860E0
1.053326200E1,-1.443552414E0,-5.981477664E0,1.158720214E0,6.261353780E0
1.054324700E1,-1.228939719E0,-6.274965790E0,1.275214438E0,6.520096653E0
1.055323300E1,-1.188770663E0,-6.520903189E0,1.274154484E0,6.749727678E0
1.056321800E1,-1.134840185E0,-6.753076242E0,1.131688682E0,6.940649843E0
1.057320300E1,-9.710570437E-1,-6.974994448E0,9.828035152E-1,7.110513489E0
1.058318900E1,-8.537159970E-1,-7.174334216E0,9.325350022E-1,7.284883250E0
1.059317400E1,-7.322028890E-1,-7.274309324E0,1.065100444E0,7.388243104E0
1.060315900E1,-6.148306328E-1,-7.368450665E0,1.285801406E0,7.505022796E0
1.061314500E1,-4.357174073E-1,-7.391346608E0,1.382098762E0,7.532068197E0
1.062313000E1,-1.267502947E-1,-7.479138458E0,1.278880203E0,7.588749059E0
1.063311500E1,8.608190484E-2,-7.713006619E0,9.907010570E-1,7.776848319E0
1.064310100E1,1.427656174E-1,-7.750405410E0,3.520950606E-1,7.759712428E0
1.065308600E1,3.641128430E-1,-7.637790960E0,-1.700305992E-1,7.648355334E0
1.066307200E1,6.905397964E-1,-7.604336700E0,-3.039926487E-1,7.641674777E0
1.067305700E1,1.189927973E0,-7.415355275E0,-1.990997395E-1,7.512859851E0
1.068304200E1,1.587445667E0,-7.006883993E0,6.550372571E-2,7.184754538E0
1.069302800E1,1.815623318E0,-6.784057129E0,5.180311471E-1,7.041894307E0
1.070301300E1,1.815573616E0,-6.651794280E0,8.432486039E-1,6.946491410E0
1.071299800E1,1.483115260E0,-6.341944476E0,9.643830317E-1,6.584066011E0
1.072298400E1,1.442628262E0,-5.871622515E0,8.886045787E-1,6.111198357E0
1.073296900E1,2.007925669E0,-5.440884451E0,6.599831244E-1,5.836999813E0
1.074295400E1,3.130791634E0,-4.839357988E0,2.464744654E-1,5.769054658E0
1.075294000E1,4.348917512E0,-4.130898229E0,-6.143581778E-2,5.998431301E0
1.076292500E1,5.426295648E0,-3.293112094E0,9.338529646E-2,6.348069985E0
1.077291000E1,5.966393017E0,-2.569660075E0,8.193685752E-1,6.547699092E0
1.078289600E1,6.404612010E0,-1.932521145E0,1.576972427E0,6.873175031E0
1.079288100E1,6.973815064E0,-1.464762020E0,2.074649416E0,7.421845763E0
1.080286600E1,8.158881370E0,-8.316056281E-1,2.304467795E0,8.518772503E0
1.081285200E1,1.002736206E1,-5.427385569E-2,2.559092987E0,1.034890779E1
1.082283700E1,1.227123106E1,7.240215379E-1,2.997313441E0,1.265271539E1
1.083282300E1,1.441654174E1,1.547038776E0,3.284899388E0,1.486676053E1
1.084280800E1,1.612913390E1,2.236241899E0,3.465182202E0,1.664803970E1
1.085279300E1,1.716722635E1,2.562193181E0,3.524437886E0,1.771158256E1
1.086277900E1,1.742153228E1,2.481082944E0,3.377168743E0,1.791844939E1
1.087276400E1,1.693505330E1,2.169169073E0,2.952517922E0,1.732681987E1
1.088274900E1,1.612878892E1,1.716519152E0,2.517568108E0,1.641409209E1
1.089273500E1,1.482903708E1,9.908621478E-1,2.240439030E0,1.503002713E1
1.090272000E1,1.315118205E1,2.110406309E-1,2.072859583E0,1.331521214E1
1.091270500E1,1.171016499E1,-2.356831366E-1,1.832776417E0,1.185506559E1
1.092269100E1,1.065125061E1,-6.476487154E-1,1.643431880E0,1.079673362E1
1.093267600E1,9.724046515E0,-1.021102193E0,1.513353551E0,9.893935985E0
1.094266100E1,8.932598979E0,-1.356448781E0,1.605907958E0,9.176612566E0
1.095264700E1,8.021112199E0,-1.891637414E0,1.997574051E0,8.479789803E0
1.096263200E1,7.168854790E0,-2.344817092E0,2.519787419E0,7.952356558E0
1.097261700E1,6.538341340E0,-2.725397156E0,3.203197705E0,7.774199166E0
1.098260300E1,5.905047539E0,-3.214461781E0,3.759329894E0,7.702915827E0
1.099258800E1,5.258655975E0,-3.701568759E0,3.925505424E0,7.534232992E0
1.100257400E1,4.758249505E0,-4.155679314E0,3.879921700E0,7.413798036E0
1.101255900E1,4.414645186E0,-4.671529450E0,3.805421449E0,7.469505467E0
1.102254400E1,4.103994021E0,-5.487289708E0,3.816707160E0,7.843492131E0
1.103253000E1,3.437578667E0,-6.609672693E0,3.833066207E0,8.378371963E0
1.104251500E1,2.408118464E0,-7.052515664E0,3.461528277E0,8.217006130E0
1.105250000E1,1.651381754E0,-7.319168578E0,3.039256396E0,8.095330124E0
1.106248600E1,8.088533811E-1,-7.874007947E0,2.541677055E0,8.313505109E0
1.107247100E1,-1.017680475E-2,-8.089162679E0,1.914065579E0,8.312538930E0
1.108245600E1,-3.729199192E-1,-8.145968964E0,1.279991467E0,8.254347811E0
1.109244200E1,-4.941860555E-1,-8.176458685E0,7.797400944E-1,8.228407568E0
1.110242700E1,-4.513423370E-1,-8.121155720E0,5.058654302E-1,8.149403657E0
1.111241200E1,-1.109909704E-1,-8.132618017E0,3.901800227E-1,8.142728980E0
1.112239800E1,3.149807364E-1,-8.029494767E0,1.918038762E-1,8.037959182E0
1.113238300E1,6.684063309E-1,-8.109712719E0,5.417416066E-2,8.137391612E0
1.114236800E1,5.316370332E-1,-8.257637919E0,-1.437602288E-1,8.275982657E0
1.115235400E1,1.730264202E-1,-8.472079291E0,-3.929147655E-1,8.482950410E0
1.116233900E1,-3.096612319E-1,-8.204088534E0,-6.617773426E-1,8.236559233E0
1.117232500E1,-5.482285076E-1,-7.490141163E0,-9.971885428E-1,7.576090953E0
1.118231000E1,-7.382969302E-1,-7.091977937E0,-1.074931076E0,7.210874443E0
1.119229500E1,-9.863849348E-1,-6.704489388E0,-1.082698224E0,6.862606548E0
1.120228100E1,-1.446131036E0,-6.286031646E0,-9.937297685E-1,6.526330338E0
1.121226600E1,-2.414828144E0,-5.714885561E0,-7.725869031E-1,6.252055859E0
1.122225100E1,-3.505332109E0,-5.159428725E0,-5.355637309E-1,6.260502094E0
1.123223700E1,-4.502995738E0,-4.739133203E0,-2.483506908E-1,6.542020498E0
1.124222200E1,-5.322638547E0,-4.437471839E0,4.137241289E-2,6.929888102E0
1.125220700E1,-6.340181540E0,-4.003179837E0,1.971727896E-1,7.500815148E0
1.126219300E1,-7.701163083E0,-3.519932021E0,4.420132506E-1,8.478986377E0
1.127217800E1,-9.117396137E0,-2.885951173E0,6.181843033E-1,9.583202926E0
1.128216300E1,-1.050426564E1,-2.163505459E0,6.594720778E-1,1.074501075E1
1.129214900E1,-1.179697977E1,-1.507094107E0,4.788077322E-1,1.190249223E1
1.130213400E1,-1.215226946E1,-9.014237219E-1,2.348230112E-1,1.218791859E1
1.131212000E1,-1.178114902E1,-3.383181435E-1,5.475332737E-2,1.178613293E1
1.132210500E1,-1.165154783E1,-1.104158968E-1,2.323224494E-1,1.165438682E1
1.133209000E1,-1.170383363E1,1.545185208E-2,5.988329431E-1,1.171915361E1
1.134207600E1,-1.176935051E1,1.026934791E-1,8.097335333E-1,1.179761950E1
1.135206100E1,-1.174576518E1,-7.347611189E-3,6.242502049E-1,1.176234424E1
1.136204600E1,-1.154350297E1,-1.705878389E-1,1.396344334E-2,1.154477181E1
1.137203200E1,-1.128536945E1,-4.894283223E-1,-5.355754253E-1,1.130866680E1
1.138201700E1,-1.082556079E1,-8.050592691E-1,-9.818255684E-1,1.089976459E1
1.139200200E1,-1.023432542E1,-1.120715359E0,-1.219190657E0,1.036744162E1
1.140198800E1,-9.759722716E0,-1.533507734E0,-1.296771514E0,9.964208440E0
1.141197300E1,-9.223571633E0,-1.947495865E0,-1.336544275E0,9.521206037E0
1.142195800E1,-8.537180436E0,-2.355842017E0,-1.359531726E0,8.960009370E0
1.143194400E1,-7.867454388E0,-2.786906941E0,-1.417658897E0,8.466017103E0
1.144192900E1,-7.134750320E0,-3.200058920E0,-1.359936499E0,7.936905348E0
1.145191500E1,-6.459659452E0,-3.590049493E0,-1.108627556E0,7.472931865E0
1.146190000E1,-5.855009991E0,-4.019170218E0,-7.017949556E-1,7.136342718E0
1.147188500E1,-5.185157644E0,-4.492937357E0,-3.456767182E-1,6.869631597E0
1.148187100E1,-4.563106869E0,-4.803037423E0,-1.022790577E-1,6.625826272E0
1.149185600E1,-4.022653404E0,-5.117590728E0,2.368917561E-1,6.513646672E0
1.150184100E1,-3.620515240E0,-5.432489603E0,6.871402252E-1,6.564467654E0
1.151182679E1,-3.133552104E0,-5.623049192E0,1.143989031E0,6.538083963E0
1.152181179E1,-2.636362480E0,-5.761429397E0,1.504581704E0,6.512161080E0
1.153179679E1,-2.259243091E0,-6.006260503E0,1.828455325E0,6.672525268E0
1.154178279E1,-2.039464381E0,-6.289524772E0,2.032580308E0,6.917291343E0
1.155176779E1,-1.779579619E0,-6.602189426E0,1.988129920E0,7.120987953E0
1.156175279E1,-1.580583667E0,-6.985471489E0,1.647064755E0,7.349005304E0
1.157173879E1,-1.470573129E0,-7.403635701E0,1.265711689E0,7.653654878E0
1.158172379E1,-1.220198278E0,-7.681243374E0,1.131254527E0,7.859396949E0
1.159170879E1,-7.294351825E-1,-7.926645167E0,1.229390393E0,8.054513023E0
1.160169479E1,-4.372473313E-1,-8.153263366E0,1.260535149E0,8.261709121E0
1.161167979E1,-9.875687767E-2,-8.258834844E0,1.127963421E0,8.336090654E0
1.162166479E1,4.182067141E-1,-8.413781381E0,9.831863616E-1,8.481348325E0
1.163165079E1,4.344892362E-1,-8.599204776E0,6.968308157E-1,8.638326045E0
1.164163579E1,4.270752957E-1,-8.491027193E0,5.900507176E-1,8.522211917E0
1.165162179E1,7.136835144E-1,-8.301721247E0,6.601750593E-1,8.358453860E0
1.166160679E1,1.034465127E0,-8.244554189E0,7.222007149E-1,8.340525508E0
1.167159179E1,1.385600952E0,-7.878678703E0,1.083679387E0,8.072659359E0
1.168157779E1,1.586817384E0,-7.383307856E0,1.576508450E0,7.714700461E0
1.169156279E1,1.681148175E0,-6.823827551E0,2.049663094E0,7.320655738E0
1.170154779E1,1.887767141E0,-6.119015871E0,2.179522153E0,6.764343044E0
1.171153379E1,2.060880978E0,-5.765940524E0,1.922063400E0,6.417758818E0
1.172151879E1,2.616489841E0,-5.412860500E0,1.249212601E0,6.140489394E0
1.173150379E1,3.639910747E0,-4.869197499E0,4.867921051E-1,6.098770456E0
1.174148979E1,4.746079111E0,-4.111131717E0,2.190252963E-1,6.282884926E0
1.175147479E1,5.925594070E0,-3.195019789E0,5.032523096E-1,6.750857681E0
1.176145979E1,7.026658106E0,-2.438953755E0,9.098752874E-1,7.493349892E0
1.177144579E1,8.110248324E0,-1.583240057E0,9.849751711E-1,8.321835918E0
1.178143079E1,9.051482813E0,-7.179234767E-1,1.128147170E0,9.149725202E0
1.179141679E1,9.548435917E0,-2.385313153E-1,1.800695668E0,9.719672348E0
1.180140179E1,9.855251602E0,2.666201699E-1,2.632338426E0,1.020422834E1
1.181138679E1,1.038200270E1,7.464409322E-1,3.098433142E0,1.086017689E1
1.182137279E1,1.091588507E1,9.342920905E-1,3.110324332E0,1.138874734E1
1.183135779E1,1.151408329E1,1.213272690E0,2.616738347E0,1.186985528E1
1.184134279E1,1.202506796E1,1.409018174E0,2.116712824E0,1.229097494E1
1.185132879E1,1.240774951E1,1.453912511E0,1.976470865E0,1.264802541E1
1.186131379E1,1.307425492E1,1.551869161E0,1.800722858E0,1.328860573E1
1.187129879E1,1.335454237E1,1.471741256E0,1.797965603E0,1.355516523E1
1.188128479E1,1.298299274E1,1.281693884E0,2.012625661E0,1.320043567E1
1.189126979E1,1.265186141E1,1.065159793E0,2.396111499E0,1.292073964E1
1.190125479E1,1.220298470E1,6.832746309E-1,2.714278968E0,1.251986462E1
1.191124079E1,1.143597034E1,2.296195740E-1,2.773530266E0,1.176973292E1
1.192122579E1,1.045247802E1,-3.677664757E-1,2.701412754E0,1.080218403E1
1.193121079E1,9.306313242E0,-1.049722559E0,2.634755958E0,9.728891128E0
1.194119679E1,8.319512571E0,-1.564484528E0,2.604587249E0,8.856962007E0
1.195118179E1,7.520098788E0,-2.142331522E0,2.429207616E0,8.187949669E0
1.196116679E1,6.746519174E0,-2.671411568E0,2.314472381E0,7.616347099E0
1.197115279E1,6.161439174E0,-3.073984764E0,2.323747527E0,7.267222138E0
1.198113779E1,5.618080228E0,-3.520497447E0,2.442268542E0,7.065508004E0
1.199112379E1,5.019648111E0,-3.917380718E0,2.524919520E0,6.849668418E0
1.200110879E1,4.421412754E0,-4.300181555E0,2.692857693E0,6.729928283E0
1.201109379E1,4.139506500E0,-4.709224695E0,2.947204557E0,6.928082418E0
1.202107979E1,3.933976870E0,-5.176672164E0,3.080264381E0,7.194590841E0
1.203106479E1,3.474943544E0,-5.568068408E0,3.175847939E0,7.291407858E0
1.204104979E1,3.100579070E0,-5.957876548E0,3.173357610E0,7.428329694E0
1.205103579E1,2.750889262E0,-6.438314191E0,3.050538599E0,7.637084987E0
1.206102079E1,2.270906386E0,-6.998619538E0,2.866359200E0,7.896436304E0
1.207100579E1,1.620033954E0,-7.467636985E0,2.438949078E0,8.021133632E0
1.208099179E1,1.080401657E0,-7.647693220E0,1.781857548E0,7.926505891E0
1.209097679E1,7.988379778E-1,-7.784276576E0,1.352658032E0,7.941208200E0
1.210096179E1,5.061828610E-1,-7.817692829E0,1.152055558E0,7.918318904E0
1.211094779E1,2.668039186E-1,-7.840236769E0,9.255203900E-1,7.899182547E0
1.212093279E1,1.968642028E-1,-7.715582317E0,7.510758738E-1,7.754552274E0
1.213091779E1,1.988674589E-1,-7.699275602E0,6.769214849E-1,7.731533856E0
1.214090379E1,3.100462711E-1,-7.808032644E0,6.158724605E-1,7.838418294E0
1.215088879E1,3.982977122E-1,-7.811167336E0,4.136723810E-1,7.832247510E0
1.216087479E1,2.688821653E-1,-7.816697048E0,1.238223928E-1,7.822300323E0
1.217085979E1,-2.200190306E-2,-7.735373388E0,-9.664570391E-2,7.736008398E0
1.218084479E1,-4.179958123E-1,-7.625532272E0,-4.188554992E-1,7.648457548E0
1.219083079E1,-9.896424186E-1,-7.662552749E0,-7.462666851E-1,7.762153098E0
1.220081579E1,-2.036536680E0,-7.397953961E0,-1.077769314E0,7.748470246E0
1.221080079E1,-3.108301488E0,-6.785507239E0,-1.346590814E0,7.584059167E0
1.222078679E1,-4.136491676E0,-6.228305009E0,-1.316106502E0,7.591737811E0
1.223077179E1,-5.215988842E0,-5.441943966E0,-1.098663754E0,7.617634526E0
1.224075679E1,-5.888106401E0,-4.609039087E0,-7.814411956E-1,7.518223769E0
1.225074279E1,-6.652383095E0,-4.085396367E0,-4.206494249E-1,7.818031098E0
1.226072779E1,-8.118963014E0,-3.722760238E0,-1.334248365E-1,8.932765887E0
1.227071279E1,-9.810371883E0,-3.211736979E0,-8.544550851E-2,1.032307860E1
1.228069879E1,-1.120043280E1,-2.578058431E0,-1.665908284E-1,1.149451315E1
1.229068379E1,-1.227554397E1,-1.986476328E0,-3.819114751E-1,1.244109820E1
1.230066979E1,-1.281415205E1,-1.557522249E0,-7.852752149E-1,1.293232483E1
1.231065479E1,-1.267847326E1,-1.132194613E0,-1.332395968E0,1.279846975E1
1.232063979E1,-1.236452456E1,-7.265878808E-1,-1.836906452E0,1.252132672E1
1.233062579E1,-1.214103462E1,-5.142708027E-1,-1.918585038E0,1.230244547E1
1.234061079E1,-1.190658349E1,-3.863559437E-1,-1.611729446E0,1.202138400E1
1.235059579E1,-1.135317026E1,-2.846284246E-1,-1.299379372E0,1.143083002E1
1.236058179E1,-1.089804989E1,-2.291681689E-1,-1.013511922E0,1.094747532E1
1.237056679E1,-1.049891427E1,-2.330273312E-1,-5.805070384E-1,1.051753255E1
1.238055179E1,-1.025079820E1,-3.401623553E-1,-1.768771040E-1,1.025796567E1
1.239053779E1,-1.006584024E1,-6.277301753E-1,1.552728117E-1,1.008658984E1
1.240052279E1,-9.939983604E0,-1.008437124E0,4.534793481E-1,1.000129307E1
1.241050779E1,-9.676713889E0,-1.403373272E0,6.000193432E-1,9.796339696E0
1.242049379E1,-9.219650490E0,-1.881852098E0,5.407306230E-1,9.425269868E0
1.243047879E1,-8.744958905E0,-2.510407900E0,3.584834361E-1,9.105216332E0
1.244046379E1,-8.181553364E0,-3.021006067E0,1.866451702E-1,8.723481503E0
1.245044979E1,-7.402112501E0,-3.520234323E0,2.183764015E-1,8.199451654E0
1.246043479E1,-6.556384678E0,-4.091393271E0,4.444683503E-1,7.741009692E0
1.247041979E1,-5.616820738E0,-4.591026739E0,7.228392309E-1,7.290315375E0
1.248040579E1,-4.730370566E0,-4.964553307E0,1.058876376E0,6.938617615E0
1.249039079E1,-3.967547489E0,-5.373054410E0,1.287217748E0,6.802064121E0
1.250037679E1,-3.274582560E0,-5.769107376E0,1.398034033E0,6.779379767E0
1.251036179E1,-2.540069656E0,-6.081817054E0,1.335728588E0,6.724925531E0
1.252034679E1,-1.906648093E0,-6.292988078E0,1.184338181E0,6.681292003E0
1.253033279E1,-1.583114342E0,-6.479314283E0,9.843846023E-1,6.742164166E0
1.254031779E1,-1.311761728E0,-6.729133648E0,8.129208505E-1,6.903824939E0
1.255030279E1,-1.006266053E0,-7.011084048E0,7.625495727E-1,7.123857996E0
1.256028879E1,-6.551164868E-1,-7.219570615E0,8.389269269E-1,7.297614395E0
1.257027379E1,-2.259847985E-1,-7.425583810E0,1.071538667E0,7.505901622E0
1.258025879E1,3.895261944E-1,-7.406959843E0,1.202209758E0,7.513993151E0
1.259024479E1,1.066536155E0,-7.252809697E0,1.403459811E0,7.463943147E0
1.260022979E1,1.572947496E0,-7.045730554E0,1.420481055E0,7.357598066E0
1.261021479E1,1.994251224E0,-6.883365070E0,1.014895374E0,7.237939296E0
1.262020079E1,2.504557176E0,-6.636281033E0,3.927327709E-1,7.104032068E0
1.263018579E1,2.544726378E0,-6.343801551E0,1.207397407E-1,6.836229118E0
1.264017179E1,2.389080953E0,-6.059809889E0,5.692387229E-1,6.538580611E0
1.265015679E1,2.251811572E0,-5.837152010E0,1.102581389E0,6.352848547E0
1.266014179E1,1.870414652E0,-5.663486196E0,1.100090329E0,6.064958829E0
1.267012779E1,1.259144973E0,-5.462233220E0,6.504890004E-1,5.643099658E0
1.268011279E1,9.593424395E-1,-5.334295557E0,2.342944229E-1,5.424936947E0
1.269009779E1,4.719895864E-1,-5.331612854E0,3.354839981E-2,5.352569036E0
1.270008379E1,-5.838123232E-2,-5.207935472E0,1.665009275E-1,5.210923412E0
1.271006879E1,-1.910364291E-1,-5.014904265E0,6.794239470E-1,5.064323904E0
1.272005379E1,-2.201538089E-1,-4.912932333E0,1.023150473E0,5.023167198E0
1.273003979E1,3.379193634E-2,-4.661813716E0,1.313655349E0,4.843484221E0
1.274002479E1,7.444654503E-1,-4.235732959E0,1.503954152E0,4.556044402E0
1.275000979E1,1.690551082E0,-3.827853414E0,1.378676679E0,4.405811402E0
1.275999579E1,2.971788883E0,-3.329653684E0,1.178967075E0,4.616068261E0
1.276998079E1,4.288038934E0,-2.573377735E0,1.163987386E0,5.134629247E0
1.277996579E1,5.561734119E0,-1.872922230E0,1.359496350E0,6.024031409E0
1.278995179E1,6.533733734E0,-1.237770769E0,1.549130909E0,6.827998210E0
1.279993679E1,7.151010257E0,-7.115073270E-1,1.980809206E0,7.454313884E0
1.280992279E1,7.855228445E0,-2.174146807E-1,2.338917251E0,8.198927794E0
1.281990779E1,8.681041237E0,3.938748783E-1,2.422868650E0,9.021413795E0
1.282989279E1,9.727303414E0,9.063880080E-1,2.434337379E0,1.006816614E1
1.283987879E1,1.108121275E1,1.331389369E0,2.476016917E0,1.143225846E1
1.284986379E1,1.227934700E1,1.799152004E0,2.563908754E0,1.267252693E1
1.285984879E1,1.309749877E1,2.090260897E0,2.506677961E0,1.349804056E1
1.286983479E1,1.335292620E1,2.182887225E0,2.481600715E0,1.375587063E1
1.287981979E1,1.314206858E1,2.216115782E0,2.516360950E0,1.356308255E1
1.288980479E1,1.268125537E1,2.094228818E0,2.573652262E0,1.310815464E1
1.289979079E1,1.207056865E1,1.731188647E0,2.661906042E0,1.248124135E1
1.290977579E1,1.134536189E1,1.385800635E0,2.660349805E0,1.173520945E1
1.291976079E1,1.052039460E1,1.060287893E0,2.623693610E0,1.089434170E1
1.292974679E1,9.765082274E0,7.176866645E-1,2.682435324E0,1.015220987E1
1.293973179E1,9.060260653E0,2.880449528E-1,2.779394146E0,9.481367244E0
1.294971679E1,8.318709748E0,-9.597210467E-2,2.849561318E0,8.793755865E0
1.295970279E1,7.898070409E0,-3.332334048E-1,2.996125872E0,8.453835279E0
1.296968779E1,7.771307452E0,-6.113989019E-1,3.307172894E0,8.467846283E0
1.297967279E1,7.437451319E0,-1.101801370E0,3.729281638E0,8.392686692E0
1.298965879E1,7.006493983E0,-1.459469120E0,4.048077682E0,8.222404817E0
1.299964379E1,6.677336088E0,-1.888440156E0,4.307111675E0,8.167266032E0
1.300962979E1,6.357010996E0,-2.455609549E0,4.517646521E0,8.176230009E0
1.301961479E1,5.846019312E0,-3.067570953E0,4.380052766E0,7.922802256E0
1.302959979E1,5.137860686E0,-3.940216434E0,4.170953996E0,7.701933212E0
1.303958579E1,4.266321791E0,-4.781290458E0,3.884763780E0,7.493572559E0
1.304957079E1,3.510427665E0,-5.310622519E0,3.328031666E0,7.183425973E0
1.305955579E1,3.001111500E0,-6.027343808E0,2.781176962E0,7.284949479E0
1.306954179E1,2.316785540E0,-6.892750436E0,2.269686218E0,7.617675455E0
1.307952679E1,1.555068318E0,-7.472793644E0,1.622898651E0,7.803504492E0
1.308951179E1,1.188884026E0,-7.673803961E0,8.552359807E-1,7.812307025E0
1.309949779E1,9.469109666E-1,-7.708863866E0,2.374519193E-1,7.770431513E0
1.310948279E1,8.045768007E-1,-7.890565508E0,-2.502865577E-1,7.935427602E0
1.311946779E1,9.357990642E-1,-8.182604109E0,-5.861618806E-1,8.256773925E0
1.312945379E1,1.101303334E0,-8.426609003E0,-8.725653738E-1,8.542949061E0
1.313943879E1,1.062726767E0,-8.405404075E0,-1.138502004E0,8.548473119E0
1.314942379E1,6.951029634E-1,-8.295114478E0,-1.134946897E0,8.401202104E0
1.315940979E1,8.729512900E-2,-8.240848809E0,-1.151850613E0,8.321416308E0
1.316939479E1,-9.322493657E-1,-8.004246490E0,-1.289356221E0,8.160851072E0
1.317937979E1,-1.648398797E0,-7.305793657E0,-1.560782218E0,7.650351670E0
1.318936579E1,-1.916258869E0,-6.685539731E0,-1.642076495E0,7.145971226E0
1.319935079E1,-1.943073031E0,-6.032444919E0,-1.523250110E0,6.518145089E0
1.320933679E1,-1.775512880E0,-5.604942704E0,-1.305056434E0,6.022541075E0
1.321932179E1,-1.975886436E0,-5.271402320E0,-9.304329282E-1,5.705919300E0
1.322930679E1,-2.148496242E0,-5.021798133E0,-4.347375602E-1,5.479369428E0
1.323929279E1,-2.438281910E0,-4.580252075E0,-6.915092647E-2,5.189287966E0
1.324927779E1,-2.914444070E0,-4.047909867E0,1.740088986E-1,4.990975619E0
1.325926279E1,-3.522124727E0,-3.749075632E0,5.238998513E-1,5.170628757E0
1.326924879E1,-4.772698560E0,-3.575084129E0,9.073826194E-1,6.031850569E0
1.327923379E1,-6.297539551E0,-3.038209745E0,9.342083292E-1,7.054251771E0
1.328921879E1,-7.304040077E0,-2.144900789E0,5.784666525E-1,7.634410554E0
1.329920479E1,-8.552130012E0,-1.817999334E0,2.047401099E-1,8.745625640E0
1.330918979E1,-9.970475664E0,-1.757803418E0,-3.388613498E-1,1.012991041E1
1.331917479E1,-1.111020208E1,-1.618206992E0,-9.736868289E-1,1.126957187E1
1.332916079E1,-1.187467056E1,-1.528206648E0,-1.241835169E0,1.203683393E1
1.333914579E1,-1.243589099E1,-1.275342053E0,-1.070078179E0,1.254683026E1
1.334913179E1,-1.238555582E1,-9.637790143E-1,-7.588227037E-1,1.244615101E1
1.335911679E1,-1.198422282E1,-8.041652298E-1,-2.995391169E-1,1.201490749E1
1.336910179E1,-1.160985133E1,-7.872737932E-1,6.531325266E-2,1.163669686E1
1.337908779E1,-1.105532830E1,-7.995699030E-1,8.502538607E-2,1.108453089E1
1.338907279E1,-1.042830563E1,-8.957413977E-1,-1.131968325E-1,1.046731697E1
1.339905779E1,-9.879827449E0,-1.160663536E0,-4.390446192E-1,9.957454014E0
1.340904379E1,-9.518541443E0,-1.442649019E0,-7.378043023E-1,9.655476300E0
1.341902879E1,-9.056362900E0,-1.699738228E0,-8.470326295E-1,9.253339034E0
1.342901379E1,-8.765675005E0,-1.981262366E0,-7.572226131E-1,9.018638752E0
1.343899979E1,-8.476250694E0,-2.225457879E0,-5.419464053E-1,8.780273032E0
1.344898479E1,-7.973464993E0,-2.522100577E0,-2.944149095E-1,8.368023390E0
1.345896979E1,-7.491881295E0,-2.984031199E0,-1.705664966E-1,8.066090779E0
1.346895579E1,-7.108422062E0,-3.433590281E0,-9.571950495E-2,7.894831768E0
1.347894079E1,-6.603796826E0,-3.883557499E0,-5.815377563E-2,7.661301014E0
1.348892579E1,-5.963843631E0,-4.366729885E0,-3.566640750E-2,7.391686739E0
1.349891179E1,-5.287673952E0,-4.831673577E0,-1.630203724E-2,7.162739080E0
1.350889679E1,-4.669610101E0,-5.217355337E0,1.276786315E-1,7.003024849E0
1.351888225E1,-3.993693899E0,-5.627435188E0,3.867272419E-1,6.911380160E0
1.352886825E1,-3.207091074E0,-5.967995154E0,6.461049043E-1,6.805868854E0
1.353885325E1,-2.571720342E0,-6.343496912E0,8.451407629E-1,6.896953059E0
1.354883925E1,-2.152603618E0,-6.687761673E0,9.751081409E-1,7.093003202E0
1.355882425E1,-1.769222738E0,-6.863281639E0,1.027429465E0,7.161731303E0
1.356880925E1,-1.516649334E0,-7.074655561E0,1.020996943E0,7.307079531E0
1.357879525E1,-1.320835437E0,-7.182561248E0,9.894500452E-1,7.369722093E0
1.358878025E1,-1.261644951E0,-7.378518401E0,8.493741471E-1,7.533639109E0
1.359876525E1,-1.208376816E0,-7.688069413E0,6.374714904E-1,7.808518152E0
1.360875125E1,-1.135160905E0,-8.028313630E0,5.016688836E-1,8.123674149E0
1.361873625E1,-1.182056306E0,-8.349522235E0,6.751326755E-1,8.459762573E0
1.362872125E1,-1.032285943E0,-8.436222995E0,8.339209794E-1,8.539958834E0
1.363870725E1,-3.844424058E-1,-8.486511388E0,6.792412215E-1,8.522325982E0
1.364869225E1,7.674653269E-2,-8.583588617E0,5.578471774E-1,8.602039121E0
1.365867725E1,2.408006197E-1,-8.668338745E0,6.085220718E-1,8.693007572E0
1.366866325E1,6.387656254E-1,-8.548636885E0,8.186274406E-1,8.611467065E0
1.367864825E1,1.160288730E0,-7.953806069E0,1.089618697E0,8.111508480E0
1.368863325E1,1.676479466E0,-7.364859890E0,1.348671692E0,7.672721808E0
1.369861925E1,2.058954905E0,-6.960541300E0,1.403513605E0,7.393123895E0
1.370860425E1,2.329949084E0,-6.544783802E0,1.499938284E0,7.107226787E0
1.371859025E1,2.779873033E0,-5.829994433E0,1.810239201E0,6.707719071E0
1.372857525E1,3.239800398E0,-5.195974993E0,1.952598145E0,6.427060157E0
1.373856025E1,3.626040859E0,-4.750605440E0,1.618552854E0,6.191618343E0
1.374854625E1,3.888867063E0,-4.142918351E0,9.968154904E-1,5.768942764E0
1.375853125E1,4.024444698E0,-3.586765696E0,6.584189942E-1,5.430889325E0
1.376851625E1,4.530625878E0,-2.950234877E0,8.304496336E-1,5.469927172E0
1.377850225E1,5.052534606E0,-2.374879382E0,1.260847390E0,5.723451246E0
1.378848725E1,5.509897383E0,-1.899703647E0,1.523380356E0,6.023996251E0
1.379847225E1,6.243321244E0,-1.486534127E0,1.544033892E0,6.600976028E0
1.380845825E1,7.131771163E0,-9.882817715E-1,1.573557653E0,7.369867331E0
1.381844325E1,8.345398194E0,-3.093264788E-1,1.872595371E0,8.558502633E0
1.382842825E1,9.741075945E0,2.674399495E-1,2.291608599E0,1.001057215E1
1.383841425E1,1.102195940E1,7.186099398E-1,2.711136966E0,1.137322527E1
1.384839925E1,1.215702909E1,1.184989123E0,2.995183008E0,1.257651291E1
1.385838425E1,1.304393944E1,1.717857580E0,2.927608491E0,1.347836349E1
1.386837025E1,1.350045613E1,2.073560665E0,2.734604766E0,1.392982529E1
1.387835525E1,1.329775655E1,2.127878374E0,2.624020470E0,1.372019238E1
1.388834125E1,1.265144275E1,2.008696332E0,2.531088917E0,1.305757542E1
1.389832625E1,1.184119174E1,1.729977688E0,2.439333825E0,1.221298465E1
1.390831125E1,1.115807674E1,1.472396144E0,2.206057402E0,1.146897189E1
1.391829725E1,1.053746379E1,1.219897000E0,1.928914583E0,1.078179036E1
1.392828225E1,9.689028125E0,9.054009980E-1,1.913946003E0,9.917671414E0
1.393826725E1,8.861915497E0,6.721391934E-1,2.097041913E0,9.131423885E0
1.394825325E1,8.222543516E0,5.523016781E-1,2.501528903E0,8.612369352E0
1.395823825E1,7.967839386E0,4.646548390E-1,3.159088649E0,8.583834207E0
1.396822325E1,7.718210641E0,2.573663664E-1,3.735357772E0,8.578456191E0
1.397820925E1,7.199988289E0,-1.649756813E-1,4.152971176E0,8.313496132E0
1.398819425E1,6.613182192E0,-7.657338202E-1,4.409690841E0,7.985355364E0
1.399817925E1,6.100336940E0,-1.369533096E0,4.445124090E0,7.671301054E0
1.400816525E1,5.522879956E0,-1.966892833E0,4.094236772E0,7.150779340E0
1.401815025E1,5.113917507E0,-2.538738829E0,3.742341979E0,6.826600222E0
1.402813525E1,4.630672615E0,-3.253559774E0,3.212233407E0,6.507474436E0
1.403812125E1,3.979776064E0,-3.951168854E0,2.593187517E0,6.178589995E0
1.404810625E1,3.344657639E0,-4.595919104E0,2.130733570E0,6.070356883E0
1.405809125E1,2.919521207E0,-5.143348297E0,1.805907584E0,6.183764063E0
1.406807725E1,2.448363387E0,-5.672453486E0,1.621500143E0,6.387524915E0
1.407806225E1,1.930649305E0,-6.277033950E0,1.416341811E0,6.718227897E0
1.408804825E1,1.455301371E0,-6.745277810E0,1.137508562E0,6.993611409E0
1.409803325E1,1.106309866E0,-7.096749265E0,8.219892973E-1,7.229345618E0
1.410801825E1,9.627755591E-1,-7.344465972E0,5.994492397E-1,7.431517784E0
1.411800425E1,7.716537606E-1,-7.707830663E0,4.116045132E-1,7.757288272E0
1.412798925E1,5.975029209E-1,-7.876174926E0,1.225678727E-1,7.899757217E0
1.413797425E1,5.738621894E-1,-7.776731329E0,-3.104533835E-1,7.804053388E0
1.414796025E1,6.509446447E-1,-7.801135853E0,-5.250016129E-1,7.845831774E0
1.415794525E1,6.096612556E-1,-7.855227860E0,-5.514060308E-1,7.898122574E0
1.416793025E1,5.526823318E-1,-7.722569155E0,-5.226463544E-1,7.759941451E0
1.417791625E1,4.443079904E-1,-7.637605603E0,-3.566596895E-1,7.658827265E0
1.418790125E1,1.725510415E-1,-7.492685872E0,-2.261603612E-1,7.498084018E0
1.419788625E1,-3.059760243E-2,-7.243612027E0,-6.764892295E-2,7.243992530E0
1.420787225E1,2.038193196E-2,-6.876146098E0,1.387490188E-1,6.877576017E0
1.421785725E1,1.927499557E-1,-6.476312907E0,1.890790737E-1,6.481938931E0
1.422784225E1,1.986497962E-1,-6.127550467E0,1.203625953E-1,6.131951045E0
1.423782825E1,-1.571094221E-1,-6.230752069E0,2.386122993E-1,6.237298337E0
1.424781325E1,-1.235578648E0,-6.389732015E0,3.663815627E-1,6.518402049E0
1.425779925E1,-2.753902917E0,-6.086671997E0,2.627724096E-1,6.685851226E0
1.426778425E1,-4.046553898E0,-5.420180045E0,4.908269763E-2,6.764270787E0
1.427776925E1,-5.079070441E0,-4.621346306E0,-2.330378562E-1,6.870815444E0
1.428775525E1,-6.163724266E0,-4.125124689E0,-4.015864787E-1,7.427612148E0
1.429774025E1,-7.482747359E0,-3.665793740E0,-5.333906132E-1,8.349494436E0
1.430772525E1,-9.144731870E0,-3.059636282E0,-9.197065035E-1,9.686761853E0
1.431771125E1,-1.062463642E1,-2.612445322E0,-1.244417299E0,1.101164584E1
1.432769625E1,-1.190674838E1,-2.186205520E0,-1.724251218E0,1.222796769E1
1.433768125E1,-1.282649903E1,-1.691149837E0,-2.246020490E0,1.313101951E1
1.434766725E1,-1.308059798E1,-1.023012478E0,-2.437988088E0,1.334512585E1
1.435765225E1,-1.286630454E1,-3.035441673E-1,-2.307769718E0,1.307515708E1
1.436763725E1,-1.258549551E1,2.670025778E-1,-1.875209076E0,1.272723052E1
1.437762325E1,-1.249344397E1,6.720783824E-1,-1.416149438E0,1.259139829E1
1.438760825E1,-1.239455469E1,1.060952722E0,-1.117418991E0,1.248996524E1
1.439759325E1,-1.187362508E1,1.308595753E0,-7.935154036E-1,1.197184455E1
1.440757925E1,-1.114048714E1,1.500508972E0,-3.355129418E-1,1.124609043E1
1.441756425E1,-1.037438027E1,1.597919492E0,2.785867891E-1,1.050041539E1
1.442755025E1,-9.824582956E0,1.494874595E0,9.385956413E-1,9.981885698E0
1.443753525E1,-9.411301169E0,1.341385769E0,1.457587194E0,9.617508300E0
1.444752025E1,-8.970105359E0,9.883998853E-1,1.859081286E0,9.213897531E0
1.445750625E1,-8.562611731E0,5.186486131E-1,2.188835305E0,8.853152886E0
1.446749125E1,-8.261798798E0,2.144524813E-2,2.292647357E0,8.574031209E0
1.447747625E1,-7.863534415E0,-6.075105035E-1,2.282002208E0,8.210467501E0
1.448746225E1,-7.203655663E0,-1.171193787E0,2.127982747E0,7.602148405E0
1.449744725E1,-6.415215935E0,-1.786814378E0,1.893455605E0,6.923357224E0
1.450743225E1,-5.699819625E0,-2.482041888E0,1.542753936E0,6.405354432E0
1.451741804E1,-4.977548159E0,-3.103116177E0,1.174787778E0,5.982093447E0
1.452740304E1,-4.247446101E0,-3.736208249E0,9.479371530E-1,5.735733197E0
1.453738804E1,-3.699499429E0,-4.451173620E0,8.613103607E-1,5.851589370E0
1.454737404E1,-3.207481375E0,-5.135135883E0,6.832249296E-1,6.092975760E0
1.455735904E1,-2.760228435E0,-5.685945936E0,5.343419552E-1,6.343056324E0
1.456734404E1,-2.373790045E0,-6.119353840E0,5.084322117E-1,6.583302660E0
1.457733004E1,-2.017262503E0,-6.562969812E0,7.011312966E-1,6.901703113E0
1.458731504E1,-1.546334625E0,-6.953445704E0,9.369693844E-1,7.184669064E0
1.459730104E1,-1.260131399E0,-7.228458967E0,9.975542861E-1,7.404975674E0
1.460728604E1,-1.168613703E0,-7.416442273E0,8.490829557E-1,7.555806763E0
1.461727104E1,-9.803139170E-1,-7.585432652E0,5.239663634E-1,7.666442764E0
1.462725704E1,-7.708936957E-1,-7.768297305E0,2.156944299E-1,7.809433027E0
1.463724204E1,-6.444945080E-1,-7.910481709E0,-2.857621998E-2,7.936744335E0
1.464722704E1,-7.103189535E-1,-7.897574565E0,-2.557800168E-1,7.933578036E0
1.465721304E1,-5.512109896E-1,-7.919009289E0,-2.925438005E-1,7.943558620E0
1.466719804E1,-1.670629911E-1,-7.885356808E0,-2.102074027E-1,7.889927071E0
1.467718304E1,4.151552349E-2,-7.616346297E0,1.140025789E-1,7.617312586E0
1.468716904E1,5.209220105E-1,-7.378459929E0,4.930024329E-1,7.413236949E0
1.469715404E1,9.029559848E-1,-7.174666337E0,4.527104393E-1,7.245420161E0
1.470713904E1,8.700263666E-1,-6.898643845E0,2.933536398E-1,6.959474774E0
1.471712504E1,1.003088676E0,-6.728683997E0,2.053682470E-1,6.806140708E0
1.472711004E1,1.137548616E0,-6.503463868E0,8.477000892E-2,6.602745269E0
1.473709504E1,1.199981384E0,-6.160453334E0,3.721811235E-2,6.276346532E0
1.474708104E1,1.151454172E0,-5.924380773E0,-5.551171124E-2,6.035496318E0
1.475706604E1,1.192193770E0,-5.656663665E0,-1.152264011E-1,5.782079810E0
1.476705104E1,1.584369155E0,-5.174573599E0,1.968251726E-1,5.415272633E0
1.477703704E1,1.939127037E0,-4.697734331E0,7.682337973E-1,5.139951817E0
1.478702204E1,2.344013392E0,-4.360657552E0,1.218607982E0,5.098503553E0
1.479700804E1,3.207928687E0,-3.844020966E0,1.381937379E0,5.193944028E0
1.480699304E1,4.350860250E0,-3.297929615E0,1.440070982E0,5.646249117E0
1.481697804E1,5.426756408E0,-2.795181921E0,1.492204464E0,6.284059297E0
1.482696404E1,6.559819917E0,-2.199952324E0,1.644041160E0,7.111532810E0
1.483694904E1,7.527095566E0,-1.619827255E0,1.798289247E0,7.906633431E0
1.484693404E1,8.180903739E0,-1.173646109E0,2.079982077E0,8.522379751E0
1.485692004E1,8.799440922E0,-8.704036582E-1,2.481146679E0,9.183890891E0
1.486690504E1,9.316103820E0,-5.834439486E-1,2.959021488E0,9.792139980E0
1.487689004E1,9.893421056E0,-3.594476420E-1,3.062483876E0,1.036280803E1
1.488687604E1,1.102739030E1,-1.644962096E-1,2.676458884E0,1.134873684E1
1.489686104E1,1.234888676E1,3.766016185E-2,1.953837170E0,1.250255583E1
1.490684604E1,1.363680852E1,6.441930109E-1,1.088985443E0,1.369537953E1
1.491683204E1,1.431525978E1,1.143742864E0,7.199583077E-1,1.437891339E1
1.492681704E1,1.411737246E1,1.284911606E0,1.158802952E0,1.422301049E1
1.493680204E1,1.320625932E1,1.325383109E0,2.081821611E0,1.343487651E1
1.494678804E1,1.212249193E1,1.247492350E0,2.842825618E0,1.251370070E1
1.495677304E1,1.090692830E1,7.198776162E-1,3.291801149E0,1.141557110E1
1.496675804E1,9.692577385E0,2.506408989E-1,3.316858222E0,1.024745947E1
1.497674404E1,8.581992327E0,-1.946561480E-1,3.241764185E0,9.175920572E0
1.498672904E1,7.469396996E0,-6.675801194E-1,3.100346351E0,8.114782943E0
1.499671504E1,6.549660965E0,-9.915018332E-1,2.718336058E0,7.160341162E0
1.500670004E1,5.766740423E0,-1.376352119E0,2.383908067E0,6.390043657E0
1.501668504E1,5.246776187E0,-1.825580249E0,2.123101199E0,5.947181038E0
1.502667104E1,4.676618866E0,-2.250790941E0,1.936934039E0,5.539723581E0
1.503665604E1,4.004007218E0,-2.637601213E0,1.780695852E0,5.114674152E0
1.504664104E1,3.461524769E0,-2.942556313E0,1.682528703E0,4.844759459E0
1.505662704E1,3.047609729E0,-3.314473727E0,1.544810402E0,4.760262632E0
1.506661204E1,2.627066869E0,-3.811698142E0,1.553448493E0,4.883003715E0
1.507659704E1,2.258327709E0,-4.287783703E0,1.665965880E0,5.124507336E0
1.508658304E1,2.032904390E0,-4.619133135E0,1.809500406E0,5.361285564E0
1.509656804E1,1.882816596E0,-5.074785601E0,1.965749995E0,5.758699530E0
1.510655304E1,1.749738061E0,-5.681621920E0,1.951763163E0,6.257139152E0
1.511653904E1,1.384506061E0,-6.299054564E0,1.789537427E0,6.693085211E0
1.512652404E1,9.718892486E-1,-6.551596393E0,1.501136963E0,6.791273532E0
1.513650904E1,8.869319826E-1,-6.667079487E0,1.313875789E0,6.852945849E0
1.514649504E1,7.804075541E-1,-6.978716201E0,1.137110659E0,7.113686556E0
1.515648004E1,3.731189438E-1,-7.248094502E0,8.772457775E-1,7.310516522E0
1.516646604E1,1.368590525E-1,-7.357147413E0,6.965475181E-1,7.391314288E0
1.517645104E1,1.981831153E-1,-7.324229928E0,6.784217343E-1,7.358252281E0
1.518643604E1,3.610481711E-1,-7.262931227E0,6.551226264E-1,7.301349974E0
1.519642204E1,5.159913459E-1,-7.350352364E0,6.336975512E-1,7.395640576E0
1.520640704E1,4.396800654E-1,-7.562623249E0,5.775660351E-1,7.597379251E0
1.521639204E1,1.484982276E-1,-7.534081235E0,3.109046423E-1,7.541955547E0
1.522637804E1,-3.492701246E-1,-7.430777307E0,2.696829414E-1,7.443867939E0
1.523636304E1,-9.045224538E-1,-7.579490712E0,4.367770690E-1,7.645757943E0
1.524634804E1,-1.336683438E0,-7.249943976E0,3.673299810E-1,7.381283194E0
1.525633404E1,-1.811010742E0,-6.868684466E0,3.349776292E-1,7.111314661E0
1.526631904E1,-2.122545421E0,-6.339952914E0,1.789610517E-1,6.688215687E0
1.527630404E1,-2.053729540E0,-5.806991487E0,-2.870661288E-2,6.159527516E0
1.528629004E1,-2.404126277E0,-5.567110634E0,-1.508985096E-1,6.065914138E0
1.529627504E1,-3.560107071E0,-5.247049252E0,-2.575105003E-1,6.346038123E0
1.530626004E1,-5.182293093E0,-4.708422457E0,-5.282389238E-1,7.021712048E0
1.531624604E1,-6.666265554E0,-4.194131189E0,-7.689933506E-1,7.913354766E0
1.532623104E1,-7.552506396E0,-3.712495451E0,-9.701197350E-1,8.471369880E0
1.533621604E1,-8.218660380E0,-3.145057670E0,-1.072921388E0,8.865039565E0
1.534620204E1,-8.935933646E0,-2.618484911E0,-1.022592648E0,9.367660811E0
1.535618704E1,-9.837538047E0,-2.198554839E0,-9.281127530E-1,1.012285491E1
1.536617304E1,-1.069217176E1,-1.536433096E0,-1.088039364E0,1.085665664E1
1.537615804E1,-1.098811104E1,-8.670654827E-1,-1.354383837E0,1.110516737E1
1.538614304E1,-1.085846424E1,-4.187629670E-1,-1.666965461E0,1.099365189E1
1.539612904E1,-1.042967037E1,-8.277376950E-2,-1.927717073E0,1.060664738E1
1.540611404E1,-9.993100880E0,1.550471091E-1,-1.956891755E0,1.018408219E1
1.541609904E1,-9.703460222E0,3.571502709E-1,-1.790901582E0,9.873804995E0
1.542608504E1,-9.376050645E0,5.596299934E-1,-1.400002352E0,9.496500303E0
1.543607004E1,-8.964295565E0,7.642328399E-1,-9.205686754E-1,9.043787564E0
1.544605504E1,-8.503864170E0,9.873152268E-1,-3.564775488E-1,8.568405536E0
1.545604104E1,-8.027899062E0,1.171062809E0,1.882692343E-1,8.115047551E0
1.546602604E1,-7.517385095E0,1.263972727E0,6.879556194E-1,7.653887160E0
1.547601104E1,-7.034579329E0,1.202482823E0,9.550391811E-1,7.200234102E0
1.548599704E1,-6.668681624E0,9.569488817E-1,1.159294703E0,6.836009799E0
1.549598204E1,-6.313581387E0,6.950450760E-1,1.174738369E0,6.459443306E0
1.550596704E1,-5.842178861E0,4.863994646E-1,1.251767249E0,5.994544147E0
1.551595267E1,-5.443654277E0,1.946561480E-1,1.399755599E0,5.624106919E0
1.552593767E1,-5.071905847E0,-1.293374866E-1,1.576810459E0,5.312935943E0
1.553592367E1,-4.592848147E0,-4.521529073E-1,1.557134286E0,4.870663562E0
1.554590867E1,-4.187367130E0,-8.272219706E-1,1.385489855E0,4.487529589E0
1.555589367E1,-3.798406544E0,-1.182794663E0,1.163777179E0,4.145029892E0
1.556587967E1,-3.499501850E0,-1.450817580E0,9.289687854E-1,3.900559941E0
1.557586467E1,-3.376268564E0,-1.776018080E0,7.445569593E-1,3.886874670E0
1.558584967E1,-3.159040994E0,-2.043405989E0,6.252687898E-1,3.813923059E0
1.559583567E1,-2.961404813E0,-2.355406984E0,4.729868290E-1,3.813341981E0
1.560582067E1,-2.748291344E0,-2.667167659E0,3.089677522E-1,3.842180332E0
1.561580567E1,-2.473602601E0,-3.022773680E0,2.127295992E-1,3.911665174E0
1.562579167E1,-2.367853952E0,-3.332600681E0,1.568372342E-1,4.091156017E0
1.563577667E1,-2.300187634E0,-3.651877951E0,1.119420201E-1,4.317361085E0
1.564576167E1,-2.104622536E0,-3.984730117E0,2.333126754E-2,4.506445881E0
1.565574767E1,-2.178881005E0,-4.214477161E0,-3.823377371E-2,4.744554984E0
1.566573267E1,-2.131856966E0,-4.434468709E0,-1.277409044E-1,4.921955363E0
1.567571767E1,-1.798994275E0,-4.718692507E0,-2.123749655E-1,5.054457686E0
1.568570367E1,-1.570358641E0,-4.939258837E0,-4.035800868E-1,5.198574901E0
1.569568867E1,-1.311175691E0,-5.253901019E0,-8.232715917E-1,5.477265168E0
1.570567367E1,-8.678205775E-1,-5.390524721E0,-1.291331849E0,5.610562117E0
1.571565967E1,-3.004860735E-1,-5.460725808E0,-1.603349509E0,5.699170806E0
1.572564467E1,1.600845585E-1,-5.538481497E0,-1.720376560E0,5.801732488E0
1.573562967E1,4.048497366E-1,-5.393478734E0,-1.758167992E0,5.687237542E0
1.574561567E1,9.291686140E-1,-5.222687413E0,-1.574337671E0,5.533385693E0
1.575560067E1,1.687511407E0,-4.964801813E0,-1.053294916E0,5.348493430E0
1.576558667E1,2.415128691E0,-4.557654925E0,-1.443481663E-1,5.160029205E0
1.577557167E1,2.925392981E0,-4.194507165E0,8.252330402E-1,5.180040929E0
1.578555667E1,3.037859204E0,-3.864051188E0,1.269623476E0,5.076556303E0
1.579554267E1,3.123725274E0,-3.509906970E0,1.165185773E0,4.840946644E0
1.580552767E1,3.651916250E0,-3.091403035E0,9.165797049E-1,4.871692045E0
1.581551267E1,4.373111537E0,-2.589954007E0,8.319184542E-1,5.150150928E0
1.582549867E1,5.349141637E0,-2.054086513E0,9.892559177E-1,5.814741175E0
1.583548367E1,5.891765589E0,-1.534556140E0,9.520647025E-1,6.162320301E0
1.584546867E1,5.920449690E0,-1.135555007E0,7.733451408E-1,6.077768703E0
1.585545467E1,5.551410275E0,-8.661568254E-1,5.852595091E-1,5.648974454E0
1.586543967E1,5.142377075E0,-7.451720864E-1,3.933155921E-1,5.210951983E0
1.587542467E1,4.666931784E0,-6.110416371E-1,1.686489022E-1,4.709784136E0
1.588541067E1,4.129103427E0,-4.509536433E-1,3.358757615E-2,4.153791331E0
1.589539567E1,3.624351891E0,-4.592204368E-1,-7.681457967E-2,3.654136084E0
1.590538067E1,2.920807010E0,-5.282351232E-1,-2.153114372E-1,2.975988063E0
1.591536667E1,2.531229250E0,-4.623212153E-1,-2.587925023E-1,2.586085069E0
1.592535167E1,2.323703966E0,-3.690598798E-1,-2.439306343E-1,2.365440227E0
1.593533767E1,1.818300465E0,-3.060684103E-1,-1.453810769E-1,1.849602690E0
1.594532267E1,1.398353730E0,-1.909554452E-1,2.849628854E-1,1.439812828E0
1.595530767E1,1.483181626E0,7.712477446E-3,7.299167007E-1,1.653077617E0
1.596529367E1,2.000143610E0,2.188612819E-1,7.584125215E-1,2.150270744E0
1.597527867E1,2.507893890E0,3.660772151E-1,6.236464798E-1,2.610072647E0
1.598526367E1,2.719043864E0,3.568368602E-1,4.502578247E-1,2.779076139E0
1.599524967E1,2.705608424E0,3.705731392E-1,2.993686706E-1,2.747228239E0
1.600523467E1,2.715212476E0,3.770752430E-1,1.889238301E-1,2.747773051E0
1.601521967E1,2.669336976E0,3.664315563E-1,2.073448983E-1,2.702336745E0
1.602520567E1,2.316275663E0,3.555802935E-1,3.629208881E-1,2.371346002E0
1.603519067E1,1.853392530E0,3.662959009E-1,4.719612274E-1,1.947301712E0
1.604517567E1,1.318526372E0,2.831900096E-1,5.960072762E-1,1.474426346E0
1.605516167E1,7.384650376E-1,1.478983033E-1,6.465965089E-1,9.926185397E-1
1.606514667E1,1.806199068E-1,3.347647905E-2,5.829679853E-1,6.112249154E-1
1.607513167E1,-1.549915606E-1,6.102154255E-2,3.659944770E-1,4.021168607E-1
1.608511767E1,-2.234343892E-1,1.655680043E-1,3.023712158E-2,2.797319679E-1
1.609510267E1,-1.432839730E-1,5.559474170E-2,-4.065206516E-1,4.346033967E-1
1.610508767E1,8.704516053E-2,-3.609661639E-2,-7.608420396E-1,7.666553560E-1
1.611507367E1,1.607995999E-1,1.162999499E-1,-6.927842501E-1,7.206470751E-1
1.612505867E1,-7.573226005E-2,1.615965754E-1,-2.759716219E-1,3.286474775E-1
1.613504467E1,-2.580539989E-1,1.701539755E-1,1.682524610E-1,3.519277374E-1
1.614502967E1,-2.579952344E-1,2.378758425E-1,3.589839578E-1,5.020118916E-1
1.615501467E1,-2.222570524E-1,2.082982868E-1,2.276119325E-1,3.802546060E-1
1.616500067E1,1.234604502E-1,1.970652008E-1,-1.583630651E-1,2.813468260E-1
1.617498567E1,4.288593543E-1,1.885206646E-1,-5.104367834E-1,6.928247228E-1
1.618497067E1,2.905484381E-1,9.255674601E-2,-5.658759892E-1,6.428069549E-1
1.619495667E1,2.825959325E-3,1.426896036E-2,-3.527449787E-1,3.530447695E-1
1.620494167E1,-8.431714207E-2,3.733505666E-2,-1.031583327E-1,1.383651998E-1
1.621492667E1,-7.902599663E-2,1.900871336E-1,5.097947592E-1,5.497898899E-1
1.622491267E1,4.992618772E-1,3.868915486E-1,1.122086239E0,1.287643203E0
1.623489767E1,8.977624878E-1,5.585997140E-1,1.481580658E0,1.820190202E0
1.624488267E1,9.214717779E-1,7.556169677E-1,2.609476106E0,2.868698796E0
1.625486867E1,9.832172057E-1,1.149945590E0,3.042166263E0,3.397626599E0
1.626485367E1,7.539578202E-1,9.410117108E-1,1.530039750E0,1.948070089E0
1.627483867E1,1.278347522E-2,2.093864536E-1,2.713748333E-1,3.430020471E-1
1.628482467E1,-5.853156424E-1,-2.089789027E-1,-7.128700206E-1,9.457537995E-1
1.629480967E1,-1.005005101E0,-4.289189959E-1,-1.407036845E0,1.781504825E0
1.630479467E1,-7.156951028E-1,-3.695077765E-1,-1.333018111E0,1.557463567E0
1.631478067E1,-3.672066048E-1,-1.172372586E-1,-6.847861362E-1,7.858227012E-1
1.632476567E1,1.229610980E-1,9.381799042E-2,5.179025084E-2,1.631057234E-1
1.633475167E1,4.468746257E-1,3.102579403E-1,3.863729006E-1,6.672637701E-1
1.634473667E1,3.861831585E-1,3.363482165E-1,3.177251270E-1,6.026747141E-1
1.635472167E1,1.675154194E-1,2.032392758E-1,1.201234442E-1,2.894775653E-1
1.636470767E1,-8.999741971E-3,1.649119467E-1,1.392455935E-2,1.657432920E-1
1.637469267E1,-3.123187914E-1,8.829412580E-2,-1.041166914E-1,3.408506499E-1
1.638467767E1,-6.019939479E-1,-4.506156743E-2,-2.130830634E-1,6.401809511E-1
1.639466367E1,-6.321313745E-1,-1.007785159E-1,-3.201119605E-1,7.156941044E-1
1.640464867E1,-4.494938859E-1,-1.987585545E-2,-3.218073606E-1,5.531724690E-1
1.641463367E1,-3.651337668E-1,1.737400728E-1,-2.350709331E-1,4.677249450E-1
1.642461967E1,-3.903390670E-1,2.052273291E-1,-1.627885303E-1,4.700882358E-1
1.643460467E1,-4.366305962E-1,1.327066523E-1,-1.389014849E-1,4.770230137E-1
1.644458967E1,-4.781905586E-1,1.246374947E-1,-1.459576124E-1,5.152711325E-1
1.645457567E1,-6.306853580E-1,8.462558270E-2,-2.474249303E-2,6.368184208E-1
1.646456067E1,-8.913533548E-1,2.111137211E-2,2.421647751E-1,9.239049039E-1
1.647454567E1,-1.029109370E0,9.782976508E-2,4.132812023E-1,1.113300548E0
1.648453167E1,-1.026358840E0,2.094899493E-1,4.659552598E-1,1.146478439E0
1.649451667E1,-8.435403800E-1,2.177392012E-1,5.315455243E-1,1.020544647E0
