"Time (s)","Linear Acceleration x (m/s^2)","Linear Acceleration y (m/s^2)","Linear Acceleration z (m/s^2)","Absolute acceleration (m/s^2)"
3.333541681E-3,2.343042535E-1,3.783815110E-1,4.336419381E-2,4.471593724E-1
1.331854169E-2,1.847716857E-1,5.078137225E-1,-7.578101121E-2,5.456721674E-1
2.330454171E-2,2.568370837E-1,5.292279804E-1,-5.149408937E-2,5.905075648E-1
3.328954172E-2,3.057649032E-1,5.663040054E-1,3.063867912E-3,6.435851069E-1
4.327554168E-2,2.961786490E-1,6.074315661E-1,9.973011017E-2,6.831112607E-1
5.326054170E-2,3.382147940E-1,6.224279201E-1,2.418526069E-1,7.485308584E-1
6.324554171E-2,4.034415444E-1,6.324009311E-1,3.992502967E-1,8.497628003E-1
7.323154167E-2,4.474423903E-1,6.249264354E-1,5.092246556E-1,9.219802016E-1
8.321654168E-2,4.330569242E-1,6.832822323E-1,4.635215025E-1,9.323438699E-1
9.320254170E-2,4.019923120E-1,6.442871511E-1,3.427707982E-1,8.331839965E-1
1.031875417E-1,4.271324887E-1,6.365600556E-1,1.490876269E-1,7.809468534E-1
1.131735417E-1,3.889447619E-1,5.403955775E-1,3.455455944E-2,6.667079013E-1
1.231585417E-1,4.028865705E-1,4.874771065E-1,-2.847827911E-2,6.330580782E-1
1.331435417E-1,4.798984937E-1,5.135609508E-1,-6.137471437E-2,7.055595439E-1
1.431295417E-1,4.432892227E-1,5.933362681E-1,-8.096288681E-2,7.450558711E-1
1.531145417E-1,5.879848963E-1,6.748411918E-1,-3.759525776E-2,8.958517041E-1
1.631005417E-1,9.027203420E-1,7.091392046E-1,9.273786351E-2,1.151686910E0
1.730855417E-1,1.035065271E0,7.218843806E-1,2.868048314E-1,1.294115213E0
1.830715417E-1,1.036129464E0,7.760272586E-1,4.886528353E-1,1.383677768E0
1.930565417E-1,1.107179201E0,9.273800969E-1,6.070661151E-1,1.566655321E0
2.030415417E-1,1.333566872E0,1.092242342E0,6.831698196E-1,1.854215451E0
2.130275417E-1,1.653270843E0,1.238487638E0,7.242197585E-1,2.188983867E0
2.230125417E-1,1.982702242E0,1.336881659E0,7.430875540E-1,2.504104604E0
2.329985417E-1,2.251658375E0,1.422094302E0,8.199223065E-1,2.786501432E0
2.429835417E-1,2.307661545E0,1.545786302E0,9.348187785E-1,2.930638709E0
2.529695417E-1,2.352360146E0,1.627957808E0,1.217846382E0,3.109179103E0
2.629545417E-1,2.823085418E0,1.931621259E0,1.504549252E0,3.736929277E0
2.729395417E-1,3.506485472E0,2.238297195E0,1.478217047E0,4.414809207E0
2.829255417E-1,4.006917669E0,2.292504977E0,1.462801594E0,4.842598144E0
2.929105417E-1,4.215356289E0,2.351704527E0,1.453937069E0,5.041197857E0
3.028965417E-1,4.085724688E0,2.235778799E0,1.567599048E0,4.914185572E0
3.128815417E-1,3.750954635E0,2.028188025E0,1.707597616E0,4.593375334E0
3.228675417E-1,3.387560122E0,1.777826623E0,1.700915272E0,4.186805924E0
3.328525417E-1,3.232272693E0,1.504496189E0,1.416058952E0,3.836185410E0
3.428375417E-1,2.789608647E0,1.246831614E0,1.240843627E0,3.297908183E0
3.528235417E-1,2.414779904E0,1.152732373E0,1.410232641E0,3.024683456E0
3.628085417E-1,2.231280975E0,1.030536091E0,1.426439076E0,2.841715654E0
3.727945417E-1,1.746526770E0,8.366476822E-1,1.601277256E0,2.512851757E0
3.827795417E-1,1.107452266E0,6.843019867E-1,1.894291757E0,2.298491025E0
3.927655417E-1,3.554936817E-1,5.083054733E-1,2.236206815E0,2.320640242E0
4.027505417E-1,-2.215929548E-1,2.901195449E-1,2.510557297E0,2.536960923E0
4.127355417E-1,-6.695541394E-1,-6.610511184E-2,2.681011819E0,2.764144896E0
4.227215417E-1,-1.207110455E0,-5.699585152E-1,2.797695346E0,3.099849611E0
4.327065417E-1,-2.001776883E0,-1.088611806E0,2.661489135E0,3.503671042E0
4.426925417E-1,-2.963425026E0,-1.538939797E0,2.351546360E0,4.084114821E0
4.526775417E-1,-4.366655626E0,-2.039198332E0,1.986580701E0,5.212726165E0
4.626635417E-1,-6.543002740E0,-2.575693817E0,1.562530389E0,7.203234323E0
4.726485417E-1,-9.077080169E0,-3.193620551E0,1.045426610E0,9.679127720E0
4.826335417E-1,-1.177336170E1,-4.043748989E0,6.081648070E-1,1.246329876E1
4.926195417E-1,-1.465524263E1,-5.016588848E0,1.362108886E-2,1.549007700E1
5.026045417E-1,-1.702676804E1,-6.025367450E0,-5.727742419E-1,1.807052720E1
5.125905417E-1,-1.895395770E1,-7.108488720E0,-1.306571740E0,2.028522255E1
5.225755417E-1,-2.025891590E1,-7.985199770E0,-1.645311175E0,2.183790598E1
5.325615417E-1,-2.011560298E1,-8.767415721E0,-1.587458239E0,2.200057012E1
5.425465417E-1,-1.898784465E1,-9.589827772E0,-1.481935292E0,2.132367636E1
5.525315417E-1,-1.732458428E1,-1.034238665E1,-1.195913183E0,2.021228315E1
5.625168334E-1,-1.558656024E1,-1.089364577E1,-3.008860230E-1,1.901848865E1
5.725018334E-1,-1.412196136E1,-1.145270975E1,1.016696901E0,1.821065693E1
5.824878333E-1,-1.299992394E1,-1.201948036E1,2.535380189E0,1.788558311E1
5.924728333E-1,-1.199866661E1,-1.253865698E1,4.055913244E0,1.782235539E1
6.024588334E-1,-1.119677127E1,-1.309021197E1,5.402617933E0,1.805296698E1
6.124438334E-1,-1.038684069E1,-1.371065183E1,6.329786945E0,1.832851974E1
6.224288334E-1,-9.540423478E0,-1.444042060E1,6.598446624E0,1.852255180E1
6.324148334E-1,-9.113399565E0,-1.516831592E1,6.435935544E0,1.882958114E1
6.423998334E-1,-8.888789885E0,-1.572744071E1,6.681537312E0,1.926151390E1
6.523858334E-1,-8.313717980E0,-1.592346745E1,7.637579291E0,1.951940931E1
6.623708333E-1,-7.219562429E0,-1.599090689E1,9.043311914E0,1.973860875E1
6.723568334E-1,-5.230646058E0,-1.584115502E1,9.745169581E0,1.932020137E1
6.823418334E-1,-2.692430554E0,-1.534595433E1,9.459461761E0,1.822714770E1
6.923268334E-1,-8.949795055E-1,-1.479022560E1,9.580466380E0,1.764474703E1
7.023128333E-1,3.955401653E-1,-1.421939000E1,1.040845083E1,1.762621209E1
7.122978334E-1,1.714078524E0,-1.358009403E1,1.147202427E1,1.785957334E1
7.222838334E-1,3.844791629E0,-1.275372459E1,1.249207689E1,1.826176055E1
7.322688334E-1,7.106062710E0,-1.188617437E1,1.236606471E1,1.856601263E1
7.422548333E-1,1.125181813E1,-1.108061049E1,1.125928853E1,1.939471367E1
7.522398334E-1,1.557181122E1,-9.771744007E0,9.709396316E0,2.079039832E1
7.622248334E-1,1.937658158E1,-8.195055755E0,8.272613808E0,2.260634849E1
7.722108334E-1,2.237594710E1,-6.915255200E0,6.507601942E0,2.430746071E1
7.821958333E-1,2.528928722E1,-6.153532569E0,4.172419308E0,2.635949723E1
7.921818334E-1,2.851995573E1,-5.016726258E0,1.972391555E0,2.902491594E1
8.021668334E-1,3.093690466E1,-4.142871573E0,5.051848143E-1,3.121715340E1
8.121528334E-1,3.268486663E1,-4.003861915E0,-6.428364569E-1,3.293546197E1
8.221378333E-1,3.401293536E1,-3.732811602E0,-1.525895098E0,3.425116071E1
8.321228334E-1,3.434685815E1,-3.793715908E0,-1.653508387E0,3.459527476E1
8.421088334E-1,3.366874954E1,-3.784588112E0,-1.265888275E0,3.390442856E1
8.520938334E-1,3.184150868E1,-3.737056680E0,-6.837815114E-1,3.206734827E1
8.620798333E-1,2.891928313E1,-4.058642139E0,2.325221318E-1,2.920362271E1
8.720648334E-1,2.535685297E1,-4.611427090E0,1.360106215E0,2.580862532E1
8.820508334E-1,2.178096017E1,-5.457903941E0,2.425400494E0,2.258498414E1
8.920358334E-1,1.902204502E1,-6.439659635E0,3.151664439E0,2.032831527E1
9.020208333E-1,1.767673752E1,-7.280951761E0,3.538715032E0,1.944226869E1
9.120068334E-1,1.726477662E1,-8.111220716E0,4.377508643E0,1.957107547E1
9.219918334E-1,1.670681425E1,-9.020415387E0,6.160794811E0,1.996098517E1
9.319778334E-1,1.597413357E1,-9.778549581E0,8.287930005E0,2.048127826E1
9.419628333E-1,1.499604993E1,-1.084267910E1,1.020822111E1,2.113416622E1
9.519488334E-1,1.405560715E1,-1.196508021E1,1.163019379E1,2.181707232E1
9.619338334E-1,1.332907891E1,-1.304671453E1,1.270724390E1,2.256889790E1
9.719188334E-1,1.260847390E1,-1.437005638E1,1.386529315E1,2.361606420E1
9.819048333E-1,1.181007754E1,-1.569434430E1,1.496956204E1,2.469571141E1
9.918898334E-1,1.041696905E1,-1.720098817E1,1.616646954E1,2.580197620E1
1.001875833E0,8.137873494E0,-1.880107406E1,1.744357278E1,2.690694338E1
1.011860833E0,5.662036672E0,-2.010645560E1,1.840715883E1,2.784154652E1
1.021846833E0,3.746762474E0,-2.115619453E1,1.862340758E1,2.843332738E1
1.031831833E0,2.462715963E0,-2.174262348E1,1.803906258E1,2.835867459E1
1.041816833E0,7.723971610E-1,-2.192453036E1,1.749550658E1,2.806019208E1
1.051802833E0,-5.411575428E-1,-2.175574697E1,1.680583451E1,2.749620795E1
1.061787833E0,-1.678793355E0,-2.127717576E1,1.571614155E1,2.650535155E1
1.071773833E0,-3.748285966E0,-2.066346838E1,1.455842911E1,2.555340351E1
1.081758833E0,-6.058585482E0,-1.987524734E1,1.311302663E1,2.456996911E1
1.091744833E0,-8.137172413E0,-1.888788884E1,1.124515932E1,2.343969982E1
1.101729833E0,-9.982599281E0,-1.769596667E1,9.048575578E0,2.224131842E1
1.111714833E0,-1.160859535E1,-1.678566629E1,6.428702538E0,2.139734318E1
1.121700833E0,-1.412027502E1,-1.611411825E1,3.644882927E0,2.173320375E1
1.131685833E0,-1.837083359E1,-1.517900931E1,1.629099185E0,2.388605900E1
1.141671833E0,-2.208447042E1,-1.397898758E1,6.027432686E-1,2.614381814E1
1.151656833E0,-2.476756823E1,-1.268456606E1,-1.258016753E-1,2.782708174E1
1.161642833E0,-2.566519302E1,-1.162685153E1,-9.546585274E-1,2.819214752E1
1.171627833E0,-2.467295794E1,-1.057486025E1,-1.781233211E0,2.690270088E1
1.181612833E0,-2.275387838E1,-9.270026007E0,-2.015826427E0,2.465230049E1
1.191598833E0,-1.992863475E1,-8.334834614E0,-1.976351874E0,2.169160939E1
1.201583833E0,-1.685209651E1,-7.400464756E0,-2.157826644E0,1.853149350E1
1.211569833E0,-1.429856247E1,-6.244007122E0,-2.224445141E0,1.576022430E1
1.221554833E0,-1.203375458E1,-4.978883663E0,-1.770413523E0,1.314286483E1
1.231540833E0,-9.593094612E0,-3.608790988E0,-1.031457612E0,1.030120097E1
1.241525833E0,-6.803213192E0,-2.396890056E0,-3.758540520E-1,7.222884323E0
1.251510833E0,-3.954081936E0,-1.292298394E0,2.771287858E-1,4.169124544E0
1.261496833E0,-1.488969492E0,-1.460903442E-1,9.084424272E-1,1.750325736E0
1.271481833E0,3.785317844E-1,8.973470432E-1,1.601555291E0,1.874432548E0
1.281467833E0,1.795214781E0,1.699131287E0,2.140235880E0,3.269625798E0
1.291452833E0,2.842253176E0,2.152313304E0,2.261759732E0,4.222133674E0
1.301438833E0,3.433710441E0,2.372458634E0,2.120119119E0,4.681221256E0
1.311423833E0,3.223618813E0,2.396254463E0,1.904583734E0,4.445356331E0
1.321408833E0,2.401473980E0,2.326709434E0,1.528223020E0,3.676427569E0
1.331394833E0,1.518003257E0,2.110605115E0,1.031451472E0,2.796941182E0
1.341379833E0,1.092195565E0,1.815590281E0,5.314089918E-1,2.184411760E0
1.351365833E0,9.283656451E-1,1.544348472E0,1.787780339E-1,1.810755798E0
1.361350833E0,8.503018078E-1,1.206855370E0,6.621796310E-2,1.477801701E0
1.371336833E0,6.559549776E-1,7.643345815E-1,7.638977945E-2,1.010108748E0
1.381321833E0,3.441460633E-1,4.332301480E-1,-2.141425788E-2,5.536997783E-1
1.391306833E0,1.156029618E-1,2.571582055E-1,-2.364552614E-1,3.679748335E-1
1.401292833E0,-1.640524060E-2,1.090651900E-1,-3.558521891E-1,3.725521816E-1
1.411277833E0,-2.888126922E-1,-2.611951232E-3,-2.428220022E-1,3.773355512E-1
1.421263833E0,-4.833007327E-1,-3.408868253E-2,-4.073462784E-2,4.862108045E-1
1.431248833E0,-4.163109371E-1,-7.484026730E-2,1.152421886E-1,4.384023540E-1
1.441234833E0,-1.636708751E-1,-1.524117690E-1,1.621269178E-1,2.762293254E-1
1.451219833E0,1.627689421E-2,-1.245445240E-1,5.426830083E-2,1.368258901E-1
1.461204833E0,1.644710666E-1,-4.609067738E-2,-6.101861894E-2,1.813790345E-1
1.471190833E0,3.015096286E-1,-4.567844868E-2,-1.247298807E-1,3.294724874E-1
1.481175833E0,4.003196794E-1,-1.250836372E-2,-1.911758852E-1,4.438023478E-1
1.491161833E0,4.800528967E-1,1.059053546E-1,-1.593781418E-1,5.167863387E-1
1.501146833E0,4.528838092E-1,1.486584413E-1,-4.436604112E-2,4.787185211E-1
1.511132833E0,4.652173412E-1,1.485613775E-1,3.751339674E-2,4.898008905E-1
1.521117833E0,3.277048624E-1,1.382147294E-1,1.549096996E-1,3.879314414E-1
1.531102833E0,-9.689947307E-2,1.351291537E-2,2.729117739E-1,2.899188561E-1
1.541088833E0,-6.720450532E-1,-2.078392804E-1,2.966608250E-1,7.634457185E-1
1.551073833E0,-1.392967859E0,-4.214041543E-1,2.173781356E-1,1.471459878E0
1.561060083E0,-2.406278930E0,-6.824390638E-1,1.399232858E-1,2.505090795E0
1.571045083E0,-3.648558779E0,-1.078164586E0,4.311356753E-2,3.804770534E0
1.581031083E0,-5.171890896E0,-1.609488793E0,-2.172416031E-2,5.416583938E0
1.591016083E0,-7.214670063E0,-2.265144686E0,1.709141135E-3,7.561901050E0
1.601001083E0,-9.691778655E0,-3.069358447E0,2.527108133E-2,1.016622710E1
1.610987083E0,-1.231547811E1,-3.936059648E0,8.182008862E-3,1.292917761E1
1.620972083E0,-1.458085318E1,-4.856114354E0,-7.755776078E-2,1.536844629E1
1.630958083E0,-1.612770484E1,-5.841047425E0,-1.854701722E-1,1.715386539E1
1.640943083E0,-1.702335678E1,-6.768179015E0,-2.086625683E-1,1.832065674E1
1.650929083E0,-1.721911571E1,-7.649152685E0,-8.361986160E-2,1.884182780E1
1.660914083E0,-1.654917449E1,-8.498088875E0,3.888895422E-1,1.860763085E1
1.670899083E0,-1.532388226E1,-9.259481723E0,1.421122203E0,1.796048322E1
1.680885083E0,-1.412057557E1,-1.004105039E1,2.972251398E0,1.757975044E1
1.690870083E0,-1.291827927E1,-1.073512775E1,4.569005832E0,1.740691591E1
1.700856083E0,-1.164560472E1,-1.133876038E1,5.839509022E0,1.727100060E1
1.710841083E0,-1.052836903E1,-1.212506470E1,6.912028706E0,1.748255958E1
1.720827083E0,-9.603631879E0,-1.286345344E1,7.865335357E0,1.787628820E1
1.730812083E0,-8.448650082E0,-1.347102592E1,8.708077008E0,1.812950172E1
1.740797083E0,-6.846844531E0,-1.417028742E1,9.493994247E0,1.837966954E1
1.750783083E0,-5.189576969E0,-1.481531249E1,1.035941023E1,1.880804545E1
1.760768083E0,-3.608473777E0,-1.523868833E1,1.117287253E1,1.923724995E1
1.770754083E0,-2.358871167E0,-1.525782276E1,1.161508342E1,1.932034139E1
1.780739083E0,-1.518276907E0,-1.530997173E1,1.181922492E1,1.940088856E1
1.790725083E0,-1.263090967E0,-1.523840766E1,1.198002452E1,1.942486691E1
1.800710083E0,-1.026554137E0,-1.521591927E1,1.196306292E1,1.938279874E1
1.810695083E0,-4.108423287E-1,-1.537086113E1,1.171668698E1,1.933165583E1
1.820681083E0,6.685109961E-1,-1.529418776E1,1.077388193E1,1.871992569E1
1.830666083E0,1.636160282E0,-1.530174236E1,1.017733378E1,1.844989059E1
1.840652083E0,2.960921248E0,-1.581350354E1,1.007384742E1,1.898200070E1
1.850637083E0,5.398726611E0,-1.571375121E1,9.360103533E0,1.907038973E1
1.860623083E0,7.366601776E0,-1.518844437E1,9.081868454E0,1.916862016E1
1.870608083E0,1.011120879E1,-1.489608827E1,9.028006243E0,2.014037948E1
1.880593083E0,1.521263430E1,-1.344934094E1,7.060619320E0,2.149793849E1
1.890579083E0,1.922688000E1,-1.136549268E1,5.043215314E0,2.289719107E1
1.900564083E0,2.165721905E1,-1.012952344E1,4.079565523E0,2.425459208E1
1.910550083E0,2.445829730E1,-8.815298570E0,2.314199901E0,2.610121294E1
1.920535083E0,2.601260651E1,-8.080813440E0,5.826322820E-1,2.724508586E1
1.930521083E0,2.632909056E1,-8.033294288E0,-3.265681636E-1,2.752928393E1
1.940506083E0,2.667208589E1,-7.534341436E0,-1.818595165E0,2.777541638E1
1.950491083E0,2.655979830E1,-7.162143940E0,-3.476768460E0,2.772737115E1
1.960477083E0,2.636500416E1,-6.886921932E0,-4.424655912E0,2.760653397E1
1.970462083E0,2.636597012E1,-6.522884810E0,-4.740504375E0,2.757144879E1
1.980448083E0,2.622624038E1,-6.582497174E0,-4.328690824E0,2.738398287E1
1.990433083E0,2.635356467E1,-6.636705540E0,-3.764161448E0,2.743583683E1
2.000419083E0,2.568421518E1,-6.701932985E0,-2.773263048E0,2.668868305E1
2.010404083E0,2.339000633E1,-7.062058904E0,-1.083497904E0,2.445688123E1
2.020389083E0,2.033204586E1,-7.388040592E0,6.482245930E-1,2.164244505E1
2.030375083E0,1.804425958E1,-7.466448830E0,1.474252051E0,1.958357937E1
2.040360083E0,1.575046939E1,-7.939114940E0,2.209681506E0,1.777609418E1
2.050346083E0,1.387352486E1,-8.329531775E0,3.376691025E0,1.653051221E1
2.060331083E0,1.254281318E1,-8.680175849E0,5.062843248E0,1.607171419E1
2.070316083E0,1.182747768E1,-9.156521026E0,6.877016748E0,1.646282069E1
2.080302083E0,1.181265148E1,-9.789717763E0,8.340377190E0,1.746250843E1
2.090287083E0,1.209454224E1,-1.065524309E1,9.373900623E0,1.864623743E1
2.100273083E0,1.225690538E1,-1.166674474E1,1.027410637E1,1.979651293E1
2.110258083E0,1.223426029E1,-1.283964007E1,1.124421090E1,2.099918476E1
2.120244083E0,1.183728814E1,-1.410641712E1,1.216347156E1,2.206949104E1
2.130229083E0,1.101305293E1,-1.537890807E1,1.274460644E1,2.280840068E1
2.140214083E0,9.625503389E0,-1.684432205E1,1.334025411E1,2.354450850E1
2.150200083E0,7.600431930E0,-1.834885742E1,1.408597525E1,2.434875424E1
2.160185083E0,4.947543172E0,-1.989824327E1,1.482598366E1,2.530272831E1
2.170171083E0,2.383338256E0,-2.123800877E1,1.496197937E1,2.608819933E1
2.180156083E0,-1.792373326E-1,-2.206575465E1,1.443915175E1,2.637079365E1
2.190142083E0,-3.609481837E0,-2.237449232E1,1.402088522E1,2.665016863E1
2.200127083E0,-7.923808098E0,-2.155372567E1,1.368192212E1,2.673097114E1
2.210113083E0,-1.260127364E1,-2.006886736E1,1.266726532E1,2.687026507E1
2.220098083E0,-1.628353899E1,-1.816965780E1,1.042443010E1,2.653222285E1
2.230083083E0,-1.714828137E1,-1.558935638E1,7.098661305E0,2.423803991E1
2.240069083E0,-1.557893313E1,-1.295026120E1,3.831236029E0,2.061773004E1
2.250054083E0,-1.316757882E1,-1.083004443E1,1.630004334E0,1.712693517E1
2.260040083E0,-1.126354297E1,-9.355983585E0,4.706032115E-1,1.465002718E1
2.270025083E0,-1.068388743E1,-8.267415633E0,-7.228737295E-2,1.350928708E1
2.280010083E0,-1.139752841E1,-7.391850638E0,-1.622587726E-1,1.358563350E1
2.289996083E0,-1.266371723E1,-6.832247542E0,9.137911677E-2,1.438949932E1
2.299981083E0,-1.326038699E1,-6.198766045E0,1.846822599E-1,1.463887534E1
2.309967083E0,-1.348454936E1,-5.365347780E0,1.010626906E-1,1.451310587E1
2.319952083E0,-1.349893585E1,-4.690658616E0,3.934585565E-1,1.429609586E1
2.329938083E0,-1.318146478E1,-4.129908296E0,7.826349047E-1,1.383544989E1
2.339923083E0,-1.244037113E1,-3.537165520E0,8.825129494E-1,1.296353358E1
2.349908083E0,-1.189559190E1,-3.016059322E0,8.423291293E-1,1.230086333E1
2.359894083E0,-1.166515079E1,-2.620394027E0,9.234332263E-1,1.199145265E1
2.369879083E0,-1.077794808E1,-2.237017239E0,9.113631114E-1,1.104531546E1
2.379865083E0,-9.286911596E0,-1.681596072E0,8.556274518E-1,9.476633932E0
2.389850083E0,-7.554161743E0,-1.199520038E0,1.134506309E0,7.732484240E0
2.399836083E0,-5.510890825E0,-6.062188536E-1,1.642045213E0,5.782190888E0
2.409821083E0,-3.263709078E0,6.761135459E-3,2.293496080E0,3.988980688E0
2.419806083E0,-1.493323914E0,4.530498701E-1,2.907324792E0,3.299667854E0
2.429792083E0,-5.869552016E-1,7.175235271E-1,3.022033130E0,3.161018928E0
2.439777083E0,-2.556946474E-1,9.142443269E-1,2.487327478E0,2.662333643E0
2.449763083E0,-2.524912503E-1,9.649952352E-1,1.474589727E0,1.780275962E0
2.459748083E0,-4.647536570E-1,9.192887199E-1,6.389626765E-1,1.212172023E0
2.469734083E0,-7.758161741E-1,9.134988070E-1,2.320420754E-1,1.220743352E0
2.479719083E0,-7.033647868E-1,7.551866126E-1,1.118408632E-1,1.038044904E0
2.489704083E0,-1.915068376E-1,6.832360393E-1,4.014552087E-2,7.107024814E-1
2.499690083E0,3.406722325E-1,7.323684382E-1,5.160489410E-2,8.093726981E-1
2.509675083E0,7.847510120E-1,7.565835124E-1,1.487411794E-1,1.100171214E0
2.519661083E0,1.194777069E0,8.010381389E-1,1.538519382E-1,1.446659865E0
2.529646083E0,1.464755588E0,8.184780443E-1,6.116216809E-2,1.679034261E0
2.539632083E0,1.300729202E0,7.627844846E-1,-1.662655771E-3,1.507892367E0
2.549617083E0,9.378200081E-1,6.920893085E-1,-1.056635723E-1,1.170324215E0
2.559601708E0,5.945244223E-1,5.677289718E-1,-2.723361155E-1,8.659921674E-1
2.569587708E0,1.103556705E-1,4.038677698E-1,-3.367446578E-1,5.372936944E-1
2.579572708E0,-4.108835515E-1,3.087405878E-1,-2.904849958E-1,5.903622416E-1
2.589558708E0,-6.654745370E-1,2.255019647E-1,-2.584451777E-1,7.486664179E-1
2.599543708E0,-6.844168845E-1,2.221801615E-1,-2.350273713E-1,7.569863679E-1
2.609529708E0,-5.577571303E-1,1.791458237E-1,-1.137558264E-1,5.967634628E-1
2.619514708E0,-4.825438106E-1,1.055556911E-1,3.766922504E-2,4.953882352E-1
2.629499708E0,-3.504332820E-1,1.141510981E-1,6.221817523E-2,3.737714002E-1
2.639485708E0,-3.168340114E-1,1.283288419E-1,1.140277219E-1,3.603531654E-1
2.649470708E0,-5.507553819E-1,9.277484715E-2,1.729790577E-1,5.846883079E-1
2.659456708E0,-9.884466630E-1,6.306923747E-2,1.132567665E-1,9.969110439E-1
2.669441708E0,-1.653488214E0,6.311484575E-3,2.068511009E-2,1.653629639E0
2.679427708E0,-2.614777776E0,-1.175717193E-1,1.037968487E-2,2.617440289E0
2.689412708E0,-3.958869637E0,-3.457329977E-1,1.022482136E-1,3.975252797E0
2.699397708E0,-5.954971651E0,-7.657846910E-1,3.570625627E-1,6.014616133E0
2.709383708E0,-8.552725843E0,-1.382740787E0,7.114757520E-1,8.692944793E0
2.719368708E0,-1.120072633E1,-1.915811557E0,1.014133189E0,1.140855251E1
2.729354708E0,-1.339857424E1,-2.543121318E0,1.144254495E0,1.368570700E1
2.739339708E0,-1.498663942E1,-3.235724012E0,1.086347179E0,1.537040732E1
2.749325708E0,-1.589922957E1,-3.911792534E0,1.128607638E0,1.641223254E1
2.759310708E0,-1.616763548E1,-4.633168207E0,1.463751328E0,1.688198011E1
2.769295708E0,-1.589947281E1,-5.424943771E0,2.117929337E0,1.693247989E1
2.779281708E0,-1.535061807E1,-6.172099233E0,2.752589925E0,1.677238908E1
2.789266708E0,-1.475203393E1,-6.864458098E0,3.237735454E0,1.658994336E1
2.799252708E0,-1.412857689E1,-7.669430829E0,3.645582839E0,1.648414780E1
2.809237708E0,-1.350969122E1,-8.580993623E0,4.147536774E0,1.653321716E1
2.819223708E0,-1.319079577E1,-9.452995325E0,4.886510519E0,1.694798509E1
2.829208708E0,-1.279898905E1,-1.037901127E1,5.698841386E0,1.743601987E1
2.839193708E0,-1.204458948E1,-1.144299285E1,6.481176621E0,1.783311165E1
2.849179708E0,-1.122691133E1,-1.248283244E1,7.333521738E0,1.832062185E1
2.859164708E0,-1.048179596E1,-1.361463120E1,8.149815263E0,1.901698499E1
2.869150708E0,-9.412728474E0,-1.481374544E1,8.737061656E0,1.960568177E1
2.879135708E0,-8.046603720E0,-1.574260605E1,8.880687983E0,1.978494619E1
2.889121708E0,-7.164569365E0,-1.614995350E1,9.175696385E0,1.990842677E1
2.899106708E0,-6.434956720E0,-1.654627778E1,9.764383532E0,2.026156860E1
2.909091708E0,-5.334835839E0,-1.715819123E1,1.031245124E1,2.071739970E1
2.919077708E0,-3.721542848E0,-1.744045972E1,1.086656614E1,2.088304997E1
2.929062708E0,-1.980757751E0,-1.743664851E1,1.151283784E1,2.098822402E1
2.939048708E0,-1.158425222E0,-1.756010545E1,1.204504322E1,2.132562586E1
2.949033708E0,-4.274963683E-1,-1.791059223E1,1.213618728E1,2.163929548E1
2.959019708E0,1.812105925E0,-1.814863238E1,1.137902781E1,2.149741517E1
2.969004708E0,4.594977118E0,-1.836693701E1,1.035025817E1,2.157744271E1
2.978989708E0,8.620933029E0,-1.834224772E1,9.759322182E0,2.249450838E1
2.988975708E0,1.465759905E1,-1.743023060E1,8.759720786E0,2.440063231E1
2.998960708E0,2.101657705E1,-1.567805396E1,7.049219588E0,2.715123172E1
3.008946708E0,2.705540830E1,-1.356700796E1,4.111353326E0,3.054442747E1
3.018931708E0,3.099983005E1,-1.150081479E1,4.446322550E-1,3.306744475E1
3.028917708E0,3.113134563E1,-1.076727808E1,-9.662185458E-1,3.295494707E1
3.038902708E0,2.953380679E1,-1.106749752E1,-1.231528866E0,3.156345843E1
3.048887708E0,2.806814371E1,-1.061750867E1,-2.808940419E0,3.014037704E1
3.058873708E0,2.706547721E1,-1.071781999E1,-4.751173205E0,2.949551438E1
3.068858708E0,2.720466199E1,-1.060153758E1,-6.111988102E0,2.983023016E1
3.078844708E0,2.827673728E1,-9.655792551E0,-6.806346715E0,3.064530236E1
3.088829708E0,2.854341242E1,-8.687666132E0,-6.321492670E0,3.049857710E1
3.098814708E0,2.716915068E1,-8.076200572E0,-4.682120512E0,2.872820943E1
3.108800708E0,2.465852000E1,-7.816476023E0,-2.710256376E0,2.600933286E1
3.118785708E0,2.139818272E1,-7.821350262E0,-6.954613978E-1,2.279340716E1
3.128771708E0,1.827817043E1,-8.232810642E0,1.213698952E0,2.008341979E1
3.138756708E0,1.597743959E1,-8.663935792E0,2.419840377E0,1.833570251E1
3.148742708E0,1.439213078E1,-9.223323126E0,3.259109951E0,1.740186529E1
3.158727708E0,1.329339920E1,-9.746318559E0,4.196109302E0,1.700918931E1
3.168712708E0,1.274838959E1,-1.007930521E1,5.201066748E0,1.706355549E1
3.178698708E0,1.236834630E1,-1.035495582E1,6.275070455E0,1.730831041E1
3.188683708E0,1.182708592E1,-1.052760305E1,7.380617552E0,1.746951352E1
3.198669708E0,1.149703398E1,-1.082651739E1,8.534410025E0,1.795080566E1
3.208654708E0,1.095662262E1,-1.159618873E1,9.716360350E0,1.867958326E1
3.218640708E0,1.022953772E1,-1.262633949E1,1.070129810E1,1.945727812E1
3.228625708E0,9.218668157E0,-1.385581715E1,1.148506005E1,2.022063589E1
3.238610708E0,7.865662217E0,-1.535483742E1,1.198422399E1,2.100622048E1
3.248596708E0,6.441375208E0,-1.677802398E1,1.209559474E1,2.166325957E1
3.258581708E0,4.733047421E0,-1.797632663E1,1.188693685E1,2.206466235E1
3.268567708E0,2.873393108E0,-1.897281614E1,1.189085799E1,2.257469034E1
3.278552708E0,1.018840782E0,-1.988854858E1,1.239322386E1,2.345600987E1
3.288538708E0,-1.635740745E0,-2.043194437E1,1.324946673E1,2.440672791E1
3.298523708E0,-4.427940001E0,-1.991321448E1,1.385156155E1,2.465782879E1
3.308508708E0,-6.720425974E0,-1.855649906E1,1.391141364E1,2.414612210E1
3.318494708E0,-9.585206133E0,-1.736952013E1,1.272829622E1,2.357087039E1
3.328479708E0,-1.197199863E1,-1.616823891E1,1.024146604E1,2.257494911E1
3.338465708E0,-1.276832041E1,-1.453725166E1,7.212035308E0,2.064885336E1
3.348450708E0,-1.320026007E1,-1.302787246E1,4.691690357E0,1.913071576E1
3.358436708E0,-1.354395005E1,-1.151961008E1,2.954452766E0,1.802411692E1
3.368421708E0,-1.371663120E1,-9.937993212E0,1.778743174E0,1.703154743E1
3.378406708E0,-1.412555155E1,-8.703147220E0,1.096126940E0,1.662761174E1
3.388392708E0,-1.487897347E1,-7.653595399E0,8.476278761E-1,1.675350253E1
3.398377708E0,-1.554715936E1,-6.690902213E0,9.240387055E-1,1.695099360E1
3.408363708E0,-1.583004414E1,-5.681990880E0,1.711285017E0,1.690573318E1
3.418348708E0,-1.581548809E1,-4.834922290E0,2.487464303E0,1.672404304E1
3.428334708E0,-1.521075501E1,-4.085224459E0,2.206825434E0,1.590365384E1
3.438319708E0,-1.465183487E1,-3.627391566E0,1.264658021E0,1.514706554E1
3.448304708E0,-1.397730358E1,-3.325032629E0,4.155309185E-1,1.437336159E1
3.458290708E0,-1.299978712E1,-2.851128080E0,-9.548649341E-2,1.330911395E1
3.468275708E0,-1.175188605E1,-2.304591756E0,-9.419367403E-2,1.197609457E1
3.478261708E0,-1.009621419E1,-1.841094666E0,2.370814982E-1,1.026544583E1
3.488246708E0,-8.192847261E0,-1.323381608E0,6.927281168E-1,8.327902339E0
3.498232708E0,-6.202733381E0,-7.199132842E-1,1.131525691E0,6.346063892E0
3.508217708E0,-4.310862371E0,-1.810566938E-1,1.701818375E0,4.638157144E0
3.518202708E0,-2.800322500E0,2.380208534E-1,2.349474399E0,3.663125712E0
3.528188708E0,-1.653157554E0,5.694685185E-1,2.546971709E0,3.089383301E0
3.538173708E0,-8.768317947E-1,7.646421450E-1,2.127260616E0,2.424613234E0
3.548159708E0,-4.339630964E-1,9.041502786E-1,1.482874355E0,1.790175424E0
3.558144917E0,-1.447717971E-1,1.016165974E0,9.140275414E-1,1.374408420E0
3.568130917E0,2.603203797E-1,1.081268873E0,3.728456596E-1,1.172997426E0
3.578115917E0,6.497829491E-1,1.141955954E0,-8.690453500E-2,1.316751184E0
3.588100917E0,9.751329915E-1,1.220187022E0,-2.692400149E-1,1.585001863E0
3.598086917E0,1.308401918E0,1.208624738E0,-2.393373540E-1,1.797212204E0
3.608071917E0,1.483993219E0,1.124387995E0,-2.180985126E-1,1.874580273E0
3.618057917E0,1.647855152E0,1.068066444E0,-3.590041307E-1,1.996265638E0
3.628042917E0,1.822201874E0,1.033566703E0,-4.493292868E-1,2.142563093E0
3.638027917E0,1.655495270E0,9.921280700E-1,-3.508630523E-1,1.961654297E0
3.648013917E0,1.203872560E0,9.333179444E-1,-8.629934818E-2,1.525725763E0
3.657998917E0,8.867602207E-1,8.050639468E-1,1.307042733E-1,1.204805069E0
3.667984917E0,7.416925545E-1,6.755598146E-1,1.924344984E-1,1.021528240E0
3.677969917E0,6.490552631E-1,6.218730193E-1,1.743230402E-1,9.156349213E-1
3.687955917E0,5.503082161E-1,5.524618918E-1,1.706582978E-1,7.982340065E-1
3.697940917E0,4.146188991E-1,4.566143328E-1,1.232008338E-1,6.289546294E-1
3.707925917E0,1.331305754E-1,4.132999134E-1,8.668643385E-2,4.427811043E-1
3.717911917E0,-1.407056433E-1,3.653141534E-1,1.968693191E-1,4.381894996E-1
3.727896917E0,-3.563816544E-1,2.639667034E-1,2.753170261E-1,5.220016944E-1
3.737882917E0,-5.937039118E-1,1.018315995E-1,2.805575931E-1,6.645047573E-1
3.747867917E0,-9.452507959E-1,-6.553968608E-2,2.394800261E-1,9.773153025E-1
3.757853917E0,-1.510607699E0,-2.378805202E-1,1.597854003E-1,1.537548092E0
3.767838917E0,-2.196502613E0,-4.165427792E-1,4.924612731E-2,2.236192478E0
3.777823917E0,-3.065502793E0,-5.869148558E-1,-2.480739713E-2,3.121280479E0
3.787809917E0,-4.252843081E0,-9.200231302E-1,8.289012909E-3,4.351228050E0
3.797794917E0,-5.674931536E0,-1.358911044E0,7.784661323E-2,5.835884446E0
3.807780917E0,-7.488796304E0,-1.915557788E0,1.901704565E-1,7.732243951E0
3.817765917E0,-9.469407874E0,-2.546084687E0,2.029062769E-1,9.807823595E0
3.827751917E0,-1.137517684E1,-3.194122242E0,1.300523087E-1,1.181583593E1
3.837736917E0,-1.317533807E1,-3.801597077E0,1.147659329E-1,1.371330904E1
3.847721917E0,-1.437637956E1,-4.439106721E0,1.487914655E-1,1.504686334E1
3.857707917E0,-1.490809143E1,-5.135880818E0,2.789355755E-1,1.577042381E1
3.867692917E0,-1.486602656E1,-5.896455640E0,5.623814008E-1,1.600260003E1
3.877678917E0,-1.419977259E1,-6.598093452E0,1.071970923E0,1.569450543E1
3.887663917E0,-1.327153062E1,-7.293233837E0,1.832275018E0,1.525391807E1
3.897648917E0,-1.281539868E1,-8.005670287E0,2.645648736E0,1.534029521E1
3.907634917E0,-1.267695883E1,-8.778722482E0,3.444199761E0,1.579980271E1
3.917619917E0,-1.257443726E1,-9.637806516E0,4.169701230E0,1.638261869E1
3.927605917E0,-1.234941418E1,-1.060740468E1,4.679576973E0,1.693881653E1
3.937590917E0,-1.186745626E1,-1.170043523E1,5.302898347E0,1.748878022E1
3.947576917E0,-1.122526125E1,-1.277095633E1,6.286982403E0,1.812815389E1
3.957561917E0,-1.057418314E1,-1.359850458E1,7.415774521E0,1.875436982E1
3.967546917E0,-9.882236502E0,-1.440039992E1,8.793245212E0,1.955380468E1
3.977532917E0,-8.939502786E0,-1.517061738E1,1.048176322E1,2.049218636E1
3.987517917E0,-8.166782128E0,-1.565817577E1,1.189752265E1,2.129379825E1
3.997503917E0,-7.535940065E0,-1.610703611E1,1.274816038E1,2.188018733E1
4.007488917E0,-6.205956951E0,-1.675346334E1,1.269682182E1,2.191806834E1
4.017474917E0,-4.970531500E0,-1.788525975E1,1.233167841E1,2.228584735E1
4.027459917E0,-4.094784071E0,-1.894240360E1,1.210537479E1,2.284998927E1
4.037444917E0,-1.326035659E0,-1.970655984E1,1.184346748E1,2.302986307E1
4.047430917E0,4.177241507E0,-1.998268174E1,1.113235016E1,2.325265869E1
4.057415917E0,1.381865458E1,-1.841695058E1,7.472592500E0,2.420700151E1
4.067401917E0,2.341972889E1,-1.496149405E1,2.113111816E0,2.787104676E1
4.077386917E0,2.586669275E1,-1.146734416E1,2.053993542E0,2.836907939E1
4.087372917E0,2.396756856E1,-8.980997552E0,6.448763165E0,2.639487083E1
4.097357917E0,2.189469085E1,-7.199017067E0,9.642826350E0,2.498374340E1
4.107342917E0,2.076477256E1,-6.861282476E0,9.290935065E0,2.376077547E1
4.117328917E0,2.098002494E1,-7.983252647E0,5.211501104E0,2.304459835E1
4.127313917E0,2.246801502E1,-8.730638489E0,-1.426678227E-1,2.410510530E1
4.137299917E0,2.407445566E1,-9.150706555E0,-3.992419791E0,2.606250682E1
4.147284917E0,2.533574452E1,-8.975342125E0,-5.703381164E0,2.747699535E1
4.157270917E0,2.662214132E1,-8.054386364E0,-5.356316171E0,2.832493020E1
4.167255917E0,2.748835954E1,-6.941575856E0,-3.577703097E0,2.857613243E1
4.177240917E0,2.783584319E1,-5.933066227E0,-1.451005860E0,2.849808518E1
4.187226917E0,2.721202480E1,-5.342251278E0,1.138811029E-1,2.773169507E1
4.197211917E0,2.538867585E1,-5.399199650E0,1.121970171E0,2.598066657E1
4.207197917E0,2.278966334E1,-6.000215067E0,1.673331179E0,2.362565075E1
4.217182917E0,2.003913310E1,-6.836089747E0,2.151589565E0,2.128211258E1
4.227168917E0,1.764304937E1,-7.686846761E0,2.497852174E0,1.940628944E1
4.237153917E0,1.572414288E1,-8.410201131E0,2.770601980E0,1.804595212E1
4.247138917E0,1.439109700E1,-9.000652383E0,3.368370438E0,1.730495118E1
4.257124917E0,1.338398895E1,-9.570248955E0,4.392263507E0,1.702976230E1
4.267109917E0,1.291315945E1,-1.009045117E1,5.700139468E0,1.735103691E1
4.277095917E0,1.196173794E1,-1.080026807E1,7.634134111E0,1.783280596E1
4.287080917E0,1.056218465E1,-1.119226307E1,9.644961169E0,1.816182186E1
4.297066917E0,9.689885911E0,-1.138380148E1,1.115523148E1,1.865272137E1
4.307051917E0,9.252568560E0,-1.202012940E1,1.217555541E1,1.945090449E1
4.317036917E0,9.564350869E0,-1.304490657E1,1.267524911E1,2.055014197E1
4.327022917E0,9.842252072E0,-1.419914226E1,1.336553396E1,2.184314687E1
4.337007917E0,8.821598945E0,-1.584246597E1,1.488660408E1,2.346093172E1
4.346993917E0,6.398770056E0,-1.757274596E1,1.628893129E1,2.480070445E1
4.356978917E0,3.854908774E0,-1.889520020E1,1.640485468E1,2.531813913E1
4.366963917E0,1.101235945E0,-2.012821660E1,1.554000705E1,2.545289066E1
4.376949917E0,-2.503121392E0,-2.083936666E1,1.414773822E1,2.531211797E1
4.386934917E0,-7.170306653E0,-2.047055938E1,1.229726287E1,2.493350703E1
4.396920917E0,-1.251172236E1,-1.935759801E1,9.913016245E0,2.509039036E1
4.406905917E0,-1.612900643E1,-1.739250787E1,7.441715693E0,2.486007464E1
4.416891917E0,-1.720305341E1,-1.489173326E1,5.529037074E0,2.341535857E1
4.426876917E0,-1.657610091E1,-1.294476833E1,4.279239167E0,2.146266611E1
4.436861917E0,-1.436139665E1,-1.130891268E1,2.902929733E0,1.850859856E1
4.446847917E0,-1.176323900E1,-9.642599478E0,1.151841842E0,1.525386037E1
4.456832917E0,-1.047917641E1,-8.530801708E0,-3.267979592E-1,1.351645341E1
4.466818917E0,-1.035183575E1,-7.820249231E0,-1.531230828E0,1.306374637E1
4.476803917E0,-1.113517436E1,-7.016651766E0,-2.428173244E0,1.338362938E1
4.486789917E0,-1.235311664E1,-6.427617880E0,-2.719722433E0,1.418839852E1
4.496774917E0,-1.349318570E1,-5.972979321E0,-2.501512239E0,1.496663308E1
4.506759917E0,-1.422398591E1,-5.314560619E0,-1.926344439E0,1.530611423E1
4.516745917E0,-1.456182634E1,-4.696697620E0,-8.327920282E-1,1.532316212E1
4.526730917E0,-1.406504222E1,-4.225468757E0,7.518911219E-1,1.470528269E1
4.536716917E0,-1.262548111E1,-3.660665147E0,1.829729433E0,1.327219471E1
4.546701917E0,-1.052253936E1,-3.032016374E0,1.997341332E0,1.113132204E1
4.556687917E0,-8.228798867E0,-2.658200369E0,1.303711574E0,8.745217199E0
4.566672708E0,-6.324426218E0,-2.174115232E0,5.367170942E-1,6.709188421E0
4.576657708E0,-4.920450683E0,-1.688246110E0,2.512396538E-1,5.208083257E0
4.586643708E0,-3.815737691E0,-1.349233902E0,3.649180046E-1,4.063674618E0
4.596628708E0,-2.903380845E0,-1.020429178E0,6.338671204E-1,3.142082680E0
4.606614708E0,-2.379436994E0,-6.127577949E-1,8.058129752E-1,2.585831989E0
4.616599708E0,-1.991420441E0,-2.501947564E-1,8.693403420E-1,2.187259797E0
4.626584708E0,-1.676662776E0,8.139324188E-4,8.973344716E-1,1.901685537E0
4.636570708E0,-1.314433906E0,2.330776173E-1,8.592813769E-1,1.587585007E0
4.646555708E0,-7.156266904E-1,3.976556879E-1,7.386907402E-1,1.102685638E0
4.656541708E0,-5.018577486E-2,5.410112894E-1,6.219028401E-1,8.258177582E-1
4.666526708E0,6.334078217E-1,6.345608926E-1,3.743416697E-1,9.715990328E-1
4.676512708E0,1.398514236E0,6.812310290E-1,5.365989804E-3,1.555617747E0
4.686497708E0,2.034219136E0,7.101887798E-1,-4.043428561E-1,2.192238295E0
4.696482708E0,2.410958164E0,8.281288737E-1,-6.112962833E-1,2.621488098E0
4.706468708E0,2.463737179E0,9.402661908E-1,-6.018635550E-1,2.704873590E0
4.716453708E0,2.327206740E0,9.622207314E-1,-5.635406113E-1,2.580569311E0
4.726439708E0,1.987812709E0,8.800153112E-1,-5.352415493E-1,2.238818847E0
4.736424708E0,1.525346775E0,7.739906734E-1,-4.147748736E-1,1.760051858E0
4.746410708E0,1.025256932E0,6.180875319E-1,-2.446688452E-1,1.221902949E0
4.756395708E0,5.814684668E-1,4.520681226E-1,-1.845793489E-1,7.593027732E-1
4.766380708E0,9.960410267E-2,2.546567667E-1,-2.296999732E-1,3.571178009E-1
4.776366708E0,-4.279588830E-1,5.551346540E-2,-2.895772156E-1,5.196975219E-1
4.786351708E0,-9.995683596E-1,-1.723583758E-1,-3.136297372E-1,1.061700488E0
4.796337708E0,-1.481217400E0,-4.118802094E-1,-4.135054430E-1,1.592054347E0
4.806322708E0,-1.872379901E0,-6.136804855E-1,-6.058630505E-1,2.061426756E0
4.816308708E0,-2.493494244E0,-8.001359135E-1,-5.581035778E-1,2.677538166E0
4.826293708E0,-3.121029707E0,-9.577306545E-1,-2.637550342E-1,3.275307796E0
4.836278708E0,-3.691472664E0,-1.042375533E0,-1.474755496E-2,3.835848625E0
4.846264708E0,-4.166591096E0,-1.168152065E0,1.124755785E-1,4.328707817E0
4.856249708E0,-4.529787388E0,-1.372304676E0,1.603949726E-1,4.735812544E0
4.866235708E0,-5.052110099E0,-1.598677291E0,2.208098665E-1,5.303615986E0
4.876220708E0,-5.791075366E0,-1.875189781E0,2.463353017E-1,6.092090912E0
4.886205708E0,-6.660179772E0,-2.270424137E0,1.886066186E-1,7.039061927E0
4.896191708E0,-7.621013544E0,-2.703874140E0,1.283349815E-1,8.087475049E0
4.906176708E0,-8.466608051E0,-3.092390630E0,-1.006627411E-2,9.013680326E0
4.916162708E0,-9.062179710E0,-3.544346486E0,-1.992283782E-1,9.732686425E0
4.926147708E0,-9.428685526E0,-4.041809467E0,-4.404786488E-1,1.026792851E1
4.936133708E0,-9.512046940E0,-4.543352051E0,-6.066179261E-1,1.055883849E1
4.946118708E0,-9.385858764E0,-5.069191570E0,-5.159302425E-1,1.067975805E1
4.956103708E0,-9.336970194E0,-5.721504609E0,-3.279457676E-1,1.095546329E1
4.966089708E0,-9.610395938E0,-6.460251190E0,-1.569790292E-1,1.158098433E1
4.976074708E0,-1.028894310E1,-7.328696031E0,-3.669975668E-2,1.263223980E1
4.986060708E0,-1.132588247E1,-8.352665699E0,1.522544789E-1,1.407358588E1
4.996045708E0,-1.211805974E1,-9.348175798E0,6.016657729E-1,1.531658462E1
5.006031708E0,-1.256201544E1,-1.039607344E1,1.249690610E0,1.635372439E1
5.016016708E0,-1.251860103E1,-1.141834098E1,2.001248149E0,1.706161999E1
5.026001708E0,-1.194164807E1,-1.239298413E1,2.954329097E0,1.746187489E1
5.035987708E0,-1.102902752E1,-1.336089829E1,4.215423825E0,1.783039117E1
5.045972708E0,-1.006689157E1,-1.422695747E1,5.194305028E0,1.818596793E1
5.055958708E0,-9.192251022E0,-1.502747053E1,6.095795993E0,1.864084435E1
5.065943708E0,-7.970037940E0,-1.548102033E1,6.962694245E0,1.875266932E1
5.075929708E0,-6.488477454E0,-1.565327229E1,7.906421403E0,1.869857675E1
5.085914708E0,-5.107401370E0,-1.576394137E1,9.219444668E0,1.896274127E1
5.095899708E0,-3.868413211E0,-1.560283304E1,1.090293348E1,1.942387650E1
5.105885708E0,-1.318954096E0,-1.513723680E1,1.253903939E1,1.970033214E1
5.115870708E0,1.614706848E0,-1.465730435E1,1.382893516E1,2.021591692E1
5.125856708E0,3.590649417E0,-1.403522844E1,1.428280072E1,2.034401132E1
5.135841708E0,6.122327149E0,-1.334249009E1,1.369603613E1,2.007701017E1
5.145827708E0,9.695326746E0,-1.278243792E1,1.259519488E1,2.039678931E1
5.155812708E0,1.522743361E1,-1.200192351E1,9.950191673E0,2.179282489E1
5.165797708E0,2.093837171E1,-1.017723789E1,6.631017954E0,2.420665157E1
5.175783708E0,2.405323729E1,-8.598828800E0,4.694077483E0,2.597176244E1
5.185768708E0,2.527019255E1,-7.408164369E0,3.379476639E0,2.654965900E1
5.195754708E0,2.650477600E1,-5.990942552E0,1.281847081E0,2.720363350E1
5.205739708E0,2.673601233E1,-5.532340751E0,-4.865291266E-1,2.730673654E1
5.215724708E0,2.714645647E1,-5.749879977E0,-1.931109189E0,2.781583005E1
5.225710708E0,2.859557426E1,-5.509210335E0,-3.871365177E0,2.937764004E1
5.235695708E0,2.894353739E1,-5.312733364E0,-4.334034887E0,2.974453480E1
5.245681708E0,2.844367295E1,-4.785675578E0,-3.040718785E0,2.900329624E1
5.255666708E0,2.724295424E1,-4.495620645E0,-8.529734007E-1,2.762456740E1
5.265652708E0,2.580543498E1,-4.408951460E0,5.866894457E-1,2.618594149E1
5.275637708E0,2.402040166E1,-4.507677311E0,1.075860198E0,2.446336702E1
5.285622708E0,2.164012881E1,-4.889531191E0,1.625765103E0,2.224512985E1
5.295608708E0,1.897377508E1,-5.439732549E0,2.176606585E0,1.985780570E1
5.305593708E0,1.645144997E1,-5.962129812E0,2.628521656E0,1.769481066E1
5.315579708E0,1.453153075E1,-6.403704522E0,3.286827507E0,1.621653639E1
5.325564708E0,1.323107022E1,-6.625903394E0,4.254157535E0,1.539680718E1
5.335550708E0,1.253403417E1,-6.930310611E0,5.506475008E0,1.534446104E1
5.345535708E0,1.263221828E1,-7.277362740E0,6.889791745E0,1.612458301E1
5.355520708E0,1.298013813E1,-7.711147789E0,8.211025670E0,1.718623661E1
5.365506708E0,1.326815210E1,-8.483798865E0,9.584101009E0,1.843566368E1
5.375491708E0,1.380197365E1,-9.726861949E0,1.080321858E1,2.004534488E1
5.385477708E0,1.301050974E1,-1.122096822E1,1.191879365E1,2.091031165E1
5.395462708E0,1.089975961E1,-1.276896009E1,1.296537625E1,2.121207399E1
5.405448708E0,8.715414094E0,-1.414638868E1,1.359393322E1,2.146797094E1
5.415433708E0,6.772938064E0,-1.532231988E1,1.377190727E1,2.168666886E1
5.425418708E0,4.752561918E0,-1.656477018E1,1.361658183E1,2.196337307E1
5.435404708E0,2.864384595E0,-1.751816688E1,1.318856681E1,2.211400381E1
5.445389708E0,9.317497212E-1,-1.819342907E1,1.295109618E1,2.235173173E1
5.455375708E0,-1.505450162E0,-1.833439258E1,1.300940345E1,2.253133173E1
5.465360708E0,-3.493693811E0,-1.791570504E1,1.276463549E1,2.227362347E1
5.475345708E0,-4.597618890E0,-1.745791015E1,1.181630833E1,2.157641928E1
5.485331708E0,-5.210041054E0,-1.737589710E1,1.018744713E1,2.080505724E1
5.495316708E0,-5.870177084E0,-1.711033411E1,8.442649670E0,1.996248596E1
5.505302708E0,-6.310733793E0,-1.622320508E1,6.758724067E0,1.867345964E1
5.515287708E0,-6.340339415E0,-1.520971888E1,5.270863207E0,1.730079337E1
5.525273708E0,-6.436775204E0,-1.445397094E1,4.313283411E0,1.639980990E1
5.535258708E0,-7.268959706E0,-1.345963788E1,3.785172248E0,1.575839954E1
5.545243708E0,-7.938168275E0,-1.210689974E1,3.760067813E0,1.495759496E1
5.555229708E0,-8.514426581E0,-1.102307739E1,3.846984919E0,1.445001689E1
5.565215042E0,-9.715408423E0,-1.019393637E1,3.937783408E0,1.462229933E1
5.575201042E0,-1.077788142E1,-9.474345848E0,3.519857469E0,1.477549843E1
5.585186042E0,-1.110051909E1,-9.156802277E0,2.405019732E0,1.458947127E1
5.595172042E0,-1.089198750E1,-9.026756108E0,8.576947349E-1,1.417227426E1
5.605157042E0,-1.110875080E1,-8.233196558E0,-3.437531304E-1,1.383141482E1
5.615142042E0,-1.135713233E1,-7.071885735E0,-9.511098522E-1,1.341270415E1
5.625128042E0,-1.100413241E1,-6.272229878E0,-1.336046092E0,1.273643659E1
5.635113042E0,-1.034069797E1,-5.386943302E0,-1.471830134E0,1.175225411E1
5.645099042E0,-9.970281537E0,-4.493014541E0,-1.149242170E0,1.099611073E1
5.655084042E0,-9.914772749E0,-3.853028601E0,-7.600509113E-1,1.066424988E1
5.665070042E0,-9.429349185E0,-3.405308468E0,-6.972310576E-1,1.004962104E1
5.675055042E0,-8.448177627E0,-2.860957249E0,-9.301996243E-1,8.967834351E0
5.685040042E0,-7.208746834E0,-2.531047987E0,-1.169244910E0,7.729124691E0
5.695026042E0,-6.320274110E0,-2.437046978E0,-1.450325829E0,6.927373803E0
5.705011042E0,-5.807691983E0,-2.231526704E0,-1.635390204E0,6.433000755E0
5.714997042E0,-5.434567704E0,-1.977909572E0,-1.674187649E0,6.020760474E0
5.724982042E0,-5.126806524E0,-1.797418889E0,-1.724755248E0,5.699968462E0
5.734967042E0,-4.794321563E0,-1.431827577E0,-1.869707431E0,5.341484376E0
5.744953042E0,-4.154413977E0,-9.328221005E-1,-1.817762229E0,4.629640600E0
5.754938042E0,-3.286920478E0,-6.491058415E-1,-1.474457873E0,3.660493223E0
5.764924042E0,-2.586815806E0,-3.853244948E-1,-1.083858897E0,2.831049468E0
5.774909042E0,-1.993928604E0,-2.188729763E-1,-7.519115871E-1,2.142201600E0
5.784895042E0,-1.598490765E0,-1.990824902E-1,-4.993966556E-1,1.686476677E0
5.794880042E0,-1.388229568E0,-1.880441165E-1,-5.702868363E-1,1.512537272E0
5.804865042E0,-1.300352933E0,-1.104170662E-1,-6.998541185E-1,1.480846200E0
5.814851042E0,-1.351116706E0,-1.305887908E-1,-6.421268973E-1,1.501631358E0
5.824836042E0,-1.498774688E0,-1.878283542E-1,-5.333935368E-1,1.601909399E0
5.834822042E0,-1.760273867E0,-2.253405815E-1,-3.402027011E-1,1.806953331E0
5.844807042E0,-2.007813402E0,-3.655445337E-1,-2.185069406E-1,2.052482094E0
5.854793042E0,-2.086968915E0,-5.525472611E-1,-1.855260131E-1,2.166833549E0
5.864778042E0,-2.183580120E0,-7.287735701E-1,-2.598973337E-1,2.316609523E0
5.874763042E0,-2.251618322E0,-7.896541947E-1,-3.081883183E-1,2.405892527E0
5.884749042E0,-2.157767002E0,-8.885276878E-1,-2.271277830E-1,2.344573931E0
5.894734042E0,-2.059049045E0,-9.658524370E-1,-7.603836179E-2,2.275595687E0
5.904720042E0,-2.002294216E0,-9.188338065E-1,-9.254358977E-2,2.204994786E0
5.914705042E0,-1.835331066E0,-9.683100218E-1,-1.097215399E-1,2.078004628E0
5.924691042E0,-1.651708029E0,-1.129137688E0,-1.969663829E-2,2.000869633E0
5.934676042E0,-1.766553484E0,-1.214443302E0,5.640253454E-2,2.144473127E0
5.944661042E0,-2.058939410E0,-1.406143098E0,8.274774939E-2,2.494657711E0
5.954647042E0,-2.420854284E0,-1.744930188E0,-1.497565484E-1,2.987933040E0
5.964632042E0,-2.969692072E0,-1.844448629E0,-6.408446029E-1,3.554116423E0
5.974618042E0,-3.460364097E0,-1.985351908E0,-9.144986808E-1,4.092926791E0
5.984603042E0,-3.888936645E0,-2.253142106E0,-7.708510110E-1,4.560119391E0
5.994588042E0,-4.479812405E0,-2.591777753E0,-4.608994648E-1,5.196004178E0
6.004574042E0,-5.333345384E0,-3.067447577E0,-1.104980502E-1,6.153536986E0
6.014559042E0,-6.292712674E0,-3.599258273E0,1.671952844E-1,7.251265212E0
6.024545042E0,-7.204563736E0,-4.200647326E0,1.945345259E-1,8.342003372E0
6.034530042E0,-8.127694076E0,-4.809623142E0,1.076136187E-1,9.444758676E0
6.044516042E0,-8.801043059E0,-5.323869971E0,1.513882139E-1,1.028712150E1
6.054501042E0,-9.185753011E0,-5.657159509E0,3.470863357E-1,1.079360834E1
6.064486042E0,-9.255170571E0,-6.030125329E0,7.810275051E-1,1.107387004E1
6.074472042E0,-9.214426003E0,-6.378237559E0,1.499017640E0,1.130639707E1
6.084457042E0,-9.107773958E0,-6.803771017E0,2.360080371E0,1.161089255E1
6.094443042E0,-9.120337871E0,-7.326658276E0,3.237869647E0,1.213854539E1
6.104428042E0,-9.150700123E0,-7.840565967E0,4.023198072E0,1.270416901E1
6.114414042E0,-9.145994284E0,-8.350580581E0,4.626472560E0,1.322065263E1
6.124399042E0,-9.043847519E0,-8.932601902E0,4.950328785E0,1.364141891E1
6.134384042E0,-8.883862436E0,-9.648846059E0,5.094794773E0,1.407054284E1
6.144370042E0,-8.642049079E0,-1.027832455E1,5.283406654E0,1.443063941E1
6.154355042E0,-8.223348677E0,-1.091112192E1,5.598828270E0,1.476559931E1
6.164341042E0,-7.748974596E0,-1.165309617E1,6.103735342E0,1.526750938E1
6.174326042E0,-7.673999258E0,-1.254653435E1,6.953912312E0,1.626845676E1
6.184311042E0,-7.512766964E0,-1.317064627E1,7.998165386E0,1.714287724E1
6.194297042E0,-6.700442530E0,-1.382402350E1,8.812764387E0,1.771057232E1
6.204282042E0,-5.787465879E0,-1.443003711E1,9.450771629E0,1.819444467E1
6.214268042E0,-4.906315039E0,-1.496864520E1,9.884040953E0,1.859641180E1
6.224253042E0,-4.029868283E0,-1.564546977E1,9.920618795E0,1.895888287E1
6.234239042E0,-3.387922942E0,-1.615830566E1,9.632399011E0,1.911418255E1
6.244224042E0,-2.049130998E0,-1.679669297E1,9.186000348E0,1.925384209E1
6.254209042E0,1.813098782E-1,-1.717364776E1,8.681962173E0,1.924431131E1
6.264195042E0,3.057216704E0,-1.672871792E1,8.442309946E0,1.898602577E1
6.274180042E0,7.683058934E0,-1.576225503E1,7.629352843E0,1.912289474E1
6.284166042E0,1.376268270E1,-1.377910168E1,5.447888246E0,2.022262506E1
6.294151042E0,1.837072133E1,-1.122805505E1,4.027387894E0,2.190370917E1
6.304137042E0,1.942741844E1,-9.337353771E0,5.571314782E0,2.226320532E1
6.314122042E0,1.829667686E1,-8.395743306E0,9.013965908E0,2.205693703E1
6.324107042E0,1.889206726E1,-7.678658904E0,1.014114887E1,2.277531357E1
6.334093042E0,2.154757440E1,-7.020460058E0,7.629431781E0,2.391219461E1
6.344078042E0,2.365378826E1,-7.057903288E0,3.689291945E0,2.495849701E1
6.354064042E0,2.438207300E1,-7.457389154E0,5.041065878E-1,2.550200502E1
6.364049042E0,2.421261601E1,-7.227575453E0,-1.833365816E0,2.533475580E1
6.374035042E0,2.332383923E1,-6.928098024E0,-2.883527209E0,2.450132135E1
6.384020042E0,2.274280141E1,-6.780583298E0,-3.038813177E0,2.392583774E1
6.394005042E0,2.265906929E1,-6.509291203E0,-2.851802849E0,2.374735927E1
6.403991042E0,2.255455148E1,-6.298870962E0,-2.321167443E0,2.353234765E1
6.413976042E0,2.205282763E1,-6.277713981E0,-1.411760372E0,2.297237399E1
6.423962042E0,2.099514818E1,-6.420398322E0,-4.206258899E-1,2.195893184E1
6.433947042E0,1.934704262E1,-6.693622338E0,3.402892399E-1,2.047506862E1
6.443932042E0,1.739087767E1,-7.211706694E0,8.068707365E-1,1.884416037E1
6.453918042E0,1.570778939E1,-7.644280785E0,8.902866033E-1,1.749177768E1
6.463903042E0,1.410139787E1,-8.116415382E0,1.051127645E0,1.630430893E1
6.473889042E0,1.281794339E1,-8.580332887E0,1.471545374E0,1.549474849E1
6.483874042E0,1.199221480E1,-9.085881983E0,2.283568093E0,1.521779059E1
6.493860042E0,1.134999639E1,-9.794880854E0,3.588529801E0,1.541556535E1
6.503845042E0,1.095017314E1,-1.050050471E1,4.741575000E0,1.589494965E1
6.513830042E0,1.040928581E1,-1.122446369E1,5.649890835E0,1.631756975E1
6.523816042E0,9.462481263E0,-1.204522799E1,6.646262230E0,1.669727135E1
6.533801042E0,8.810833052E0,-1.270778184E1,7.792688380E0,1.731601833E1
6.543787042E0,8.064219042E0,-1.340644225E1,9.031643211E0,1.806474195E1
6.553772042E0,7.442296321E0,-1.418006865E1,9.889926760E0,1.882213518E1
6.563757792E0,7.707205011E0,-1.488286654E1,9.653247843E0,1.934130088E1
6.573742792E0,7.598408793E0,-1.542227687E1,9.223050646E0,1.951017947E1
6.583727792E0,6.428931749E0,-1.629193559E1,9.887501335E0,2.011270771E1
6.593713792E0,4.056259399E0,-1.704690936E1,1.081133919E1,2.058969194E1
6.603698792E0,1.182035109E0,-1.739469356E1,1.126982171E1,2.076009279E1
6.613684792E0,-4.895344493E-1,-1.708065949E1,1.087135267E1,2.025277466E1
6.623669792E0,-1.085897675E0,-1.676205056E1,1.038193721E1,1.974664865E1
6.633654792E0,-2.670861345E0,-1.630890772E1,1.058998115E1,1.962808376E1
6.643640792E0,-4.597490543E0,-1.520809453E1,1.118823434E1,1.943192337E1
6.653625792E0,-5.908274617E0,-1.406836578E1,1.197323356E1,1.939548779E1
6.663611792E0,-7.175390223E0,-1.322520663E1,1.173196341E1,1.907960379E1
6.673596792E0,-8.739210507E0,-1.300565538E1,1.017706481E1,1.868404454E1
6.683582792E0,-1.055365590E1,-1.214496395E1,7.426755592E0,1.772107505E1
6.693567792E0,-1.225067693E1,-1.111675447E1,5.194945883E0,1.733922656E1
6.703552792E0,-1.446367147E1,-1.024006739E1,3.996991729E0,1.816680256E1
6.713538792E0,-1.621361681E1,-9.290626917E0,3.532045991E0,1.901768828E1
6.723523792E0,-1.677886832E1,-8.467413213E0,3.278185907E0,1.907810293E1
6.733509792E0,-1.655926327E1,-7.554935914E0,2.711060368E0,1.840206796E1
6.743494792E0,-1.565951244E1,-6.641932366E0,1.863914595E0,1.711168528E1
6.753480792E0,-1.446628284E1,-5.981366567E0,1.063895918E0,1.569018673E1
6.763465792E0,-1.355671336E1,-5.410018169E0,6.127180338E-1,1.460918194E1
6.773450792E0,-1.307506300E1,-4.665691590E0,4.863123411E-1,1.389109248E1
6.783436792E0,-1.257073246E1,-4.026879187E0,4.877750221E-1,1.320897404E1
6.793421792E0,-1.161813917E1,-3.516789728E0,5.518742466E-1,1.215127701E1
6.803407792E0,-1.018443698E1,-3.010063003E0,4.324273252E-1,1.062874542E1
6.813392792E0,-8.588694406E0,-2.455977924E0,2.125699702E-1,8.935473415E0
6.823377792E0,-6.791210028E0,-1.879378726E0,3.936257869E-2,7.046569907E0
6.833363792E0,-5.112558029E0,-1.302846186E0,-1.252996919E-1,5.277438564E0
6.843348792E0,-3.795690805E0,-9.018406284E-1,-4.318744710E-1,3.925187991E0
6.853334792E0,-2.693869261E0,-6.258485413E-1,-8.165420312E-1,2.883636399E0
6.863319792E0,-1.990126745E0,-4.207837647E-1,-1.133387445E0,2.328568345E0
6.873305792E0,-1.606136292E0,-2.205435258E-1,-1.387101055E0,2.133626625E0
6.883290792E0,-1.092967105E0,-3.024706185E-2,-1.598141102E0,1.936374694E0
6.893275792E0,-6.609938157E-1,2.274724764E-1,-1.501418214E0,1.656174268E0
6.903261792E0,-3.889336887E-1,4.553507495E-1,-1.039610092E0,1.199751167E0
6.913246792E0,-3.706140697E-2,5.598556960E-1,-4.419234958E-1,7.142186810E-1
6.923232792E0,2.479330534E-1,7.056770682E-1,3.115425736E-2,7.486130585E-1
6.933217792E0,5.734370238E-1,8.375083923E-1,4.606062269E-1,1.114633762E0
6.943203792E0,9.499845555E-1,9.086286610E-1,8.209891310E-1,1.549870915E0
6.953188792E0,1.077523439E0,9.844389814E-1,1.036145617E0,1.789909106E0
6.963173792E0,1.041538504E0,9.583270705E-1,1.052722181E0,1.763920979E0
6.973159792E0,1.005607656E0,8.307729846E-1,8.496413648E-1,1.556701949E0
6.983144792E0,9.509604558E-1,6.727455497E-1,5.438091820E-1,1.285550773E0
6.993130792E0,9.405401328E-1,4.710218722E-1,2.987906733E-1,1.093505012E0
7.003115792E0,8.960492536E-1,3.799128968E-1,8.954221398E-2,9.773719262E-1
7.013101792E0,7.735641190E-1,2.962485963E-1,1.258671641E-2,8.284461977E-1
7.023086792E0,5.750467622E-1,1.721934843E-1,-2.282548338E-2,6.007082299E-1
7.033071792E0,1.837563533E-1,1.077647692E-1,-9.467197627E-2,2.331146197E-1
7.043057792E0,-3.095285001E-1,6.069936097E-2,-1.834759793E-1,3.649051107E-1
7.053042792E0,-7.438909614E-1,-7.914381802E-2,-2.364438593E-1,7.845656155E-1
7.063028792E0,-1.217979406E0,-2.348867458E-1,-3.251850048E-1,1.282338061E0
7.073013792E0,-1.596319986E0,-3.999092048E-1,-4.302331576E-1,1.700960153E0
7.082998792E0,-1.907321985E0,-6.441433096E-1,-4.350676355E-1,2.059631424E0
7.092984792E0,-2.227097146E0,-8.748025185E-1,-3.813393250E-1,2.422944660E0
7.102969792E0,-2.800824484E0,-1.064961573E0,-2.946411967E-1,3.010909227E0
7.112955792E0,-3.514806352E0,-1.369773417E0,-2.627496055E-1,3.781425692E0
7.122940792E0,-4.445286643E0,-1.784686577E0,-2.541416270E-1,4.796901863E0
7.132926792E0,-5.557081490E0,-2.201654449E0,-2.271084872E-1,5.981639847E0
7.142911792E0,-6.656604785E0,-2.635861666E0,-2.289582539E-1,7.163140084E0
7.152896792E0,-7.679534233E0,-3.055478327E0,-2.473418999E-1,8.268758785E0
7.162882792E0,-8.533643455E0,-3.363492690E0,-1.646438518E-1,9.174053700E0
7.172867792E0,-9.251459928E0,-3.679702511E0,7.325128645E-2,9.956660440E0
7.182853792E0,-9.815598124E0,-4.035228426E0,3.577697834E-1,1.061871151E1
7.192838792E0,-1.029258006E1,-4.467286207E0,7.025999710E-1,1.124221940E1
7.202824792E0,-1.073209538E1,-4.930021990E0,1.036383599E0,1.185567708E1
7.212809792E0,-1.104145168E1,-5.506358063E0,1.273129467E0,1.240380962E1
7.222794792E0,-1.110197387E1,-6.213427354E0,1.491966337E0,1.280962400E1
7.232780792E0,-1.107878148E1,-6.850531785E0,1.858219699E0,1.315758964E1
7.242765792E0,-1.109454089E1,-7.490475039E0,2.298103101E0,1.358224325E1
7.252751792E0,-1.092012897E1,-8.242880132E0,2.733037713E0,1.395219642E1
7.262736792E0,-1.071474669E1,-9.001369252E0,3.323721099E0,1.438323910E1
7.272721792E0,-1.055181754E1,-9.769363021E0,4.108815342E0,1.495538935E1
7.282707792E0,-1.022994118E1,-1.068326412E1,4.966504523E0,1.560288422E1
7.292692792E0,-9.908095229E0,-1.154470516E1,5.871942358E0,1.630736875E1
7.302678792E0,-9.372504308E0,-1.205766385E1,6.537194116E0,1.661222446E1
7.312663792E0,-8.562452102E0,-1.262390237E1,6.976871989E0,1.677364718E1
7.322649792E0,-7.677202363E0,-1.321270763E1,7.502630231E0,1.702364648E1
7.332634792E0,-6.897256300E0,-1.365836603E1,8.213031850E0,1.736597245E1
7.342619792E0,-5.983548748E0,-1.404828644E1,8.926643590E0,1.768734500E1
7.352605792E0,-4.160331944E0,-1.431000898E1,9.387289578E0,1.761266375E1
7.362590792E0,-9.125363553E-1,-1.458402939E1,9.181619614E0,1.725771637E1
7.372576792E0,3.839150820E0,-1.425870200E1,8.410236214E0,1.699357923E1
7.382561792E0,7.877976453E0,-1.316986157E1,8.197336754E0,1.739839351E1
7.392547792E0,1.017541239E1,-1.149439572E1,9.012714604E0,1.780138126E1
7.402532792E0,1.099144629E1,-1.007719203E1,9.708468363E0,1.779370812E1
7.412517792E0,1.040210777E1,-9.550763109E0,9.745271323E0,1.715783305E1
7.422503792E0,1.060609841E1,-9.448985889E0,7.889518856E0,1.624860504E1
7.432488792E0,1.159267338E1,-9.359063314E0,5.193730831E0,1.577837071E1
7.442474792E0,1.261994497E1,-9.796042112E0,3.737776473E0,1.640720650E1
7.452459792E0,1.665153584E1,-9.713740212E0,1.475412284E0,1.933409518E1
7.462445792E0,2.487132123E1,-8.144339930E0,-2.847849546E0,2.632533266E1
7.472430792E0,3.033191430E1,-6.555755517E0,-5.152912003E0,3.145720041E1
7.482415792E0,3.012880776E1,-5.361383368E0,-2.892615829E0,3.073852168E1
7.492401792E0,2.739362061E1,-4.258862790E0,1.236860358E0,2.775028263E1
7.502386792E0,2.524053547E1,-4.068630938E0,3.580600392E0,2.581586892E1
7.512372792E0,2.420550814E1,-4.434622199E0,2.685515052E0,2.475448423E1
7.522357792E0,2.362150461E1,-5.161814389E0,-4.126730919E-2,2.417894768E1
7.532342792E0,2.251405600E1,-6.060622652E0,-1.809692194E0,2.338565480E1
7.542328792E0,2.096240143E1,-6.593294057E0,-2.375109616E0,2.210282665E1
7.552313792E0,1.878746525E1,-6.870774261E0,-1.634533587E0,2.007107594E1
7.562300958E0,1.659581305E1,-7.071054845E0,-2.952032603E-2,1.803944841E1
7.572285958E0,1.504781533E1,-7.225791467E0,1.606841758E0,1.676993587E1
7.582271958E0,1.428586817E1,-7.434105542E0,2.804635699E0,1.634680201E1
7.592256958E0,1.386784838E1,-7.895596452E0,3.556875899E0,1.634958801E1
7.602241958E0,1.366720702E1,-8.524730544E0,4.108901589E0,1.662367742E1
7.612227958E0,1.333581841E1,-9.228296767E0,4.632571206E0,1.686612670E1
7.622212958E0,1.265603866E1,-1.000031518E1,5.354794725E0,1.699574784E1
7.632198958E0,1.211925725E1,-1.084529397E1,6.113239406E0,1.737436311E1
7.642183958E0,1.172385449E1,-1.155904253E1,6.871689935E0,1.784041342E1
7.652169958E0,1.126766993E1,-1.213101366E1,7.989653009E0,1.838359142E1
7.662154958E0,1.070226991E1,-1.269535300E1,9.482678715E0,1.912150006E1
7.672139958E0,9.991506929E0,-1.336119650E1,1.095281608E1,1.995785466E1
7.682125958E0,8.898990937E0,-1.427932981E1,1.218819124E1,2.077602718E1
7.692110958E0,7.257289249E0,-1.557710295E1,1.283427583E1,2.144838035E1
7.702096958E0,4.853197178E0,-1.716515410E1,1.281704058E1,2.196525819E1
7.712081958E0,2.377111556E0,-1.832864359E1,1.252367290E1,2.232559559E1
7.722066958E0,2.991198716E-1,-1.926439807E1,1.209666244E1,2.274941203E1
7.732052958E0,-2.352275362E0,-2.017711803E1,1.170852426E1,2.344651001E1
7.742037958E0,-5.729975470E0,-1.993038892E1,1.132955101E1,2.363073735E1
7.752023958E0,-8.624238460E0,-1.882313326E1,1.072685745E1,2.331851851E1
7.762008958E0,-1.141492036E1,-1.718080826E1,9.412033825E0,2.267304479E1
7.771994958E0,-1.410976406E1,-1.542928417E1,7.580791717E0,2.223997875E1
7.781979958E0,-1.579638991E1,-1.344784522E1,5.395714125E0,2.143558271E1
7.791964958E0,-1.586941929E1,-1.150172813E1,3.287357265E0,1.987297000E1
7.801950958E0,-1.460093836E1,-1.008939634E1,1.498853333E0,1.781094834E1
7.811935958E0,-1.290992360E1,-9.186703184E0,5.330321789E-2,1.584501448E1
7.821921958E0,-1.185520284E1,-8.336281800E0,-7.955572513E-1,1.451455614E1
7.831906958E0,-1.135965482E1,-7.408004156E0,-1.071301709E0,1.360396893E1
7.841891958E0,-1.110384030E1,-6.474996114E0,-9.356439668E-1,1.288783433E1
7.851877958E0,-1.106595970E1,-5.705873247E0,-7.126782319E-1,1.247078041E1
7.861862958E0,-1.103451221E1,-5.290703394E0,-7.348508736E-1,1.225936409E1
7.871848958E0,-1.118981659E1,-4.911161211E0,-1.039378250E0,1.226424914E1
7.881833958E0,-1.172838959E1,-4.357210618E0,-1.373306889E0,1.258675410E1
7.891819958E0,-1.193365610E1,-3.947844127E0,-1.342724782E0,1.264122348E1
7.901804958E0,-1.128920406E1,-3.439521112E0,-1.130104818E0,1.185552912E1
7.911789958E0,-9.968300500E0,-2.880692187E0,-1.085657500E0,1.043283540E1
7.921775958E0,-8.282411402E0,-2.478915966E0,-1.017452946E0,8.705088943E0
7.931760958E0,-6.524653008E0,-2.121155831E0,-9.377480873E-1,6.924577273E0
7.941746958E0,-4.943934855E0,-1.753762992E0,-8.673721692E-1,5.317002065E0
7.951731958E0,-3.607888178E0,-1.362111810E0,-5.844464538E-1,3.900485014E0
7.961717958E0,-2.615718008E0,-9.437949854E-1,-1.571635088E-1,2.785216337E0
7.971702958E0,-1.983952085E0,-5.307120037E-1,2.762025869E-1,2.072199067E0
7.981687958E0,-1.563637267E0,-2.397124529E-1,5.726868260E-1,1.682377414E0
7.991673958E0,-1.353783036E0,1.057527423E-2,5.979535219E-1,1.479996202E0
8.001658958E0,-1.189998725E0,1.925067115E-1,5.449833030E-1,1.322937111E0
8.011644958E0,-1.118333496E0,3.794860500E-1,4.107467267E-1,1.250356886E0
8.021629958E0,-1.091431041E0,4.823414969E-1,3.319139805E-1,1.238564462E0
8.031614958E0,-8.029609957E-1,5.260868561E-1,1.960302436E-1,9.797660931E-1
8.041600958E0,-2.778134948E-1,5.361674559E-1,4.973875523E-2,6.059123884E-1
8.051585958E0,3.319063792E-1,5.794503003E-1,4.494754672E-2,6.692867674E-1
8.061571958E0,8.678335145E-1,6.363904864E-1,2.475278413E-1,1.104263507E0
8.071556958E0,1.164202856E0,6.844879282E-1,6.086252752E-1,1.481322632E0
8.081542958E0,1.160020635E0,7.876269650E-1,8.674850205E-1,1.648797856E0
8.091527958E0,8.901286554E-1,8.392064238E-1,8.891776058E-1,1.512360162E0
8.101512958E0,5.266587138E-1,6.953228188E-1,6.575182307E-1,1.092324790E0
8.111498958E0,1.823416194E-1,5.223814756E-1,2.190846455E-1,5.950873500E-1
8.121483958E0,-2.375504449E-1,3.304489607E-1,-1.761084875E-1,4.434421370E-1
8.131469958E0,-6.669702548E-1,8.874494612E-2,-3.427123260E-1,7.551004732E-1
8.141454958E0,-1.095913224E0,-1.232984823E-1,-3.049448678E-1,1.144211380E0
8.151440958E0,-1.555100624E0,-3.911997771E-1,-1.428471860E-1,1.609900784E0
8.161425958E0,-2.163496104E0,-7.592761552E-1,6.479942858E-2,2.293777373E0
8.171410958E0,-2.903101641E0,-1.146942460E0,2.201421145E-1,3.129207359E0
8.181396958E0,-3.745538067E0,-1.569824206E0,2.528222027E-1,4.069068998E0
8.191381958E0,-4.879934448E0,-2.099791859E0,2.117782572E-1,5.316741117E0
8.201367958E0,-6.307710782E0,-2.613988987E0,6.699184209E-2,6.828223901E0
8.211352958E0,-7.953292683E0,-3.191623142E0,-1.794966567E-1,8.571670889E0
8.221337958E0,-9.652059689E0,-3.860601915E0,-4.370732304E-1,1.040468819E1
8.231323958E0,-1.134122557E1,-4.498594539E0,-7.164464700E-1,1.222186752E1
8.241308958E0,-1.262687977E1,-5.165641977E0,-9.139233148E-1,1.367322952E1
8.251294958E0,-1.326268144E1,-5.917668754E0,-9.330469260E-1,1.455294125E1
8.261279958E0,-1.352272934E1,-6.624383703E0,-6.368015456E-1,1.507156875E1
8.271265958E0,-1.334280350E1,-7.102343296E0,1.273602507E-1,1.511588258E1
8.281250958E0,-1.279193497E1,-7.566391194E0,1.084129915E0,1.490165138E1
8.291235958E0,-1.219471206E1,-8.249193370E0,1.883951833E0,1.484282547E1
8.301221958E0,-1.157217538E1,-8.992359862E0,2.425499897E0,1.485465680E1
8.311206958E0,-1.107950536E1,-9.749340985E0,2.831994821E0,1.502748427E1
8.321192958E0,-1.072110028E1,-1.067916522E1,3.189966918E0,1.546487795E1
8.331177958E0,-1.064078059E1,-1.158930538E1,3.683419294E0,1.615876816E1
8.341162958E0,-1.076403872E1,-1.238231413E1,4.378466417E0,1.698108362E1
8.351148958E0,-1.077105304E1,-1.319193598E1,5.395927548E0,1.786501589E1
8.361133958E0,-1.053015945E1,-1.398756895E1,6.935964868E0,1.883199278E1
8.371119958E0,-9.830673416E0,-1.458666765E1,8.791192839E0,1.966464046E1
8.381104958E0,-8.563698143E0,-1.508351960E1,1.078155464E1,2.042281591E1
8.391090958E0,-6.995635119E0,-1.573867555E1,1.229394750E1,2.116095376E1
8.401075958E0,-5.419557901E0,-1.645502496E1,1.292906972E1,2.161712974E1
8.411060958E0,-4.128592088E0,-1.692745426E1,1.289563768E1,2.167674910E1
8.421046958E0,-3.103492738E0,-1.726556482E1,1.272470719E1,2.167139979E1
8.431031958E0,-7.888051790E-1,-1.793843667E1,1.231933026E1,2.177557397E1
8.441017958E0,2.432018958E0,-1.826413945E1,1.149957050E1,2.171942973E1
8.451002958E0,6.672124465E0,-1.782560646E1,9.903116909E0,2.145556373E1
8.460988958E0,1.228726764E1,-1.635640231E1,7.679868693E0,2.185152685E1
8.470973958E0,1.719580988E1,-1.431976447E1,6.439590638E0,2.328561486E1
8.480958958E0,1.982172192E1,-1.246935110E1,5.838137265E0,2.413439918E1
8.490944958E0,2.074128078E1,-1.093638891E1,5.349066208E0,2.405031892E1
8.500929958E0,2.093871553E1,-9.949968309E0,5.163079142E0,2.375055923E1
8.510915958E0,2.039640967E1,-9.428565073E0,5.065220726E0,2.303405799E1
8.520900958E0,2.194112710E1,-8.568482335E0,3.170934523E0,2.376734679E1
8.530885958E0,2.357737684E1,-7.858271336E0,1.140382469E-1,2.485272886E1
8.540871958E0,2.353742633E1,-7.642743552E0,-2.227630119E0,2.484721922E1
8.550856958E0,2.259551473E1,-7.500811747E0,-3.470184495E0,2.405954370E1
8.560842958E0,2.119279108E1,-7.097809365E0,-3.717627552E0,2.265687636E1
8.570826833E0,1.994454386E1,-7.004666144E0,-2.876715496E0,2.133367454E1
8.580812833E0,1.986883879E1,-6.924342942E0,-2.011397892E0,2.113676894E1
8.590797833E0,2.058446314E1,-6.673238359E0,-1.637435122E0,2.170100059E1
8.600782833E0,2.134832936E1,-6.407413411E0,-1.496486673E0,2.233932822E1
8.610768833E0,2.117599554E1,-6.386679184E0,-1.180793161E0,2.214964403E1
8.620753833E0,1.964608794E1,-6.557529563E0,-5.148892920E-1,2.071798919E1
8.630739833E0,1.747011212E1,-6.759391819E0,3.143745263E-1,1.873480789E1
8.640724833E0,1.542317968E1,-7.173783408E0,9.638673073E-1,1.703721456E1
8.650710833E0,1.394292663E1,-7.651256513E0,1.298153649E0,1.595719687E1
8.660695833E0,1.284383018E1,-8.200866133E0,1.569408469E0,1.531930880E1
8.670680833E0,1.189703382E1,-8.837387012E0,2.231230835E0,1.498723503E1
8.680666833E0,1.134662605E1,-9.246930090E0,3.379849691E0,1.502248391E1
8.690651833E0,1.071314222E1,-9.641036518E0,4.992100124E0,1.525260846E1
8.700637833E0,1.015966817E1,-1.027877596E1,6.862517992E0,1.599894515E1
8.710622833E0,9.725484345E0,-1.102284584E1,8.442642653E0,1.695188459E1
8.720607833E0,9.428311304E0,-1.184961173E1,9.387137550E0,1.781641669E1
8.730593833E0,9.197979539E0,-1.279427854E1,9.886106189E0,1.860192158E1
8.740578833E0,8.666885127E0,-1.397322690E1,1.023776709E1,1.936950807E1
8.750564833E0,7.727097824E0,-1.513878865E1,1.033592664E1,1.989277110E1
8.760549833E0,6.005210343E0,-1.609573812E1,1.050084034E1,2.013462154E1
8.770535833E0,4.357736868E0,-1.685177608E1,1.072678728E1,2.044593341E1
8.780520833E0,3.284129602E0,-1.743217071E1,1.068852661E1,2.071015895E1
8.790505833E0,2.450222510E0,-1.800493823E1,1.089721608E1,2.118798502E1
8.800491833E0,1.273068948E0,-1.850418285E1,1.141449703E1,2.177880231E1
8.810476833E0,-7.635878921E-3,-1.856221530E1,1.193923317E1,2.207036891E1
8.820462833E0,-1.496436094E0,-1.842808485E1,1.219523597E1,2.214853071E1
8.830447833E0,-3.977690947E0,-1.840701967E1,1.211296097E1,2.239116392E1
8.840432833E0,-7.674775769E0,-1.857858283E1,1.158751263E1,2.320207689E1
8.850418833E0,-1.282642887E1,-1.783806571E1,9.797385217E0,2.405623875E1
8.860403833E0,-1.733526480E1,-1.551348641E1,7.053507936E0,2.430908556E1
8.870389833E0,-2.028002903E1,-1.281649094E1,4.592092394E0,2.442599701E1
8.880374833E0,-2.084517645E1,-1.111964767E1,1.992842191E0,2.370947839E1
8.890360833E0,-1.941906043E1,-1.006272602E1,-6.832892489E-1,2.188207593E1
8.900345833E0,-1.724230694E1,-8.928813491E0,-2.491240143E0,1.957618799E1
8.910330833E0,-1.512019333E1,-7.757065389E0,-2.966141642E0,1.725080596E1
8.920316833E0,-1.380899031E1,-6.625052040E0,-2.453454558E0,1.551125292E1
8.930301833E0,-1.323532232E1,-5.738341082E0,-1.776732902E0,1.453475473E1
8.940287833E0,-1.266651103E1,-5.119703912E0,-1.513925701E0,1.374568444E1
8.950272833E0,-1.216221440E1,-4.434089810E0,-1.717878630E0,1.305877937E1
8.960258833E0,-1.138032356E1,-3.714593432E0,-1.917436206E0,1.212380016E1
8.970243833E0,-1.001659265E1,-3.068458561E0,-1.617787454E0,1.060022653E1
8.980228833E0,-8.343289104E0,-2.547938254E0,-9.297859338E-1,8.773081801E0
8.990214833E0,-6.661346877E0,-2.000051224E0,-2.497547534E-1,6.959606637E0
9.000199833E0,-5.347647089E0,-1.448737725E0,1.882908690E-1,5.543611082E0
9.010185833E0,-4.220787476E0,-1.038156767E0,5.788807815E-1,4.384965148E0
9.020170833E0,-3.372878641E0,-7.604514456E-1,9.215653333E-1,3.578250884E0
9.030155833E0,-2.903311556E0,-5.102175128E-1,9.931332064E-1,3.110603393E0
9.040141833E0,-2.543345266E0,-2.607548279E-1,8.529590750E-1,2.695206375E0
9.050126833E0,-2.115180269E0,-4.242798150E-2,7.153416386E-1,2.233271448E0
9.060112833E0,-1.792026879E0,1.550617272E-1,6.695202255E-1,1.919286796E0
9.070097833E0,-1.369890068E0,3.747995067E-1,6.864008448E-1,1.577409138E0
9.080083833E0,-6.955695713E-1,6.119929790E-1,7.431457338E-1,1.187694412E0
9.090068833E0,1.385664394E-1,7.380495930E-1,8.026353058E-1,1.099154809E0
9.100053833E0,9.731673038E-1,7.235274482E-1,7.054452261E-1,1.402925350E0
9.110039833E0,1.610661160E0,7.755051023E-1,3.823365676E-1,1.828064218E0
9.120024833E0,1.874324393E0,8.482777941E-1,5.821634084E-2,2.058168187E0
9.130010833E0,1.879898543E0,8.771384811E-1,-1.719139874E-1,2.081572691E0
9.139995833E0,1.719780436E0,9.089660454E-1,-3.945242116E-1,1.984820741E0
9.149981833E0,1.512748657E0,8.191908199E-1,-5.396906957E-1,1.802983124E0
9.159966833E0,1.312940527E0,6.852410495E-1,-6.887566879E-1,1.633326023E0
9.169951833E0,1.116345735E0,5.823768318E-1,-7.799285209E-1,1.481107380E0
9.179937833E0,9.067832798E-1,4.200458461E-1,-7.074756718E-1,1.224424867E0
9.189922833E0,6.559000137E-1,3.324264890E-1,-6.031379557E-1,9.510455258E-1
9.199908833E0,4.831691703E-1,2.246324837E-1,-3.631541920E-1,6.448202595E-1
9.209893833E0,2.292704952E-1,8.267729044E-2,-7.196197540E-2,2.541240253E-1
9.219878833E0,-1.573547128E-1,-1.903093278E-2,1.683027470E-1,2.311893092E-1
9.229864833E0,-6.803767508E-1,-2.062184322E-1,1.955881941E-1,7.373556174E-1
9.239849833E0,-1.299827561E0,-5.123827368E-1,5.964364618E-2,1.398443822E0
9.249835833E0,-2.062348629E0,-9.141759145E-1,-1.334510028E-1,2.259824913E0
9.259820833E0,-3.092400862E0,-1.423688838E0,-3.246301040E-1,3.419827145E0
9.269806833E0,-4.318554091E0,-1.987058710E0,-5.181612477E-1,4.781924595E0
9.279791833E0,-5.784724705E0,-2.619784162E0,-5.634283447E-1,6.375245914E0
9.289776833E0,-7.642316705E0,-3.354297944E0,-4.719933870E-1,8.359371811E0
9.299762833E0,-9.733054150E0,-4.144075515E0,-4.676708329E-1,1.058888195E1
9.309747833E0,-1.175379925E1,-4.925445959E0,-5.923249921E-1,1.275784714E1
9.319733833E0,-1.338268852E1,-5.750471715E0,-7.054455185E-1,1.458293285E1
9.329718833E0,-1.450264316E1,-6.658202244E0,-7.285089836E-1,1.597463743E1
9.339703833E0,-1.514619122E1,-7.447551799E0,-7.501097676E-1,1.689484540E1
9.349689833E0,-1.515123386E1,-8.189328992E0,-6.620837367E-1,1.723552586E1
9.359674833E0,-1.450797699E1,-8.866466385E0,-1.979937387E-1,1.700396495E1
9.369660833E0,-1.346943665E1,-9.558355719E0,6.066892621E-1,1.652743052E1
9.379645833E0,-1.255314170E1,-1.035845713E1,1.498553663E0,1.634394884E1
9.389631833E0,-1.168667790E1,-1.105185973E1,2.415965866E0,1.626526774E1
9.399616833E0,-1.088695772E1,-1.165443869E1,3.314012382E0,1.628909045E1
9.409601833E0,-1.025558239E1,-1.225192590E1,4.222504803E0,1.652622779E1
9.419587833E0,-9.640881566E0,-1.281411580E1,5.010985461E0,1.680053977E1
9.429572833E0,-9.043517736E0,-1.358943204E1,5.753619272E0,1.730785980E1
9.439558833E0,-8.699999079E0,-1.424829747E1,6.502164617E0,1.791597358E1
9.449543833E0,-8.534651515E0,-1.449363143E1,7.277636390E0,1.832674603E1
9.459529833E0,-8.174283521E0,-1.490084089E1,8.446063274E0,1.897867106E1
9.469514833E0,-7.587835858E0,-1.565020835E1,1.025769441E1,2.019219079E1
9.479499833E0,-6.547527900E0,-1.656345690E1,1.235796749E1,2.167804388E1
9.489485833E0,-4.870934122E0,-1.730211811E1,1.440754288E1,2.303620155E1
9.499470833E0,-2.484020001E0,-1.784690436E1,1.520572056E1,2.357745296E1
9.509456833E0,8.794656730E-1,-1.792830228E1,1.381332660E1,2.264962415E1
9.519441833E0,4.096787328E0,-1.768964934E1,1.185457836E1,2.168498071E1
9.529426833E0,6.390024376E0,-1.742728711E1,1.075362366E1,2.145188033E1
9.539412833E0,1.005849614E1,-1.670029110E1,9.359012443E0,2.162554465E1
9.549397833E0,1.580979758E1,-1.502112045E1,6.372006766E0,2.271973215E1
9.559383833E0,2.117381570E1,-1.264515816E1,2.755568789E0,2.481579448E1
9.569369542E0,2.321280529E1,-1.042249818E1,2.448411188E0,2.556281508E1
9.579355542E0,2.258795545E1,-9.043586733E0,4.819075166E0,2.480374322E1
9.589340542E0,2.212281880E1,-8.379710825E0,5.803167408E0,2.435806678E1
9.599325542E0,2.295697089E1,-8.192173662E0,3.953835184E0,2.469346137E1
9.609311542E0,2.448863266E1,-8.200690717E0,5.931140739E-1,2.583207777E1
9.619296542E0,2.569945069E1,-8.073366426E0,-2.643477665E0,2.706712000E1
9.629282542E0,2.613439699E1,-7.456121478E0,-4.523606881E0,2.755110656E1
9.639267542E0,2.510132730E1,-6.901232407E0,-4.711862959E0,2.645572327E1
9.649252542E0,2.324628878E1,-6.450766422E0,-3.649776754E0,2.439924589E1
9.659238542E0,2.184293364E1,-6.076202558E0,-2.488413599E0,2.280846750E1
9.669223542E0,2.137963301E1,-5.941819509E0,-1.710556308E0,2.225578418E1
9.679209542E0,2.107018199E1,-5.895330051E0,-1.091454722E0,2.190659167E1
9.689194542E0,2.014594301E1,-5.915664328E0,-2.383681780E-1,2.099787903E1
9.699180542E0,1.867077938E1,-6.217968886E0,8.335895884E-1,1.969659898E1
9.709165542E0,1.700276756E1,-6.671790588E0,1.702992788E0,1.834412928E1
9.719150542E0,1.540014165E1,-7.127525500E0,2.331920034E0,1.712903481E1
9.729136542E0,1.407016789E1,-7.565028793E0,2.929856161E0,1.624140826E1
9.739121542E0,1.295287841E1,-7.996687210E0,3.633089678E0,1.565002895E1
9.749107542E0,1.193583945E1,-8.375687356E0,4.605206822E0,1.529131557E1
9.759092542E0,1.086601299E1,-8.904767987E0,6.049760864E0,1.529590592E1
9.769078542E0,9.875502849E0,-9.443804086E0,7.785821995E0,1.572672936E1
9.779063542E0,8.929929725E0,-9.925178454E0,9.526932782E0,1.640168468E1
9.789048542E0,8.468462203E0,-1.052477534E1,1.091278604E1,1.736590473E1
9.799034542E0,8.172496027E0,-1.110900690E1,1.167657976E1,1.807047981E1
9.809019542E0,7.851550546E0,-1.180284687E1,1.205387485E1,1.860779243E1
9.819005542E0,7.387626024E0,-1.273232846E1,1.227433944E1,1.916634068E1
9.828990542E0,6.541409374E0,-1.365312225E1,1.236283705E1,1.954578020E1
9.838975542E0,5.471902176E0,-1.445664428E1,1.243033146E1,1.983555942E1
9.848961542E0,4.191892875E0,-1.542118227E1,1.246765892E1,2.026887632E1
9.858946542E0,2.455359288E0,-1.643422641E1,1.235948894E1,2.070916594E1
9.868932542E0,1.286796749E0,-1.707748796E1,1.182565101E1,2.081207493E1
9.878917542E0,9.035898229E-1,-1.756481830E1,1.108692197E1,2.079084307E1
9.888903542E0,-1.232110664E-1,-1.817951854E1,1.059949340E1,2.104422333E1
9.898888542E0,-1.686988374E0,-1.829708383E1,1.020767148E1,2.101965184E1
9.908873542E0,-2.986285593E0,-1.797724113E1,9.671693469E0,2.063106287E1
9.918859542E0,-4.792676741E0,-1.785166165E1,8.841854285E0,2.048975259E1
9.928844542E0,-7.500610603E0,-1.711920200E1,7.437934299E0,2.011589181E1
9.938830542E0,-1.019007136E1,-1.592368029E1,5.870033827E0,1.979541475E1
9.948815542E0,-1.261961051E1,-1.453165588E1,4.180073313E0,1.969509088E1
9.958801542E0,-1.460981795E1,-1.261930529E1,2.027673178E0,1.941146838E1
9.968786542E0,-1.556788774E1,-1.097979396E1,3.590424299E-2,1.905036202E1
9.978771542E0,-1.551521719E1,-9.848798615E0,-1.322768235E0,1.842472563E1
9.988757542E0,-1.485157108E1,-8.862418358E0,-1.903672737E0,1.739929862E1
9.998742542E0,-1.422788951E1,-8.165899783E0,-1.809319727E0,1.650419332E1
1.000872854E1,-1.355737760E1,-7.574038183E0,-1.405939615E0,1.559311412E1
1.001871354E1,-1.277342035E1,-6.753638744E0,-1.093597727E0,1.449026776E1
1.002869854E1,-1.218414263E1,-5.999499367E0,-6.649936035E-1,1.359740934E1
1.003868454E1,-1.137370919E1,-5.320846376E0,-3.294941103E-1,1.256110000E1
1.004866954E1,-1.039213008E1,-4.837540088E0,-2.802526608E-1,1.146632911E1
1.005865554E1,-9.630552460E0,-4.494161180E0,-3.748828295E-1,1.063416957E1
1.006864054E1,-9.144762275E0,-4.124263394E0,-3.167655990E-1,1.003676074E1
1.007862654E1,-8.780021149E0,-3.566421479E0,-3.632758141E-2,9.476784963E0
1.008861154E1,-8.179067713E0,-2.829015664E0,3.201002660E-1,8.660423919E0
1.009859654E1,-7.184575614E0,-2.278964580E0,5.902755430E-1,7.560438580E0
1.010858254E1,-5.951253991E0,-1.772633711E0,7.632385209E-1,6.256371743E0
1.011856754E1,-4.489263552E0,-1.297393658E0,6.720114318E-1,4.721050403E0
1.012855354E1,-3.098996814E0,-9.220614696E-1,5.188725615E-1,3.274630871E0
1.013853854E1,-1.909075272E0,-5.361434823E-1,2.670361993E-1,2.000831467E0
1.014852354E1,-9.500222701E-1,-1.396683472E-1,5.647591710E-2,9.618934921E-1
1.015850954E1,-3.529812062E-1,1.525497633E-1,-1.018593737E-1,3.977970516E-1
1.016849454E1,2.215217650E-2,3.812209189E-1,-2.605586538E-1,4.622887842E-1
1.017848054E1,3.549555185E-1,5.434957713E-1,-5.136998221E-1,8.278095076E-1
1.018846554E1,5.581985950E-1,6.227653044E-1,-7.311247355E-1,1.110840076E0
1.019845154E1,6.028514421E-1,6.852761328E-1,-8.087471080E-1,1.219469198E0
1.020843654E1,6.351692954E-1,8.197691095E-1,-7.338945615E-1,1.270457655E0
1.021842154E1,7.289036706E-1,8.665035653E-1,-4.626846197E-1,1.223195016E0
1.022840754E1,8.314521387E-1,8.561066312E-1,-1.358100620E-1,1.201114314E0
1.023839254E1,9.085447535E-1,9.312538773E-1,2.187045765E-1,1.319287325E0
1.024837854E1,9.664532384E-1,9.994522923E-1,5.410010567E-1,1.491850827E0
1.025836354E1,8.934147906E-1,1.011154910E0,7.146139526E-1,1.526858651E0
1.026834954E1,7.704013601E-1,9.349873245E-1,6.336677304E-1,1.367206768E0
1.027833454E1,6.862575880E-1,7.810663891E-1,3.981871998E-1,1.113358535E0
1.028831954E1,5.380075747E-1,6.540467387E-1,1.702533782E-1,8.638376582E-1
1.029830554E1,2.957159150E-1,5.480267787E-1,7.015255451E-2,6.266599025E-1
1.030829054E1,-1.655522168E-2,4.889769173E-1,1.004586732E-1,4.994641589E-1
1.031827654E1,-2.703249657E-1,4.649097776E-1,1.387722614E-1,5.554047434E-1
1.032826154E1,-3.170348632E-1,4.286020768E-1,1.583791450E-1,5.561427859E-1
1.033824654E1,-1.994648981E-1,3.178131276E-1,8.752375513E-2,3.852944814E-1
1.034823254E1,-1.180304334E-1,2.070960993E-1,3.762595564E-2,2.413207203E-1
1.035821754E1,-2.407421476E-1,1.078741121E-1,8.490800321E-2,2.771334962E-1
1.036820354E1,-5.437738064E-1,-7.460579395E-2,8.256268501E-2,5.550428578E-1
1.037818854E1,-9.680223387E-1,-3.236691141E-1,-6.288388073E-3,1.020719593E0
1.038817454E1,-1.522148056E0,-5.621138906E-1,-7.408685356E-2,1.624313883E0
1.039815954E1,-2.270282926E0,-7.940454537E-1,-7.108109236E-2,2.406188951E0
1.040814454E1,-3.188636969E0,-1.177543278E0,-1.200412908E-1,3.401238569E0
1.041813054E1,-4.219153179E0,-1.717148312E0,-2.709579268E-1,4.563252138E0
1.042811554E1,-5.419303547E0,-2.213445359E0,-4.859398735E-1,5.874038547E0
1.043810154E1,-6.840755825E0,-2.745715646E0,-6.339413801E-1,7.398430667E0
1.044808654E1,-8.313470058E0,-3.373739936E0,-7.098943725E-1,8.999991976E0
1.045807154E1,-9.734551038E0,-3.952326602E0,-7.596983242E-1,1.053373206E1
1.046805754E1,-1.086545868E1,-4.525240300E0,-7.055504760E-1,1.179125920E1
1.047804254E1,-1.172541921E1,-5.110294572E0,-5.607643533E-1,1.280293025E1
1.048802854E1,-1.233686606E1,-5.716139204E0,-1.830198964E-1,1.359801485E1
1.049801354E1,-1.260284303E1,-6.271722924E0,5.096386385E-1,1.408637258E1
1.050799954E1,-1.255958299E1,-6.821506206E0,1.308237319E0,1.435226661E1
1.051798454E1,-1.225266264E1,-7.460208097E0,2.034898875E0,1.448872873E1
1.052796954E1,-1.166292300E1,-8.211746632E0,2.634902723E0,1.450514626E1
1.053795554E1,-1.104722756E1,-9.022337367E0,3.108874515E0,1.459825021E1
1.054794054E1,-1.059475481E1,-9.753111269E0,3.499729307E0,1.481958549E1
1.055792654E1,-1.032291074E1,-1.045923273E1,3.986733373E0,1.522668967E1
1.056791117E1,-1.013302007E1,-1.126197591E1,4.559528665E0,1.582085645E1
1.057789717E1,-9.944950229E0,-1.223074494E1,5.338537127E0,1.664311075E1
1.058788217E1,-9.749694157E0,-1.307686628E1,6.057262841E0,1.739975290E1
1.059786717E1,-9.410294278E0,-1.394257229E1,6.624540993E0,1.807853710E1
1.060785317E1,-8.799762518E0,-1.489024105E1,7.175472668E0,1.872545078E1
1.061783817E1,-8.230022689E0,-1.569731118E1,7.811922212E0,1.936917604E1
1.062782417E1,-7.555906552E0,-1.640549086E1,8.781667725E0,2.008356398E1
1.063780917E1,-6.833641518E0,-1.697275965E1,1.000230674E1,2.085232281E1
1.064779417E1,-5.723099145E0,-1.729630714E1,1.130724740E1,2.144224681E1
1.065778017E1,-4.187269481E0,-1.780814434E1,1.225438523E1,2.201892795E1
1.066776517E1,-2.404582652E0,-1.846886450E1,1.268506190E1,2.253423549E1
1.067775117E1,4.368045509E-2,-1.887607746E1,1.231740185E1,2.253944535E1
1.068773617E1,3.576661123E0,-1.882018159E1,1.147469411E1,2.233070408E1
1.069772217E1,9.452388968E0,-1.802841246E1,9.353670427E0,2.240228701E1
1.070770717E1,1.813736830E1,-1.581863389E1,4.385471966E0,2.446274047E1
1.071769217E1,2.274659509E1,-1.282604880E1,1.265222862E0,2.614413710E1
1.072767817E1,2.122775743E1,-1.064477657E1,3.970667564E0,2.407685932E1
1.073766317E1,1.916145667E1,-8.768642467E0,8.158602458E0,2.259675434E1
1.074764917E1,1.931990920E1,-7.656793242E0,9.103641146E0,2.268835949E1
1.075763417E1,2.031048132E1,-7.876966054E0,6.205329545E0,2.265101235E1
1.076761917E1,2.135815034E1,-8.405500554E0,1.246935110E0,2.298647152E1
1.077760517E1,2.154481685E1,-9.068526278E0,-3.024516150E0,2.357042639E1
1.078759017E1,2.116856958E1,-9.262008305E0,-5.589280937E0,2.377253031E1
1.079757617E1,2.140924565E1,-8.832968271E0,-6.506706734E0,2.405648271E1
1.080756117E1,2.239754906E1,-8.306318328E0,-6.134440241E0,2.466326185E1
1.081754717E1,2.364998757E1,-7.607258554E0,-4.966087616E0,2.533484401E1
1.082753217E1,2.447550917E1,-7.020162435E0,-3.712445750E0,2.573160475E1
1.083751717E1,2.459701665E1,-6.839759459E0,-2.803048180E0,2.568370333E1
1.084750317E1,2.362480946E1,-6.989033028E0,-2.465359197E0,2.475997174E1
1.085748817E1,2.164108307E1,-7.390010519E0,-2.287830128E0,2.298223007E1
1.086747417E1,1.936085608E1,-8.015857891E0,-1.928317582E0,2.104317311E1
1.087745917E1,1.718629763E1,-8.629134918E0,-1.567691141E0,1.929477782E1
1.088744517E1,1.549407249E1,-9.223709042E0,-1.147706691E0,1.806821301E1
1.089743017E1,1.457692619E1,-9.673816593E0,-4.113843656E-1,1.749967833E1
1.090741517E1,1.385925297E1,-1.019426498E1,9.814083695E-1,1.723267518E1
1.091740117E1,1.353545288E1,-1.066755849E1,2.714855211E0,1.744636718E1
1.092738617E1,1.325571273E1,-1.118142233E1,4.542626996E0,1.792689559E1
1.093737217E1,1.248262896E1,-1.187963601E1,6.841339377E0,1.854038031E1
1.094735717E1,1.137092357E1,-1.261158696E1,9.301598632E0,1.936155380E1
1.095734217E1,1.050396276E1,-1.321462317E1,1.123108273E1,2.027552018E1
1.096732817E1,9.545975994E0,-1.400425690E1,1.230467597E1,2.094397096E1
1.097731317E1,8.532320230E0,-1.517566704E1,1.265012362E1,2.152038536E1
1.098729917E1,7.654698769E0,-1.641644971E1,1.251180423E1,2.201452882E1
1.099728417E1,6.591045218E0,-1.800432895E1,1.225658846E1,2.275569596E1
1.100727017E1,4.652228376E0,-1.980270210E1,1.191772595E1,2.357588664E1
1.101725517E1,2.192539809E0,-2.107268226E1,1.176859505E1,2.423561424E1
1.102724017E1,-1.560671559E-1,-2.200509330E1,1.159380540E1,2.487297352E1
1.103722617E1,-3.011603452E0,-2.229508713E1,1.117719246E1,2.512111257E1
1.104721117E1,-5.432500128E0,-2.184858438E1,1.050569353E1,2.484436141E1
1.105719717E1,-7.015172421E0,-2.127172148E1,9.432636489E0,2.430377357E1
1.106718217E1,-8.416733640E0,-2.053252817E1,8.329796069E0,2.370256570E1
1.107716717E1,-1.077601616E1,-1.901569962E1,7.229611453E0,2.302143866E1
1.108715317E1,-1.473768252E1,-1.659829227E1,6.741728550E0,2.319813562E1
1.109713817E1,-1.914643400E1,-1.343032228E1,6.052622491E0,2.415768471E1
1.110712417E1,-2.242571626E1,-1.046939051E1,4.374927974E0,2.513286459E1
1.111710917E1,-2.340972548E1,-8.686368635E0,1.732779382E0,2.502939814E1
1.112709517E1,-2.115102559E1,-7.908393669E0,-6.081791326E-1,2.258934386E1
1.113708017E1,-1.692198243E1,-7.257065300E0,-1.549316559E0,1.847752332E1
1.114706517E1,-1.284259291E1,-6.433590810E0,-9.458926740E-1,1.439506847E1
1.115705117E1,-9.966562707E0,-5.442361457E0,2.136338711E-1,1.135769826E1
1.116703617E1,-8.524682012E0,-4.571515165E0,9.531861985E-1,9.719954642E0
1.117702217E1,-7.890891198E0,-4.113902712E0,9.643073103E-1,8.950991454E0
1.118700717E1,-7.666933483E0,-3.767728835E0,-1.308986932E-2,8.542705716E0
1.119699317E1,-7.729261293E0,-3.434979579E0,-1.586512451E0,8.605671770E0
1.120697817E1,-7.862195402E0,-3.110981852E0,-2.780363030E0,8.900715882E0
1.121696317E1,-7.733425680E0,-2.803073907E0,-3.146602212E0,8.807054080E0
1.122694917E1,-7.172201736E0,-2.408192723E0,-2.604266236E0,8.001379416E0
1.123693417E1,-6.206201364E0,-1.989723287E0,-1.551502540E0,6.699484627E0
1.124692017E1,-5.017292268E0,-1.617871361E0,-5.860813352E-1,5.304170131E0
1.125690517E1,-3.742780227E0,-1.338511863E0,3.334199309E-2,3.975063462E0
1.126689017E1,-2.712100295E0,-9.989073318E-1,4.534922120E-1,2.925569868E0
1.127687617E1,-1.865795352E0,-6.598039073E-1,7.621167326E-1,2.120696915E0
1.128686117E1,-1.287888131E0,-3.637202024E-1,7.072382748E-1,1.513649300E0
1.129684717E1,-9.369429258E-1,-1.547284359E-1,2.575745273E-1,9.839449030E-1
1.130683217E1,-7.404796958E-1,-1.041225386E-1,-3.274908543E-1,8.163344551E-1
1.131681817E1,-6.735983661E-1,2.303569078E-2,-7.421558002E-1,1.002527124E0
1.132680317E1,-6.324450776E-1,1.561721134E-1,-8.484874168E-1,1.069723049E0
1.133678817E1,-4.271040201E-1,2.342622632E-1,-7.281236520E-1,8.760483460E-1
1.134677417E1,-1.659279004E-1,3.827944046E-1,-5.093053472E-1,6.583734207E-1
1.135675917E1,1.982805446E-1,6.030233502E-1,-2.155564356E-1,6.703856444E-1
1.136674517E1,7.027783111E-1,7.443640012E-1,2.227746771E-1,1.047665823E0
1.137673017E1,1.181193987E0,8.502757877E-1,6.720260498E-1,1.603061809E0
1.138671517E1,1.451477730E0,9.287524384E-1,8.167516539E-1,1.906948336E0
1.139670117E1,1.645254457E0,9.666722167E-1,6.983575237E-1,2.031999172E0
1.140668617E1,1.670753580E0,8.662802017E-1,4.225139558E-1,1.928827871E0
1.141667217E1,1.438974044E0,6.738927734E-1,4.731566906E-2,1.589659254E0
1.142665717E1,9.297610831E-1,4.939043659E-1,-3.588633589E-1,1.112285982E0
1.143664317E1,3.981304818E-1,2.737631285E-1,-6.724156205E-1,8.280077885E-1
1.144662817E1,-4.209527493E-2,-1.010048032E-2,-8.481626040E-1,8.492666452E-1
1.145661317E1,-4.531030798E-1,-2.029890150E-1,-9.560411015E-1,1.077275048E0
1.146659917E1,-7.927997044E-1,-2.789864463E-1,-8.812519974E-1,1.217772512E0
1.147658417E1,-1.065081148E0,-3.893953264E-1,-6.132890144E-1,1.289243960E0
1.148657017E1,-1.396993082E0,-5.836293054E-1,-3.321988861E-1,1.550022238E0
1.149655517E1,-1.911651848E0,-8.016503423E-1,-2.144828868E-1,2.084000712E0
1.150654017E1,-2.565943000E0,-1.129201423E0,-2.339646399E-1,2.813165261E0
1.151652617E1,-3.319860182E0,-1.593017771E0,-3.906048229E-1,3.702937939E0
1.152651117E1,-4.249898131E0,-2.084584420E0,-6.159769794E-1,4.773526366E0
1.153649717E1,-5.267990470E0,-2.424928039E0,-8.937501284E-1,5.867775463E0
1.154648217E1,-6.473803282E0,-2.735565464E0,-1.102370012E0,7.113976875E0
1.155646817E1,-7.841953511E0,-3.111659544E0,-1.211778434E0,8.523324877E0
1.156645292E1,-9.041850695E0,-3.625088933E0,-1.229469769E0,9.818753978E0
1.157643792E1,-1.016930789E1,-4.209362601E0,-1.180079070E0,1.106915277E1
1.158642392E1,-1.121777681E1,-4.880543436E0,-1.152003517E0,1.228760892E1
1.159640892E1,-1.199951680E1,-5.703671771E0,-1.136167649E0,1.333458481E1
1.160639492E1,-1.250440282E1,-6.378034660E0,-1.064453157E0,1.407737463E1
1.161637992E1,-1.247585788E1,-7.061751341E0,-8.418297771E-1,1.436050275E1
1.162636492E1,-1.186476421E1,-7.931474383E0,-1.520416403E-1,1.427249215E1
1.163635092E1,-1.117580082E1,-8.587582265E0,9.963130684E-1,1.412932174E1
1.164633592E1,-1.070405214E1,-9.122052274E0,2.252714967E0,1.424300862E1
1.165632192E1,-1.040543834E1,-9.851683631E0,3.454920924E0,1.473992185E1
1.166630692E1,-1.046376900E1,-1.064715288E1,4.578970950E0,1.561471425E1
1.167629292E1,-1.073488334E1,-1.149343210E1,5.487287954E0,1.665674130E1
1.168627792E1,-1.081606725E1,-1.238237494E1,6.131317828E0,1.754718149E1
1.169626292E1,-1.078944955E1,-1.326107696E1,6.571828344E0,1.831549376E1
1.170624892E1,-1.054784026E1,-1.408663248E1,6.840313776E0,1.888067905E1
1.171623392E1,-9.872221391E0,-1.476218703E1,7.344433812E0,1.921779460E1
1.172621992E1,-8.810036076E0,-1.548857026E1,8.209546909E0,1.961910306E1
1.173620492E1,-7.814510774E0,-1.624427844E1,9.434195942E0,2.034569276E1
1.174618992E1,-6.834378267E0,-1.683930046E1,1.070693832E1,2.109287308E1
1.175617592E1,-5.423404199E0,-1.750838799E1,1.219261408E1,2.201401375E1
1.176616092E1,-3.703229368E0,-1.855551907E1,1.363707515E1,2.332361495E1
1.177614692E1,-1.132883999E0,-1.989060212E1,1.365156572E1,2.415128828E1
1.178613192E1,3.661127077E0,-2.065758374E1,1.111333501E1,2.374122643E1
1.179611792E1,9.328748424E0,-1.982205872E1,8.141750783E0,2.337151396E1
1.180610292E1,1.370701136E1,-1.785705396E1,6.484288509E0,2.342653482E1
1.181608792E1,1.812271635E1,-1.517705400E1,5.042836999E0,2.417035418E1
1.182607392E1,2.236951984E1,-1.219936527E1,3.052282239E0,2.566196325E1
1.183605892E1,2.398981605E1,-9.990820466E0,1.960332842E0,2.606090314E1
1.184604492E1,2.331205359E1,-9.219522436E0,2.036459497E0,2.515151295E1
1.185602992E1,2.286777746E1,-8.814782261E0,1.796638870E0,2.457363513E1
1.186601592E1,2.211719612E1,-8.707880541E0,2.607273459E-1,2.377110696E1
1.187600092E1,2.116837077E1,-9.059115769E0,-2.083456054E0,2.311943530E1
1.188598592E1,2.051739090E1,-9.377987242E0,-4.632363338E0,2.302973652E1
1.189597192E1,2.009845661E1,-9.507100781E0,-6.539979730E0,2.317550988E1
1.190595692E1,2.036178713E1,-9.488305491E0,-7.358498704E0,2.363848175E1
1.191594292E1,2.155555702E1,-9.223076373E0,-7.317446573E0,2.456119298E1
1.192592792E1,2.299402586E1,-9.039470294E0,-6.632979110E0,2.558190103E1
1.193591292E1,2.419784361E1,-8.839007860E0,-5.438142691E0,2.632939595E1
1.194589892E1,2.414709679E1,-8.587820832E0,-3.723922080E0,2.589788690E1
1.195588392E1,2.232325433E1,-8.540924408E0,-1.771720376E0,2.396693695E1
1.196586992E1,1.958630367E1,-8.766972502E0,-1.421627694E-1,2.145934082E1
1.197585492E1,1.671006998E1,-9.104206572E0,1.105296178E0,1.906134034E1
1.198584092E1,1.419775413E1,-9.484356281E0,1.738381307E0,1.716249417E1
1.199582592E1,1.228494161E1,-9.953615803E0,2.105248480E0,1.595074698E1
1.200581092E1,1.067949734E1,-1.058946776E1,2.560522047E0,1.525597470E1
1.201579692E1,9.789769219E0,-1.095065144E1,3.342721041E0,1.506420035E1
1.202578192E1,9.992985106E0,-1.130785317E1,4.345588692E0,1.570386690E1
1.203576792E1,1.063320376E1,-1.167524191E1,5.618973098E0,1.676153796E1
1.204575292E1,1.070751954E1,-1.219900392E1,7.327571611E0,1.780898585E1
1.205573792E1,1.057964561E1,-1.285874994E1,9.108127130E0,1.897984012E1
1.206572392E1,1.072428701E1,-1.346151250E1,1.055318579E1,2.018891728E1
1.207570892E1,1.056355173E1,-1.437923884E1,1.162314673E1,2.129433434E1
1.208569492E1,9.860883640E0,-1.543767609E1,1.254083799E1,2.219980826E1
1.209567992E1,8.802673262E0,-1.672375013E1,1.353692521E1,2.324691848E1
1.210566592E1,7.041584879E0,-1.795198467E1,1.419588653E1,2.394537253E1
1.211565092E1,5.024128248E0,-1.885719563E1,1.453214821E1,2.433144105E1
1.212563592E1,3.127851361E0,-1.979338866E1,1.455014711E1,2.476425790E1
1.213562192E1,1.314940859E0,-2.051547067E1,1.420305873E1,2.498680619E1
1.214560692E1,-7.907783219E-1,-2.076127358E1,1.392935875E1,2.501365320E1
1.215559292E1,-2.745715646E0,-2.051077887E1,1.345289838E1,2.468220977E1
1.216557792E1,-4.217040580E0,-1.974616654E1,1.255836210E1,2.377828806E1
1.217556392E1,-5.683680725E0,-1.873410473E1,1.158454458E1,2.274802364E1
1.218554892E1,-7.130378941E0,-1.755011840E1,1.023058788E1,2.152937269E1
1.219553392E1,-8.639347665E0,-1.659807007E1,8.880734761E0,2.071235641E1
1.220551992E1,-1.140005674E1,-1.587681134E1,7.824656278E0,2.105373311E1
1.221550492E1,-1.473359415E1,-1.425341846E1,6.099439977E0,2.138789149E1
1.222549092E1,-1.659807826E1,-1.173094951E1,3.979481949E0,2.071105151E1
1.223547592E1,-1.688575308E1,-9.719411427E0,2.282493667E0,1.961645720E1
1.224546092E1,-1.621298531E1,-8.690723056E0,1.023282620E0,1.842380708E1
1.225544692E1,-1.496816339E1,-8.008794454E0,1.632145000E-1,1.697684726E1
1.226543192E1,-1.378337366E1,-7.284327943E0,-2.627732867E-1,1.559204517E1
1.227541792E1,-1.316667835E1,-6.530040632E0,-2.297821265E-1,1.469883156E1
1.228540292E1,-1.304315241E1,-5.828137357E0,7.927070260E-2,1.428626241E1
1.229538892E1,-1.318171855E1,-5.034050973E0,4.634237078E-1,1.411786580E1
1.230537392E1,-1.314223815E1,-4.244009108E0,8.321330470E-1,1.383555139E1
1.231535892E1,-1.248459362E1,-3.559512994E0,1.167187275E0,1.303447493E1
1.232534492E1,-1.128358021E1,-3.035782565E0,1.120917380E0,1.173846727E1
1.233532992E1,-9.807969847E0,-2.649658172E0,7.138587847E-1,1.018462347E1
1.234531592E1,-8.270518166E0,-2.266877216E0,3.241801608E-1,8.581683740E0
1.235530092E1,-6.842498295E0,-1.802734008E0,1.674747813E-1,7.077971505E0
1.236528592E1,-5.561237106E0,-1.329822316E0,3.364408949E-1,5.727912186E0
1.237527192E1,-4.393941073E0,-9.793273455E-1,5.621057045E-1,4.536712799E0
1.238525692E1,-3.323088723E0,-6.709089392E-1,7.679431906E-1,3.476028511E0
1.239524292E1,-2.388592564E0,-3.715560561E-1,9.066221890E-1,2.581742073E0
1.240522792E1,-1.608976869E0,-1.975756627E-1,8.952815142E-1,1.851856284E0
1.241521392E1,-8.491060522E-1,-7.134772539E-3,8.703374384E-1,1.215943769E0
1.242519892E1,-4.422436309E-1,1.798334563E-1,7.825189836E-1,9.166544937E-1
1.243518392E1,-3.761127913E-1,2.659372151E-1,6.619971979E-1,8.064885146E-1
1.244516992E1,-4.035552362E-1,2.976583600E-1,4.432478902E-1,6.692727546E-1
1.245515492E1,-4.010812792E-1,1.930727220E-1,1.020420992E-1,4.566791637E-1
1.246514092E1,-3.627168202E-1,7.449937463E-2,-3.006378087E-1,4.769661839E-1
1.247512592E1,-2.789487317E-1,9.984705448E-2,-6.485404158E-1,7.130122721E-1
1.248511192E1,4.292060941E-2,1.293649685E-1,-8.324889962E-1,8.435729978E-1
1.249509692E1,4.000615248E-1,1.556487876E-1,-7.512625462E-1,8.652578702E-1
1.250508192E1,6.759197107E-1,1.679665321E-1,-4.746222952E-1,8.428205825E-1
1.251506792E1,7.326140213E-1,2.336190695E-1,-2.988038296E-1,8.249756981E-1
1.252505292E1,5.741398591E-1,1.875757545E-1,-2.184861830E-1,6.423063550E-1
1.253503892E1,3.556794038E-1,8.586402297E-2,-1.226792622E-1,3.859153665E-1
1.254502392E1,1.510493678E-1,5.482115507E-2,-1.303168952E-1,2.068907048E-1
1.255500892E1,-9.815720916E-2,1.386316359E-2,-2.895301455E-1,3.060306033E-1
1.256499492E1,-2.910436973E-1,-1.851930141E-2,-4.470114505E-1,5.337308640E-1
1.257498029E1,-4.186337435E-1,-7.318433583E-2,-4.558080018E-1,6.231942656E-1
1.258496629E1,-4.868622717E-1,-1.612919354E-1,-3.706900835E-1,6.328199571E-1
1.259495129E1,-4.105502602E-1,-2.503479534E-1,-3.164907798E-1,5.756665942E-1
1.260493629E1,-3.728292874E-1,-3.438782609E-1,-2.488919967E-1,5.649789039E-1
1.261492229E1,-4.286722434E-1,-4.342779690E-1,-1.435675630E-1,6.268723090E-1
1.262490729E1,-5.325135309E-1,-5.285438561E-1,-1.111359814E-1,7.584724614E-1
1.263489329E1,-8.409143955E-1,-6.666124052E-1,-1.691295433E-1,1.086330485E0
1.264487829E1,-1.367896753E0,-9.223544151E-1,-1.746782586E-1,1.659033359E0
1.265486429E1,-2.095569584E0,-1.179131967E0,-1.776138532E-1,2.411080828E0
1.266484929E1,-2.973157132E0,-1.386004118E0,-2.238091958E-1,3.287972217E0
1.267483429E1,-3.944622019E0,-1.713849898E0,-3.096805277E-1,4.311986360E0
1.268482029E1,-4.911209743E0,-2.029801857E0,-3.352755448E-1,5.324705288E0
1.269480529E1,-5.903013293E0,-2.288915371E0,-3.048071659E-1,6.338580828E0
1.270479129E1,-6.839580535E0,-2.630467610E0,-2.118773675E-1,7.331037700E0
1.271477629E1,-7.633027818E0,-2.901878988E0,-2.291611522E-2,8.166060279E0
1.272476229E1,-8.363426914E0,-3.185764232E0,2.327358475E-1,8.952662702E0
1.273474729E1,-8.963360596E0,-3.633341693E0,5.385104352E-1,9.686743442E0
1.274473229E1,-9.462748480E0,-4.099793381E0,8.676265231E-1,1.034913959E1
1.275471829E1,-9.869562078E0,-4.645752584E0,1.102869364E0,1.096392236E1
1.276470329E1,-1.028776430E1,-5.275891812E0,1.338540806E0,1.163893552E1
1.277468929E1,-1.077731658E1,-5.918204944E0,1.694073738E0,1.241151031E1
1.278467429E1,-1.132115675E1,-6.575941275E0,2.024652214E0,1.324804931E1
1.279465929E1,-1.160723061E1,-7.362132164E0,2.217495725E0,1.392286176E1
1.280464529E1,-1.158932176E1,-8.180223123E0,2.410635105E0,1.438887038E1
1.281463029E1,-1.149058333E1,-9.050574156E0,2.703388821E0,1.487463307E1
1.282461629E1,-1.121798731E1,-9.920446887E0,3.078503785E0,1.528841690E1
1.283460129E1,-1.082771373E1,-1.077975721E1,3.552985162E0,1.568649909E1
1.284458729E1,-1.048910030E1,-1.168059796E1,4.233467163E0,1.625976132E1
1.285457229E1,-1.013500462E1,-1.268386907E1,4.942955446E0,1.697149557E1
1.286455729E1,-9.560314536E0,-1.373120597E1,5.806597384E0,1.771051113E1
1.287454329E1,-8.941296712E0,-1.465535138E1,7.000650276E0,1.854009750E1
1.288452829E1,-8.390286684E0,-1.520156786E1,8.501797764E0,1.933300653E1
1.289451429E1,-7.953894362E0,-1.541758857E1,1.024735536E1,2.014881547E1
1.290449929E1,-7.375512933E0,-1.589552594E1,1.182730343E1,2.114121668E1
1.291448529E1,-6.587015902E0,-1.677640313E1,1.307333690E1,2.226541305E1
1.292447029E1,-5.682363932E0,-1.766798775E1,1.357449240E1,2.299377948E1
1.293445529E1,-4.352019460E0,-1.875172590E1,1.340678022E1,2.345866692E1
1.294444129E1,-2.647155563E0,-1.990088153E1,1.331897375E1,2.409247974E1
1.295442629E1,-3.133639812E-1,-2.092501667E1,1.309174628E1,2.468498208E1
1.296441229E1,4.612357382E0,-2.123079798E1,1.142395080E1,2.454643102E1
1.297439729E1,1.359614698E1,-1.957957937E1,6.176853020E0,2.462455389E1
1.298438229E1,2.408553029E1,-1.565917915E1,-9.517254909E-1,2.874418971E1
1.299436829E1,2.764584610E1,-1.192089981E1,-2.322833315E0,3.019596354E1
1.300435329E1,2.461334909E1,-9.738210225E0,3.038151273E0,2.664357437E1
1.301433929E1,2.121260145E1,-8.730056106E0,8.539791217E0,2.447685384E1
1.302432429E1,2.091371751E1,-7.561123438E0,9.335717720E0,2.411866068E1
1.303431029E1,2.254758393E1,-7.676481986E0,5.500682756E0,2.444543777E1
1.304429529E1,2.380743671E1,-8.523381591E0,6.695705116E-2,2.528728059E1
1.305428029E1,2.384651950E1,-8.815063512E0,-4.428138514E0,2.580639936E1
1.306426629E1,2.228609879E1,-8.690200900E0,-6.931406379E0,2.490450130E1
1.307425129E1,1.989273753E1,-8.294856616E0,-7.191444923E0,2.272097121E1
1.308423729E1,1.824446240E1,-7.939126634E0,-5.989688909E0,2.077899211E1
1.309422229E1,1.849609849E1,-7.367333847E0,-4.373143696E0,2.038400484E1
1.310420729E1,1.979848275E1,-6.985764434E0,-2.808384933E0,2.118178108E1
1.311419329E1,2.060018045E1,-6.516428899E0,-1.529952481E0,2.166037938E1
1.312417829E1,2.007590507E1,-6.286590055E0,-1.985645731E-1,2.103812270E1
1.313416429E1,1.808822129E1,-6.506129614E0,1.010736834E0,1.924928728E1
1.314414929E1,1.579001060E1,-6.864948095E0,1.737527613E0,1.730522896E1
1.315413529E1,1.418176434E1,-7.225295039E0,1.904283772E0,1.602977307E1
1.316412029E1,1.309925059E1,-7.728563721E0,1.849194229E0,1.532124612E1
1.317410529E1,1.302472198E1,-8.229567776E0,1.767316838E0,1.550782310E1
1.318409129E1,1.370833049E1,-8.804657223E0,1.903229519E0,1.640312764E1
1.319407629E1,1.411980490E1,-9.498125889E0,2.658220249E0,1.722351360E1
1.320406229E1,1.416293396E1,-1.035764203E1,4.273352190E0,1.805909704E1
1.321404729E1,1.388402178E1,-1.126414055E1,6.163914886E0,1.891139259E1
1.322403229E1,1.337869020E1,-1.213909802E1,8.074790808E0,1.978760468E1
1.323401829E1,1.324114147E1,-1.295179551E1,9.644100459E0,2.088266046E1
1.324400329E1,1.321752573E1,-1.434267971E1,1.066095816E1,2.222771866E1
1.325398929E1,1.303392784E1,-1.615017335E1,1.133911238E1,2.364924616E1
1.326397429E1,1.223491634E1,-1.791196633E1,1.183762143E1,2.471155594E1
1.327396029E1,1.017524282E1,-2.005413237E1,1.296659130E1,2.595835668E1
1.328394529E1,7.245236968E0,-2.239346770E1,1.402394331E1,2.739766122E1
1.329393029E1,3.684174170E0,-2.424883600E1,1.442342625E1,2.845372404E1
1.330391629E1,2.991435528E-2,-2.547871128E1,1.430664098E1,2.922063654E1
1.331390129E1,-4.253717240E0,-2.593280838E1,1.336646835E1,2.948333660E1
1.332388729E1,-8.812795962E0,-2.538649133E1,1.187241938E1,2.937845566E1
1.333387229E1,-1.425670927E1,-2.373802091E1,9.797502161E0,2.937240958E1
1.334385729E1,-2.115477249E1,-2.098077338E1,7.548015150E0,3.073580621E1
1.335384329E1,-2.711322557E1,-1.720391295E1,5.390373863E0,3.256006376E1
1.336382829E1,-2.903134853E1,-1.340063480E1,3.360312682E0,3.215101728E1
1.337381429E1,-2.567653662E1,-1.071714171E1,1.415843921E0,2.785940188E1
1.338379929E1,-1.933873957E1,-9.152491125E0,1.296786717E-1,2.139560138E1
1.339378529E1,-1.346498809E1,-7.750667950E0,-3.434864974E-1,1.554016540E1
1.340377029E1,-9.464661105E0,-6.305972990E0,1.399177310E-1,1.137385960E1
1.341375529E1,-7.725507381E0,-5.120312607E0,9.782999897E-1,9.319771261E0
1.342374129E1,-7.682161387E0,-4.453432399E0,1.602343203E0,9.023090792E0
1.343372629E1,-8.635521247E0,-4.018259221E0,1.500028624E0,9.642028845E0
1.344371229E1,-9.236099292E0,-3.594959984E0,8.206716272E-1,9.944987146E0
1.345369729E1,-9.223358209E0,-3.205323753E0,1.240670988E-1,9.765235771E0
1.346368329E1,-8.704346484E0,-2.784694355E0,-1.352016592E-1,9.139937081E0
1.347366829E1,-7.914853672E0,-2.220744438E0,1.413666710E-1,8.221715092E0
1.348365329E1,-6.963120507E0,-1.667326527E0,6.240718648E-1,7.187105859E0
1.349363929E1,-5.840304828E0,-1.182022830E0,9.095460892E-1,6.027736934E0
1.350362429E1,-4.853840371E0,-8.197264248E-1,8.268196821E-1,4.991527677E0
1.351361029E1,-4.115054029E0,-5.331923926E-1,4.739872876E-1,4.176437206E0
1.352359529E1,-3.399844830E0,-4.236898309E-1,-3.606124073E-2,3.426333077E0
1.353358029E1,-2.892719325E0,-2.903873473E-1,-4.873493448E-1,2.947822805E0
1.354356629E1,-2.515049420E0,-4.812083066E-2,-6.920416537E-1,2.608967391E0
1.355355129E1,-1.947542058E0,1.957484078E-1,-7.447750604E-1,2.094260585E0
1.356353729E1,-1.167069161E0,3.548242486E-1,-7.533090717E-1,1.433675427E0
1.357352196E1,-6.124937931E-1,4.642081118E-1,-6.575568223E-1,1.011443914E0
1.358350796E1,-2.271479559E-1,4.624574554E-1,-4.037803540E-1,6.546003866E-1
1.359349296E1,-5.917002171E-2,5.013034326E-1,-1.190311843E-1,5.186276563E-1
1.360347796E1,-1.605034384E-1,5.363715237E-1,1.378159493E-2,5.600407999E-1
1.361346396E1,-2.663840885E-1,5.636704195E-1,-2.406684726E-2,6.239102800E-1
1.362344896E1,-3.550566754E-1,6.367331332E-1,-2.317029369E-1,7.649709645E-1
1.363343496E1,-3.609974465E-1,6.175454950E-1,-4.238064829E-1,8.314406351E-1
1.364341996E1,-3.272679292E-1,5.494260174E-1,-4.366364434E-1,7.743543309E-1
1.365340496E1,-3.393174326E-1,4.424009210E-1,-4.420734769E-1,7.115362633E-1
1.366339096E1,-4.797652137E-1,3.495202392E-1,-5.070418900E-1,7.806603206E-1
1.367337596E1,-7.139251506E-1,2.829379946E-1,-5.807708940E-1,9.628280536E-1
1.368336196E1,-9.891921830E-1,1.499606162E-1,-5.619782352E-1,1.147522940E0
1.369334696E1,-1.304650052E0,-2.324560583E-2,-5.453584018E-1,1.414237570E0
1.370333296E1,-1.730143018E0,-1.601236618E-1,-5.225817427E-1,1.814421706E0
1.371331796E1,-2.184345667E0,-2.903464168E-1,-4.224148455E-1,2.243680311E0
1.372330296E1,-2.523100451E0,-4.227952069E-1,-3.129950219E-1,2.577354760E0
1.373328896E1,-2.954027381E0,-5.454551733E-1,-2.825839457E-1,3.017226011E0
1.374327396E1,-3.345812757E0,-7.487201768E-1,-2.292339501E-1,3.436217850E0
1.375325996E1,-3.682377320E0,-9.632270372E-1,-1.573026726E-1,3.809521385E0
1.376324496E1,-4.227895351E0,-1.140922751E0,7.570097744E-3,4.379139314E0
1.377322996E1,-4.949654016E0,-1.410072427E0,9.371040165E-2,5.147442158E0
1.378321596E1,-5.639889173E0,-1.685831795E0,6.840628356E-2,5.886854690E0
1.379320096E1,-6.412002890E0,-1.800216781E0,-1.298666596E-2,6.659934698E0
1.380318696E1,-7.087641642E0,-1.994575306E0,-7.116412282E-2,7.363291318E0
1.381317196E1,-7.342310103E0,-2.274102035E0,-4.126672447E-2,7.686531120E0
1.382315796E1,-7.472562094E0,-2.531725679E0,1.233625093E-1,7.890756458E0
1.383314296E1,-7.567067133E0,-2.845399563E0,4.572361842E-1,8.097275381E0
1.384312796E1,-7.608078918E0,-3.308289712E0,7.064585486E-1,8.326267431E0
1.385311396E1,-7.638014324E0,-3.794064109E0,7.731881431E-1,8.563410838E0
1.386309896E1,-7.792494253E0,-4.321956586E0,7.513423607E-1,8.942415264E0
1.387308496E1,-8.114240218E0,-4.961965329E0,7.727595422E-1,9.542491894E0
1.388306996E1,-8.683171962E0,-5.626120149E0,8.591255486E-1,1.038213851E1
1.389305496E1,-9.389762950E0,-6.232985705E0,1.037033224E0,1.131782651E1
1.390304096E1,-1.010142640E1,-6.963423393E0,1.388921001E0,1.234735527E1
1.391302596E1,-1.080472131E1,-7.824284980E0,1.775408069E0,1.345784202E1
1.392301196E1,-1.133547191E1,-8.714172730E0,2.218421924E0,1.446897113E1
1.393299696E1,-1.150814720E1,-9.726441534E0,2.804899993E0,1.532672766E1
1.394298296E1,-1.148497118E1,-1.087341908E1,3.487420918E0,1.619561391E1
1.395296796E1,-1.142861103E1,-1.188959733E1,4.192572906E0,1.701626699E1
1.396295296E1,-1.137352325E1,-1.284852783E1,4.935261680E0,1.785492947E1
1.397293896E1,-1.089759614E1,-1.381089416E1,5.982597406E0,1.858197705E1
1.398292396E1,-1.017860029E1,-1.464086432E1,7.028624525E0,1.916664745E1
1.399290996E1,-9.700230221E0,-1.533446104E1,8.241718290E0,1.992902612E1
1.400289496E1,-9.459900302E0,-1.576666033E1,9.426396341E0,2.066238707E1
1.401288096E1,-9.061094466E0,-1.628362787E1,1.028906121E1,2.128672708E1
1.402286596E1,-7.617780619E0,-1.735256554E1,1.071506478E1,2.177050128E1
1.403285096E1,-4.801575619E0,-1.841068938E1,9.959726143E0,2.147567826E1
1.404283696E1,-1.539460784E-1,-1.883335537E1,8.123983433E0,2.051141342E1
1.405282196E1,6.282658972E0,-1.830075354E1,6.356553744E0,2.036652055E1
1.406280796E1,1.324334704E1,-1.642334124E1,5.190780326E0,2.172686306E1
1.407279296E1,1.812187084E1,-1.324188406E1,5.269688501E0,2.305470263E1
1.408277796E1,1.839654965E1,-1.063706176E1,7.695955553E0,2.260105868E1
1.409276396E1,1.610384937E1,-9.286800499E0,1.021650896E1,2.121215886E1
1.410274896E1,1.534010478E1,-8.583316721E0,9.555203485E0,2.000735000E1
1.411273496E1,1.617662616E1,-8.875873970E0,6.339371116E0,1.951030494E1
1.412271996E1,1.702689551E1,-9.435722650E0,2.973243963E0,1.969233893E1
1.413270496E1,1.809650095E1,-9.571264032E0,3.289421332E-1,2.047438997E1
1.414269096E1,1.963646810E1,-9.283244807E0,-1.391784090E0,2.176480132E1
1.415267596E1,2.203509653E1,-8.672866244E0,-2.372151656E0,2.379897459E1
1.416266196E1,2.527130586E1,-7.673420969E0,-3.221662043E0,2.660637885E1
1.417264696E1,2.773578096E1,-6.560904576E0,-3.279611751E0,2.868928140E1
1.418263296E1,2.743658361E1,-6.128107706E0,-1.629771322E0,2.815982917E1
1.419261796E1,2.531029977E1,-5.987128998E0,4.325413460E-1,2.601238321E1
1.420260296E1,2.291381142E1,-6.108743482E0,1.125500720E0,2.374081407E1
1.421258896E1,2.079069210E1,-6.576981495E0,4.262348315E-1,2.181034708E1
1.422257396E1,1.895122588E1,-7.047832044E0,-6.445625550E-1,2.022959119E1
1.423255996E1,1.719739798E1,-7.419313256E0,-1.109086124E0,1.876237668E1
1.424254496E1,1.545023240E1,-7.682092389E0,-1.047864607E0,1.728647579E1
1.425253096E1,1.414321715E1,-7.849385322E0,-5.163114810E-1,1.618363429E1
1.426251596E1,1.316839509E1,-8.021368892E0,4.095120871E-1,1.542454823E1
1.427250096E1,1.256663474E1,-8.392915007E0,1.431098430E0,1.517924154E1
1.428248696E1,1.265212337E1,-8.740017423E0,2.349949778E0,1.555591187E1
1.429247196E1,1.268508412E1,-9.246191586E0,3.501969375E0,1.608313426E1
1.430245796E1,1.209551755E1,-9.806679366E0,5.252442724E0,1.643352244E1
1.431244296E1,1.175633227E1,-1.025268685E1,6.897760330E0,1.705602631E1
1.432242796E1,1.178080404E1,-1.101017376E1,8.251639845E0,1.811355377E1
1.433241396E1,1.142580788E1,-1.190967433E1,9.367107328E0,1.897714752E1
1.434239896E1,1.050427734E1,-1.310305362E1,1.044986081E1,1.977952091E1
1.435238496E1,9.501416702E0,-1.421604539E1,1.125972707E1,2.047325865E1
1.436236996E1,8.720721611E0,-1.528788446E1,1.188773908E1,2.123884972E1
1.437235596E1,7.605609639E0,-1.658659082E1,1.294264228E1,2.237123783E1
1.438234096E1,6.147480701E0,-1.780505467E1,1.448572132E1,2.376231497E1
1.439232596E1,4.455733863E0,-1.900790762E1,1.549453793E1,2.492458268E1
1.440231196E1,3.017595386E0,-2.014222185E1,1.554687752E1,2.562265372E1
1.441229696E1,1.585115552E0,-2.127220329E1,1.484287042E1,2.598711270E1
1.442228296E1,6.231348485E-2,-2.222592626E1,1.364290365E1,2.607919671E1
1.443226796E1,-1.718728815E0,-2.292417035E1,1.235445331E1,2.609797179E1
1.444225396E1,-4.455597623E0,-2.373683977E1,1.151696246E1,2.675687457E1
1.445223896E1,-7.744810209E0,-2.335362027E1,9.782021073E0,2.647756789E1
1.446222396E1,-1.062956446E1,-2.149656329E1,7.593527538E0,2.515455295E1
1.447220996E1,-1.375901065E1,-1.924092969E1,5.890345885E0,2.437662659E1
1.448219496E1,-1.714024730E1,-1.684728893E1,4.375926971E0,2.442883457E1
1.449218096E1,-1.928121116E1,-1.428399472E1,3.232104878E0,2.421247841E1
1.450216596E1,-1.939453955E1,-1.188171411E1,2.363477019E0,2.286721055E1
1.451215096E1,-1.803617405E1,-1.004462070E1,1.810476306E0,2.072379801E1
1.452213696E1,-1.607437707E1,-8.750884473E0,1.696600612E0,1.838047961E1
1.453212196E1,-1.398895240E1,-7.544094007E0,1.487887173E0,1.596301826E1
1.454210796E1,-1.213829111E1,-6.608574586E0,9.761318421E-1,1.385511467E1
1.455209296E1,-1.111270001E1,-6.065120915E0,1.725659519E-2,1.266009838E1
1.456207896E1,-1.110267437E1,-5.787723742E0,-1.326924728E0,1.259078447E1
1.457206392E1,-1.166761831E1,-5.441335856E0,-2.817338190E0,1.317872708E1
1.458204892E1,-1.212980095E1,-4.922955045E0,-3.929853414E0,1.366789323E1
1.459203492E1,-1.188966750E1,-4.308007468E0,-4.391843384E0,1.338698659E1
1.460201992E1,-1.090445844E1,-3.736229884E0,-3.952394430E0,1.218556725E1
1.461200592E1,-9.469929446E0,-3.271810688E0,-2.713372357E0,1.038011071E1
1.462199092E1,-7.768183284E0,-2.531717493E0,-1.350769089E0,8.281234336E0
1.463197592E1,-6.022326313E0,-1.828316746E0,-8.462295145E-2,6.294308332E0
1.464196192E1,-4.482731627E0,-1.350169457E0,8.589162183E-1,4.759787545E0
1.465194692E1,-3.316744201E0,-9.858136618E-1,1.183228234E0,3.656863372E0
1.466193292E1,-2.429689719E0,-6.828887147E-1,1.066498221E0,2.739917441E0
1.467191792E1,-1.856381627E0,-3.646645278E-1,6.614975533E-1,2.004173639E0
1.468190392E1,-1.433577941E0,-4.454525828E-2,4.484843642E-2,1.434970863E0
1.469188892E1,-1.208534398E0,1.625514257E-1,-4.356748688E-1,1.294909630E0
1.470187392E1,-1.005403881E0,3.631003976E-1,-4.323349392E-1,1.153079512E0
1.471185992E1,-7.902576274E-1,5.717202812E-1,-1.565635845E-1,9.878680851E-1
1.472184492E1,-5.165459543E-1,6.759907544E-1,5.745386392E-2,8.526923064E-1
1.473183092E1,-2.423451617E-1,7.796461004E-1,1.624216175E-1,8.324421909E-1
1.474181592E1,-8.796697408E-2,8.898678696E-1,1.448489803E-1,9.058610495E-1
1.475180092E1,-1.536347142E-1,8.757222855E-1,1.092639953E-2,8.891639517E-1
1.476178692E1,-2.314991614E-1,8.711094171E-1,7.137111425E-3,9.013736277E-1
1.477177192E1,-2.582761931E-1,8.679261929E-1,3.932661831E-2,9.063934307E-1
1.478175792E1,-2.416800410E-1,8.023239416E-1,1.596202165E-2,8.380857567E-1
1.479174292E1,-1.038249153E-1,7.930894339E-1,-3.621560723E-2,8.006759853E-1
1.480172892E1,1.529681316E-1,7.946722752E-1,-5.705128312E-3,8.092810530E-1
1.481171392E1,2.389403281E-1,8.210438025E-1,2.637433398E-1,8.948552706E-1
1.482169892E1,5.790146828E-2,8.121466792E-1,4.101760384E-1,9.116902934E-1
1.483168492E1,-1.289159024E-1,7.507637787E-1,3.140773416E-1,8.239600341E-1
1.484166992E1,-2.403407362E-1,5.905290198E-1,6.372909576E-2,6.407414380E-1
1.485165592E1,-3.612678802E-1,3.630582976E-1,-2.212481153E-1,5.579216229E-1
1.486164092E1,-6.279313195E-1,1.508417916E-1,-4.281763995E-1,7.748458022E-1
1.487162592E1,-1.092148494E0,-1.343865573E-2,-5.117260945E-1,1.206164386E0
1.488161192E1,-1.599926549E0,-2.467133242E-1,-4.999626660E-1,1.694283062E0
1.489159692E1,-2.131106622E0,-5.528723663E-1,-4.895429277E-1,2.255423589E0
1.490158292E1,-2.854699267E0,-9.223345345E-1,-4.451751325E-1,3.032851760E0
1.491156792E1,-3.730266016E0,-1.357178514E0,-3.564503592E-1,3.985457932E0
1.492155392E1,-4.888065002E0,-1.769778516E0,-3.688634133E-1,5.211655752E0
1.493153892E1,-6.378912327E0,-2.185061220E0,-4.692405179E-1,6.759082902E0
1.494152392E1,-7.978747367E0,-2.608147033E0,-5.977155402E-1,8.415468161E0
1.495150992E1,-9.545251524E0,-3.137984878E0,-8.212291592E-1,1.008132893E1
1.496149492E1,-1.091432152E1,-3.748896123E0,-1.129723287E0,1.159538318E1
1.497148092E1,-1.199529628E1,-4.252339051E0,-1.251447991E0,1.278810550E1
1.498146592E1,-1.281218973E1,-4.750876166E0,-1.036468383E0,1.370391538E1
1.499145192E1,-1.323471889E1,-5.406384709E0,-7.186929703E-1,1.431444373E1
1.500143692E1,-1.331533211E1,-6.050751967E0,-2.708456603E-1,1.462815866E1
1.501142192E1,-1.302341688E1,-6.755284150E0,4.664566585E-1,1.467858417E1
1.502140792E1,-1.260033341E1,-7.640958397E0,1.293838843E0,1.479279102E1
1.503139292E1,-1.207533063E1,-8.477170461E0,2.006118002E0,1.488961176E1
1.504137892E1,-1.142026238E1,-9.224562151E0,2.665271991E0,1.492040933E1
1.505136392E1,-1.075368447E1,-1.000516018E1,3.295924605E0,1.505350720E1
1.506134892E1,-1.017823893E1,-1.085471968E1,3.901724213E0,1.538326815E1
1.507133492E1,-9.824254342E0,-1.170092405E1,4.551216556E0,1.594180571E1
1.508131992E1,-9.567679689E0,-1.256038757E1,5.246596677E0,1.663822729E1
1.509130592E1,-9.373481963E0,-1.345379301E1,5.701477311E0,1.736011388E1
1.510129092E1,-9.426503345E0,-1.454392684E1,6.217782944E0,1.841319087E1
1.511127692E1,-9.500399287E0,-1.541644719E1,6.944142784E0,1.939447214E1
1.512126192E1,-9.061578031E0,-1.596736483E1,7.675003810E0,1.989911103E1
1.513124692E1,-8.161122023E0,-1.681903401E1,8.634291578E0,2.059210550E1
1.514123292E1,-7.773246388E0,-1.750256768E1,9.405451030E0,2.133601987E1
1.515121792E1,-6.323314662E0,-1.817873385E1,9.762758591E0,2.158152284E1
1.516120392E1,-3.410692585E0,-1.885068885E1,9.276876605E0,2.128477704E1
1.517118892E1,-3.591418326E-1,-1.896322670E1,8.605913871E0,2.082773880E1
1.518117392E1,2.898371243E0,-1.831026579E1,8.204204893E0,2.027252740E1
1.519115992E1,6.533141411E0,-1.704860973E1,7.565174974E0,1.976281617E1
1.520114492E1,8.759543615E0,-1.577081653E1,7.614667561E0,1.958140496E1
1.521113092E1,9.231585242E0,-1.471339669E1,8.047883676E0,1.914352737E1
1.522111592E1,9.575717856E0,-1.388187117E1,7.832522537E0,1.859433056E1
1.523110192E1,1.051269382E1,-1.329082994E1,7.177933177E0,1.840341317E1
1.524108692E1,1.203152563E1,-1.273372828E1,5.919165641E0,1.849167290E1
1.525107192E1,1.443665382E1,-1.200574642E1,3.880862517E0,1.917331517E1
1.526105792E1,1.757738514E1,-1.136207791E1,1.805746201E0,2.100766532E1
1.527104292E1,2.058045429E1,-1.049635787E1,5.090933856E-1,2.310817611E1
1.528102892E1,2.296271286E1,-9.276083722E0,5.382502341E-1,2.477138721E1
1.529101392E1,2.402092557E1,-8.317608717E0,1.370014614E0,2.545710942E1
1.530099892E1,2.435831927E1,-7.719464868E0,1.847751721E0,2.561897816E1
1.531098492E1,2.478407375E1,-7.210263602E0,1.336550707E0,2.584617149E1
1.532096992E1,2.519517044E1,-6.864543468E0,2.850198957E-1,2.611512601E1
1.533095592E1,2.500032016E1,-6.625566595E0,-6.267668465E-1,2.587096785E1
1.534094092E1,2.397004310E1,-6.461394321E0,-1.150437048E0,2.485228537E1
1.535092692E1,2.234945688E1,-6.413112107E0,-9.905218399E-1,2.327245933E1
1.536091192E1,2.017420378E1,-6.454348426E0,-3.697074589E-1,2.118475384E1
1.537089692E1,1.799721990E1,-6.562100331E0,3.569105351E-1,1.915955297E1
1.538088292E1,1.591820963E1,-6.751848911E0,1.045336855E0,1.732251687E1
1.539086792E1,1.399406872E1,-7.010433837E0,1.599767505E0,1.573338482E1
1.540085392E1,1.249198450E1,-7.187139618E0,1.959708067E0,1.454459035E1
1.541083892E1,1.132854997E1,-7.445107078E0,2.398056283E0,1.376649330E1
1.542082392E1,1.046190140E1,-7.802550879E0,2.936347740E0,1.337734350E1
1.543080992E1,9.810602263E0,-8.183032710E0,3.458490649E0,1.323522190E1
1.544079492E1,9.424611186E0,-8.538115405E0,3.918267156E0,1.330697292E1
1.545078092E1,9.272373664E0,-8.795974692E0,4.583549904E0,1.357773965E1
1.546076592E1,9.153892702E0,-9.304559662E0,5.657866437E0,1.422603370E1
1.547075192E1,9.016369114E0,-9.858171701E0,6.755429161E0,1.497044704E1
1.548073692E1,8.449573942E0,-1.057393288E1,7.779215811E0,1.561151994E1
1.549072192E1,7.530060689E0,-1.152335113E1,8.608118856E0,1.623542871E1
1.550070792E1,6.681654257E0,-1.234551292E1,8.925267155E0,1.663480047E1
1.551069292E1,5.919289602E0,-1.318231848E1,8.952949628E0,1.699902400E1
1.552067892E1,4.953570482E0,-1.408328085E1,9.072860819E0,1.746978716E1
1.553066392E1,3.900678146E0,-1.476819914E1,9.246058270E0,1.785509981E1
1.554064992E1,2.943160331E0,-1.514180581E1,9.122497247E0,1.792083793E1
1.555063492E1,1.901920912E0,-1.552867280E1,8.978087393E0,1.803782236E1
1.556061992E1,1.033218209E0,-1.604952757E1,8.970048641E0,1.841512008E1
1.557060642E1,4.013411880E-1,-1.650808493E1,8.881904204E0,1.875009774E1
1.558059142E1,-6.457752675E-2,-1.716294619E1,8.844980206E0,1.930814768E1
1.559057742E1,-7.942898673E-1,-1.795870312E1,8.826048092E0,2.002610894E1
1.560056242E1,-2.157812026E0,-1.856597740E1,8.553676600E0,2.055521960E1
1.561054742E1,-3.639656686E0,-1.863921611E1,7.895227493E0,2.056701474E1
1.562053342E1,-4.941487210E0,-1.765559750E1,6.968306987E0,1.961366159E1
1.563051842E1,-6.307752882E0,-1.675968010E1,6.145153509E0,1.893244662E1
1.564050442E1,-7.610419559E0,-1.614087628E1,4.977935829E0,1.852636549E1
1.565048942E1,-9.902905240E0,-1.561254760E1,3.486196803E0,1.881416336E1
1.566047542E1,-1.382661031E1,-1.466552437E1,1.829649034E0,2.023858624E1
1.567046042E1,-1.793282452E1,-1.286673255E1,2.324268222E-1,2.207244943E1
1.568044542E1,-2.056743839E1,-1.073288476E1,-1.097509514E0,2.322539266E1
1.569043142E1,-2.085871860E1,-8.978396126E0,-1.885169224E0,2.278709288E1
1.570041642E1,-1.857944354E1,-7.658349770E0,-2.346233580E0,2.023242090E1
1.571040242E1,-1.491633718E1,-6.602565987E0,-2.583379397E0,1.651559389E1
1.572038742E1,-1.164099711E1,-5.777109291E0,-2.299840894E0,1.319761621E1
1.573037242E1,-9.579575264E0,-4.862424669E0,-1.547260970E0,1.085382202E1
1.574035842E1,-8.593342942E0,-3.978644920E0,-4.848603313E-1,9.482101447E0
1.575034342E1,-8.306993097E0,-3.313269201E0,2.848519345E-1,8.947906333E0
1.576032942E1,-8.514795540E0,-2.858340620E0,3.995855615E-1,8.990635284E0
1.577031442E1,-8.508767061E0,-2.467351928E0,3.381795645E-2,8.859350207E0
1.578030042E1,-7.951270131E0,-2.041729007E0,-4.224075365E-1,8.220084073E0
1.579028542E1,-6.963122846E0,-1.608828058E0,-4.924712133E-1,7.163514178E0
1.580027042E1,-5.679987624E0,-1.130229948E0,-2.077550805E-1,5.795070432E0
1.581025642E1,-4.341595921E0,-6.417003429E-1,2.053869581E-1,4.393565554E0
1.582024142E1,-3.179488415E0,-2.515787923E-1,5.648164737E-1,3.239051732E0
1.583022742E1,-2.091555763E0,3.243859828E-2,8.371759781E-1,2.253113710E0
1.584021242E1,-1.123605930E0,2.331255645E-1,8.533318350E-1,1.430039522E0
1.585019742E1,-3.979269987E-1,4.710926235E-1,6.685602589E-1,9.095311847E-1
1.586018342E1,-3.472193599E-2,7.266837752E-1,3.527731915E-1,8.085319082E-1
1.587016842E1,3.301747262E-2,8.790206999E-1,4.737794191E-2,8.809155542E-1
1.588015442E1,-2.990119904E-2,9.356334418E-1,-2.873215060E-1,9.792127792E-1
1.589013942E1,-8.341345489E-3,9.039321774E-1,-5.140155718E-1,1.039891806E0
1.590012542E1,7.563578099E-2,8.261735648E-1,-6.082016444E-1,1.028684972E0
1.591011042E1,5.342250109E-2,7.730954647E-1,-6.951624589E-1,1.041048224E0
1.592009542E1,4.949668050E-3,7.077376270E-1,-8.600280663E-1,1.113806681E0
1.593008142E1,5.439343125E-2,6.106668305E-1,-8.681092107E-1,1.062772894E0
1.594006642E1,1.102577296E-1,5.426678056E-1,-6.903483000E-1,8.850005025E-1
1.595005242E1,3.073439804E-1,4.771386445E-1,-6.050545268E-1,8.295857934E-1
1.596003742E1,4.277150542E-1,3.938339478E-1,-4.969590975E-1,7.648618768E-1
1.597002342E1,2.250879818E-1,3.003363848E-1,-2.213625745E-1,4.357383768E-1
1.598000842E1,-2.729781398E-1,1.891053861E-1,1.676294401E-2,3.325039972E-1
1.598999342E1,-8.330066210E-1,8.551552892E-3,1.106971478E-1,8.403731423E-1
1.599997942E1,-1.368611867E0,-2.046390992E-1,6.040875435E-2,1.385144332E0
1.600996442E1,-1.876434068E0,-4.396158922E-1,-5.434782296E-2,1.928009500E0
1.601995042E1,-2.459152962E0,-7.602520555E-1,-1.717145973E-1,2.579709747E0
1.602993542E1,-3.276548979E0,-1.127853640E0,-1.925070038E-1,3.470574303E0
1.603992042E1,-4.361932537E0,-1.627993476E0,-1.042207718E-1,4.657003349E0
1.604990642E1,-5.547563392E0,-2.067128727E0,-8.392508626E-2,5.920770573E0
1.605989142E1,-6.743860445E0,-2.516400712E0,-2.332387081E-1,7.201828000E0
1.606987742E1,-7.818059449E0,-3.001029055E0,-5.322302333E-1,8.391155937E0
1.607986242E1,-8.615857646E0,-3.333007062E0,-8.768309176E-1,9.279588973E0
1.608984842E1,-9.192077944E0,-3.714107528E0,-1.134851295E0,9.978816519E0
1.609983342E1,-9.620891106E0,-4.203308394E0,-1.215120264E0,1.056909951E1
1.610981842E1,-9.867398608E0,-4.660900381E0,-1.086393080E0,1.096675875E1
1.611980442E1,-1.011762552E1,-5.076985323E0,-7.121109058E-1,1.134236431E1
1.612978942E1,-1.033100796E1,-5.574847085E0,-2.728459927E-1,1.174236307E1
1.613977542E1,-1.053911388E1,-6.144384016E0,8.549930289E-2,1.219974124E1
1.614976042E1,-1.086062303E1,-6.873859252E0,5.230935203E-1,1.286377474E1
1.615974542E1,-1.123955535E1,-7.673101126E0,1.021437238E0,1.364724952E1
1.616973142E1,-1.150991423E1,-8.347411975E0,1.414017836E0,1.428834695E1
1.617971642E1,-1.144271452E1,-9.123894147E0,1.885149197E0,1.475584452E1
1.618970242E1,-1.100608538E1,-9.956414280E0,2.462283561E0,1.504416635E1
1.619968742E1,-1.058769605E1,-1.070846211E1,3.103012097E0,1.537527731E1
1.620967342E1,-1.025433226E1,-1.148475015E1,3.671231650E0,1.582810026E1
1.621965842E1,-1.000544669E1,-1.249284054E1,4.161033025E0,1.653766078E1
1.622964342E1,-9.855976657E0,-1.344437665E1,4.935776235E0,1.738543719E1
1.623962942E1,-9.726710506E0,-1.424416816E1,5.770578536E0,1.818804004E1
1.624961442E1,-9.477742496E0,-1.523198040E1,6.657369601E0,1.913534426E1
1.625960042E1,-9.239382504E0,-1.617609055E1,7.601661015E0,2.012007318E1
1.626958542E1,-8.868986535E0,-1.696242061E1,8.504354752E0,2.094532608E1
1.627957042E1,-8.386401209E0,-1.812794844E1,9.707722843E0,2.220797430E1
1.628955642E1,-7.552104692E0,-1.961211795E1,1.090675756E1,2.367755934E1
1.629954142E1,-6.306568236E0,-2.127147589E1,1.187600489E1,2.516521373E1
1.630952742E1,-4.613464260E0,-2.307172367E1,1.276800466E1,2.676958028E1
1.631951242E1,-1.127134432E0,-2.483462878E1,1.382118175E1,2.844387955E1
1.632949842E1,7.291598371E0,-2.520740749E1,1.213036345E1,2.890893489E1
1.633948342E1,2.333732291E1,-2.177140815E1,3.116976417E0,3.206774697E1
1.634946842E1,3.634655679E1,-1.521209519E1,-4.580266108E0,3.966684848E1
1.635945442E1,3.461053483E1,-9.756554110E0,-1.938029807E0,3.601160131E1
1.636943942E1,2.577843488E1,-8.883430912E0,6.827328864E0,2.810792537E1
1.637942542E1,1.945901914E1,-7.725732499E0,1.140637524E1,2.384210067E1
1.638941042E1,1.762259347E1,-7.351196702E0,9.330366349E0,2.125209707E1
1.639939542E1,1.985151933E1,-9.113593692E0,2.063791575E0,2.194082144E1
1.640938142E1,2.273241208E1,-9.865525160E0,-5.710894836E0,2.543040435E1
1.641936642E1,2.363981341E1,-1.018035328E1,-1.025578237E1,2.770670394E1
1.642935242E1,2.277992422E1,-1.007861173E1,-1.114910477E1,2.729113224E1
1.643933742E1,2.170939492E1,-9.404423089E0,-8.977627217E0,2.530491636E1
1.644932342E1,2.148830235E1,-8.546863425E0,-5.347234275E0,2.373581527E1
1.645930842E1,2.233045577E1,-7.293177119E0,-2.154727327E0,2.358988209E1
