"Time (s)","Linear Acceleration x (m/s^2)","Linear Acceleration y (m/s^2)","Linear Acceleration z (m/s^2)","Absolute acceleration (m/s^2)"
6.428332999E-4,3.261258218E-1,9.593117416E-2,1.445909427E0,1.485333266E0
1.062883332E-2,2.000909156E-1,-6.123905897E-2,6.691857648E-1,7.011392049E-1
2.061383333E-2,9.381506681E-2,-6.618814230E-2,-1.186809361E-2,1.154252511E-1
3.059983329E-2,1.651207653E-1,4.963292062E-2,-4.802230507E-1,5.102376627E-1
4.058483330E-2,1.326117812E-1,1.264676732E-1,-6.487719655E-1,6.741550416E-1
5.057083332E-2,4.346747026E-3,1.418487740E-1,-6.294878483E-1,6.452866960E-1
6.055683334E-2,-1.009492546E-2,1.720683539E-1,-4.625369775E-1,4.936090371E-1
7.054183329E-2,4.565140530E-2,2.342786354E-1,-2.344476199E-1,3.345687019E-1
8.052783331E-2,9.350377567E-2,2.883875996E-1,-3.878341198E-2,3.056378849E-1
9.051283333E-2,1.018350347E-1,2.563740939E-1,1.561370301E-1,3.169807920E-1
1.004988333E-1,5.566498138E-2,1.779377890E-1,2.889980489E-1,3.439190590E-1
1.104848333E-1,1.395949647E-2,1.093943882E-1,2.556724280E-1,2.784427951E-1
1.204698333E-1,5.287651733E-2,3.544523656E-2,1.887329185E-1,1.991793298E-1
1.304556250E-1,1.355080898E-1,-1.976358891E-4,1.710404134E-1,2.182138962E-1
1.404406250E-1,2.063793768E-1,-1.140382469E-2,1.934311563E-1,2.830867475E-1
1.504266250E-1,1.394654854E-1,-3.503476202E-2,2.051419598E-1,2.505220147E-1
1.604126250E-1,1.137137995E-1,6.590981483E-3,1.421282709E-1,1.821392726E-1
1.703976250E-1,1.722280194E-1,5.443582356E-2,6.354110777E-2,1.914764266E-1
1.803836250E-1,1.686020879E-1,8.257847250E-2,8.462909102E-2,2.059319092E-1
1.903686250E-1,1.835438435E-1,9.974706709E-2,2.164393651E-1,3.008052837E-1
2.003546250E-1,1.130810577E-1,1.126319915E-1,4.254065734E-1,4.543611381E-1
2.103406250E-1,-8.980290843E-2,1.111023599E-1,5.923328859E-1,6.093164567E-1
2.203256250E-1,-1.522465852E-1,1.431170350E-1,6.506407356E-1,6.833702329E-1
2.303116250E-1,-3.872660263E-2,2.010734671E-1,6.021842748E-1,6.360473172E-1
2.402966250E-1,-4.425794072E-3,1.694616652E-1,5.663560456E-1,5.911818790E-1
2.502826250E-1,-9.613515062E-2,5.184141397E-2,5.599714708E-1,5.705239237E-1
2.602686250E-1,-3.547211548E-2,7.308785677E-2,4.486597806E-1,4.559558142E-1
2.702536250E-1,1.458128207E-1,2.069703841E-1,3.223225003E-1,4.098657254E-1
2.802396250E-1,1.806642543E-1,2.778012156E-1,3.403991675E-1,4.750628184E-1
2.902246250E-1,2.761311960E-1,3.299648112E-1,3.776880312E-1,5.725150330E-1
3.002106250E-1,4.182834588E-1,4.411800224E-1,4.030520833E-1,7.294188411E-1
3.101966250E-1,4.574243183E-1,5.390466249E-1,6.469716078E-1,9.583217268E-1
3.201816250E-1,6.044698783E-1,6.813427109E-1,1.027354621E0,1.372978237E0
3.301676250E-1,8.243042099E-1,8.061275554E-1,1.061881260E0,1.567453628E0
3.401526250E-1,9.452453873E-1,9.391932267E-1,1.119864004E0,1.740594194E0
3.501386250E-1,1.098623336E0,1.129470395E0,1.330616952E0,2.062333164E0
3.601236250E-1,1.375006090E0,1.361755714E0,1.484190563E0,2.438819797E0
3.701096250E-1,1.543181660E0,1.523858074E0,1.735195743E0,2.777491194E0
3.800956250E-1,1.689937856E0,1.625682072E0,2.021602306E0,3.096063313E0
3.900806250E-1,1.771741426E0,1.786431971E0,2.454777490E0,3.515158516E0
4.000666250E-1,2.050731965E0,1.951422855E0,3.142743927E0,4.229703553E0
4.100516250E-1,2.550963896E0,2.184212789E0,3.674004400E0,4.977600891E0
4.200376250E-1,2.954209229E0,2.347737776E0,4.064496664E0,5.546111968E0
4.300236250E-1,3.010533704E0,2.276275445E0,4.379815369E0,5.781654240E0
4.400086250E-1,2.187496147E0,2.074254144E0,3.627178727E0,4.716364614E0
4.499946250E-1,2.367936252E0,2.001266275E0,3.645781644E0,4.785803234E0
4.599796250E-1,2.487498509E0,2.064733708E0,4.076528479E0,5.202774122E0
4.699656250E-1,1.989549186E0,1.927581418E0,3.678182820E0,4.604661219E0
4.799516250E-1,2.159110546E0,1.768873367E0,3.677291704E0,4.616616252E0
4.899366250E-1,2.812355778E0,1.639005538E0,3.576622531E0,4.836105138E0
4.999226250E-1,3.082341605E0,1.569440628E0,3.582570319E0,4.979837723E0
5.099076250E-1,2.967039775E0,1.503934856E0,3.840393353E0,5.080724966E0
5.198936250E-1,2.805324501E0,1.274133434E0,4.049667540E0,5.088523238E0
5.298796250E-1,2.568675989E0,1.100274078E0,4.083159807E0,4.947817033E0
5.398646250E-1,2.393847603E0,8.944322062E-1,4.033006484E0,4.774479722E0
5.498506250E-1,2.352444200E0,5.700631803E-1,3.992494635E0,4.668937690E0
5.598356250E-1,2.304734282E0,2.551806772E-1,4.074136384E0,4.687803810E0
5.698216250E-1,2.083426525E0,1.741300821E-2,4.157438741E0,4.650297430E0
5.798076250E-1,1.560488395E0,-1.382176530E-1,4.175972661E0,4.460154237E0
5.897926250E-1,9.379734975E-1,-4.750155205E-1,4.175568911E0,4.305904058E0
5.997786250E-1,9.054574236E-2,-8.755316663E-1,4.271917576E0,4.361654962E0
6.097636250E-1,-5.003512135E-1,-1.084900578E0,4.316437984E0,4.478727215E0
6.197496250E-1,-5.971245329E-1,-1.164850143E0,4.303724090E0,4.498385778E0
6.297356250E-1,-6.857355778E-1,-1.252157843E0,4.236923452E0,4.470978963E0
6.397206250E-1,-5.885136308E-1,-1.341517332E0,4.127818501E0,4.380057377E0
6.497066250E-1,-3.355819389E-1,-1.475391088E0,3.999443758E0,4.276089858E0
6.596916250E-1,-1.940367816E-1,-1.532718945E0,3.923723778E0,4.216928493E0
6.696776250E-1,4.195654973E-2,-1.540172975E0,3.778892047E0,4.080921249E0
6.796636250E-1,4.398893957E-1,-1.659447988E0,3.649402825E0,4.033039956E0
6.896486250E-1,7.550293225E-1,-1.787946984E0,3.678316137E0,4.158946176E0
6.996346250E-1,8.371375327E-1,-1.931657512E0,3.721327085E0,4.275555551E0
7.096196250E-1,6.445897445E-1,-2.184717988E0,3.797573608E0,4.428324055E0
7.196056250E-1,4.765194243E-1,-2.384032613E0,3.852696480E0,4.555650604E0
7.295916250E-1,3.357336742E-1,-2.397115173E0,3.978640827E0,4.657087189E0
7.395766250E-1,8.514488854E-2,-2.345115300E0,3.960147838E0,4.603214781E0
7.495626250E-1,2.084935838E-1,-2.381515971E0,3.705724960E0,4.409930314E0
7.595476250E-1,3.884609413E-1,-2.431892658E0,3.298335997E0,4.116311960E0
7.695336250E-1,9.349479289E-1,-2.499413965E0,2.841058005E0,3.897795324E0
7.795196250E-1,1.674223610E0,-2.499204050E0,2.544908227E0,3.940254238E0
7.895046250E-1,1.971841039E0,-2.466235110E0,2.545075457E0,4.055598819E0
7.994906250E-1,1.964902002E0,-2.567044616E0,2.689956597E0,4.205523087E0
8.094756250E-1,1.613826988E0,-2.757229983E0,2.737972763E0,4.207522974E0
8.194616250E-1,1.058544692E0,-3.081715368E0,2.677038051E0,4.217110291E0
8.294476250E-1,4.580422229E-1,-3.563010213E0,2.367831586E0,4.302495890E0
8.394326250E-1,-4.414249476E-1,-4.065996475E0,1.967448903E0,4.538506197E0
8.494186250E-1,-1.293323411E0,-4.083629923E0,1.474617794E0,4.530255669E0
8.594036250E-1,-1.980866363E0,-4.139119999E0,1.209080528E0,4.745315758E0
8.693896250E-1,-3.029832146E0,-4.402013739E0,9.899113905E-1,5.434844280E0
8.793756250E-1,-4.247737877E0,-4.619907891E0,6.460269901E-1,6.309055149E0
8.893606250E-1,-5.406913297E0,-4.794179476E0,2.707383639E-1,7.231332347E0
8.993466250E-1,-6.677823746E0,-4.941834535E0,-1.530707502E-1,8.308940318E0
9.093316250E-1,-7.851212577E0,-5.135470929E0,-5.554436794E-1,9.398038001E0
9.193176250E-1,-9.138257833E0,-5.568573022E0,-9.685670069E-1,1.074499343E1
9.293036250E-1,-1.052910461E1,-5.968084032E0,-1.571919263E0,1.220454838E1
9.392886250E-1,-1.195760746E1,-6.186724289E0,-2.309899274E0,1.365999884E1
9.492746250E-1,-1.357434739E1,-6.357408607E0,-2.962015262E0,1.527917163E1
9.592596250E-1,-1.470308922E1,-6.305807514E0,-3.340542369E0,1.634329417E1
9.692456250E-1,-1.514538197E1,-6.212692358E0,-3.383315336E0,1.671606904E1
9.792306250E-1,-1.513695145E1,-6.420401246E0,-3.162028629E0,1.674357419E1
9.892166250E-1,-1.475240815E1,-6.771049413E0,-2.736042012E0,1.646106261E1
9.992026250E-1,-1.430252104E1,-7.020290489E0,-2.347719650E0,1.610460723E1
1.009187625E0,-1.390427887E1,-7.319256286E0,-1.900612890E0,1.582759656E1
1.019173625E0,-1.390754513E1,-7.931905323E0,-1.684623175E0,1.609884744E1
1.029159625E0,-1.422626516E1,-8.807203100E0,-1.508612044E0,1.679968324E1
1.039144625E0,-1.452148289E1,-9.797094026E0,-1.334153933E0,1.756805292E1
1.049130625E0,-1.472295572E1,-1.092991137E1,-9.553984925E-1,1.836140447E1
1.059115625E0,-1.473884144E1,-1.228178412E1,1.193375784E-1,1.918566938E1
1.069101625E0,-1.428731243E1,-1.345902509E1,1.696568452E0,1.970154810E1
1.079087625E0,-1.336757464E1,-1.435773278E1,3.702451396E0,1.996358407E1
1.089072625E0,-1.241923462E1,-1.533068608E1,5.719727640E0,2.054221528E1
1.099058625E0,-1.134863399E1,-1.633038688E1,7.463229353E0,2.124082911E1
1.109043625E0,-9.805728024E0,-1.727156524E1,8.894704928E0,2.176177942E1
1.119029625E0,-8.293287224E0,-1.793768589E1,9.853261210E0,2.208225406E1
1.129015708E0,-7.074455001E0,-1.797578869E1,1.003170303E1,2.176722210E1
1.139001708E0,-5.776141577E0,-1.798711708E1,9.393481779E0,2.109828648E1
1.148987708E0,-4.985085220E0,-1.804472970E1,8.496779684E0,2.055866264E1
1.158972708E0,-4.660366530E0,-1.798961618E1,7.928097031E0,2.020396073E1
1.168958708E0,-3.941111643E0,-1.770085611E1,7.681108303E0,1.969396082E1
1.178943708E0,-3.032336801E0,-1.736282975E1,7.953596739E0,1.933707900E1
1.188929708E0,-1.103815736E0,-1.673251042E1,8.717179953E0,1.889932646E1
1.198915708E0,2.327158501E0,-1.567444155E1,9.610837988E0,1.853299737E1
1.208900708E0,5.326652076E0,-1.429551841E1,1.074856465E1,1.866190534E1
1.218886708E0,7.413885285E0,-1.327650777E1,1.166800072E1,1.916699231E1
1.228871708E0,9.886018481E0,-1.183158593E1,1.145563570E1,1.920810705E1
1.238857708E0,1.235487431E1,-1.015481849E1,1.041023423E1,1.908235401E1
1.248843708E0,1.452751722E1,-8.692456171E0,9.010980320E0,1.917825115E1
1.258828708E0,1.699114798E1,-6.840261151E0,7.489835939E0,1.978853013E1
1.268814708E0,1.865218524E1,-5.521699403E0,6.288309721E0,2.044348350E1
1.278799708E0,1.940929558E1,-5.159657351E0,5.440133668E0,2.080715919E1
1.288785708E0,2.031187530E1,-4.867543321E0,4.813354835E0,2.143440321E1
1.298771708E0,2.102818962E1,-4.849618097E0,4.757832306E0,2.209842806E1
1.308756708E0,2.202578776E1,-4.823090449E0,5.119651287E0,2.312159937E1
1.318742708E0,2.338857493E1,-4.315081722E0,5.103067998E0,2.432461038E1
1.328727708E0,2.437313612E1,-4.011303958E0,4.979719230E0,2.519797466E1
1.338713708E0,2.498566938E1,-3.872698927E0,4.693406515E0,2.571593934E1
1.348699708E0,2.552806880E1,-3.791679322E0,4.157371498E0,2.614082757E1
1.358684708E0,2.555763700E1,-4.021151839E0,3.667774191E0,2.613072977E1
1.368670708E0,2.446441817E1,-4.474536170E0,3.321959625E0,2.509112684E1
1.378655708E0,2.265190528E1,-4.940991367E0,3.184512050E0,2.340220770E1
1.388641708E0,2.025816979E1,-5.555964671E0,3.253397513E0,2.125668794E1
1.398627708E0,1.781515983E1,-6.236637291E0,3.431127434E0,1.918458235E1
1.408612708E0,1.588613415E1,-6.816890999E0,3.389588229E0,1.761614513E1
1.418598708E0,1.430627963E1,-7.393733441E0,3.490027022E0,1.647777957E1
1.428583708E0,1.268272302E1,-8.022877473E0,4.173367141E0,1.557674611E1
1.438569708E0,1.104080381E1,-8.659358007E0,5.102154078E0,1.493036524E1
1.448555708E0,9.887779663E0,-9.336493646E0,5.879313943E0,1.481568874E1
1.458540708E0,9.213616748E0,-1.009535348E1,6.646136515E0,1.519796125E1
1.468526708E0,8.395634547E0,-1.091814560E1,7.509396045E0,1.568705236E1
1.478511708E0,7.437496342E0,-1.150415238E1,8.470847282E0,1.610643125E1
1.488497708E0,6.820847225E0,-1.198371411E1,9.695634309E0,1.685641378E1
1.498483708E0,6.516026611E0,-1.286674191E1,1.085056465E1,1.804844601E1
1.508468708E0,7.048377004E0,-1.396788722E1,1.148523898E1,1.940856013E1
1.518454708E0,7.130805203E0,-1.561388428E1,1.137989437E1,2.059475081E1
1.528439708E0,5.808656774E0,-1.734576523E1,1.141692362E1,2.156298240E1
1.538425708E0,3.915089194E0,-1.868913964E1,1.199573716E1,2.255015685E1
1.548411708E0,1.145526264E0,-1.991769578E1,1.230969054E1,2.344259621E1
1.558396708E0,-2.065517235E0,-2.076467900E1,1.219857824E1,2.417113085E1
1.568382708E0,-4.184696122E0,-2.099371444E1,1.212209900E1,2.460067096E1
1.578367708E0,-5.535236877E0,-2.022439628E1,1.175474884E1,2.403828555E1
1.588353708E0,-5.978764556E0,-1.893637395E1,1.107548014E1,2.273759320E1
1.598339708E0,-5.835756864E0,-1.783593030E1,1.056238112E1,2.153463171E1
1.608324708E0,-6.398335608E0,-1.684070613E1,9.803651093E0,2.050998919E1
1.618310708E0,-6.910030712E0,-1.604400897E1,8.449310818E0,1.940488602E1
1.628295708E0,-7.478829140E0,-1.533307876E1,6.335872142E0,1.819833689E1
1.638281708E0,-8.753353168E0,-1.430238538E1,4.040093017E0,1.724823964E1
1.648267708E0,-1.038889423E1,-1.301210837E1,2.246161408E0,1.680146805E1
1.658252708E0,-1.190516730E1,-1.162233163E1,9.003855488E-1,1.666200153E1
1.668238708E0,-1.323523344E1,-1.024270448E1,-3.092107040E-1,1.673857851E1
1.678223708E0,-1.406885694E1,-8.900314747E0,-1.338470640E0,1.670149221E1
1.688209708E0,-1.451570584E1,-7.660748298E0,-1.869724680E0,1.651934172E1
1.698195708E0,-1.483017144E1,-6.663102795E0,-2.011059484E0,1.638216359E1
1.708180708E0,-1.498328078E1,-5.739559057E0,-1.838825946E0,1.615000068E1
1.718166708E0,-1.498079103E1,-4.787122471E0,-1.619009230E0,1.581018129E1
1.728151708E0,-1.500468744E1,-3.889267305E0,-1.555371058E0,1.557838966E1
1.738137708E0,-1.456392432E1,-3.139408675E0,-1.704514233E0,1.499563761E1
1.748123708E0,-1.349646949E1,-2.514328458E0,-1.756110064E0,1.384053680E1
1.758108708E0,-1.194675737E1,-2.015201944E0,-1.542476778E0,1.221332408E1
1.768094708E0,-1.018748338E1,-1.683907476E0,-1.246937741E0,1.040073150E1
1.778079708E0,-8.453469357E0,-1.351447658E0,-8.398250592E-1,8.601910316E0
1.788065708E0,-6.819453249E0,-7.424823672E-1,-4.584065044E-1,6.875053396E0
1.798051708E0,-5.158939898E0,-8.618971288E-2,-2.056290329E-1,5.163755691E0
1.808036708E0,-3.620817541E0,4.464238054E-1,1.325131094E-1,3.650640164E0
1.818022708E0,-2.568313169E0,8.295538402E-1,6.316606736E-1,2.771892371E0
1.828007708E0,-1.910863351E0,1.134049349E0,1.014978404E0,2.442876958E0
1.837993708E0,-1.443313263E0,1.283225269E0,1.062985214E0,2.204485843E0
1.847979708E0,-9.890188131E-1,1.314029571E0,8.657399189E-1,1.858584820E0
1.857964708E0,-5.577173692E-1,1.347176267E0,5.357131273E-1,1.553358012E0
1.867950708E0,-2.748252752E-1,1.367057385E0,2.250721943E-1,1.412456130E0
1.877935708E0,-2.348838222E-1,1.388338911E0,9.975320667E-2,1.411596983E0
1.887921708E0,-1.831979442E-1,1.309188076E0,1.016143754E-1,1.325843274E0
1.897907708E0,-3.553089827E-2,1.216361774E0,9.722106993E-2,1.220758103E0
1.907892708E0,4.742764324E-2,1.193655281E0,1.220255435E-1,1.200813285E0
1.917878708E0,7.693854064E-2,1.103910461E0,2.265825301E-1,1.129547470E0
1.927863708E0,1.324429429E-1,1.071497006E0,3.280565724E-1,1.128391812E0
1.937849708E0,7.478910416E-2,1.112526333E0,4.279647303E-1,1.194345872E0
1.947835708E0,-2.037237176E-1,1.101330670E0,4.890269110E-1,1.222121073E0
1.957820708E0,-5.897115791E-1,9.425068438E-1,5.514617255E-1,1.241043485E0
1.967806708E0,-9.933135930E-1,7.142549336E-1,6.044655660E-1,1.364628383E0
1.977791708E0,-1.403974366E0,4.751798272E-1,6.262344575E-1,1.609071000E0
1.987777708E0,-1.916683377E0,1.981440121E-1,5.777399898E-1,2.011646021E0
1.997763708E0,-2.702921044E0,-1.960571408E-2,4.675547656E-1,2.743132153E0
2.007748708E0,-3.794242449E0,-2.731860083E-1,3.117141894E-1,3.816814391E0
2.017734708E0,-5.193735509E0,-6.175642061E-1,1.506345078E-1,5.232491265E0
2.027719708E0,-6.665666215E0,-9.157458919E-1,-5.333830118E-2,6.728487319E0
2.037705708E0,-7.865075741E0,-1.253463526E0,-2.419662622E-1,7.968006959E0
2.047691708E0,-8.643890367E0,-1.613452621E0,-2.944306970E-1,8.798111131E0
2.057676708E0,-9.162894491E0,-1.997512363E0,-4.113165379E-2,9.378186547E0
2.067662708E0,-9.428620037E0,-2.477239569E0,4.826040369E-1,9.760558301E0
2.077647708E0,-9.401564385E0,-3.016854544E0,8.502439204E-1,9.910284504E0
2.087633708E0,-9.417867007E0,-3.704429217E0,8.921772274E-1,1.015947809E1
2.097619708E0,-9.784292132E0,-4.478397671E0,7.701595777E-1,1.078802874E1
2.107604708E0,-1.036444819E1,-5.279907680E0,5.655929840E-1,1.164556168E1
2.117590708E0,-1.092758768E1,-6.057534737E0,2.856461325E-1,1.249749948E1
2.127575750E0,-1.133944100E1,-6.901687905E0,-2.259831905E-2,1.327466492E1
2.137561750E0,-1.157145968E1,-7.861770310E0,-1.442587039E-1,1.399024382E1
2.147547750E0,-1.143976167E1,-8.904670923E0,-6.472487658E-2,1.449708594E1
2.157532750E0,-1.097416543E1,-1.000940175E1,2.044338620E-1,1.485470375E1
2.167518750E0,-1.037564795E1,-1.098939275E1,8.331568944E-1,1.513654432E1
2.177503750E0,-9.717321632E0,-1.181670477E1,1.602575630E0,1.538275333E1
2.187489750E0,-9.223302661E0,-1.259896399E1,2.525406885E0,1.581710737E1
2.197475750E0,-8.900688969E0,-1.327179959E1,3.568544603E0,1.637368129E1
2.207460750E0,-8.402600335E0,-1.397597977E1,4.597055218E0,1.694298143E1
2.217446750E0,-7.868602197E0,-1.481488214E1,5.553785999E0,1.767031896E1
2.227432750E0,-7.420811897E0,-1.551502072E1,6.469803786E0,1.837505587E1
2.237417750E0,-6.980113100E0,-1.616982234E1,7.015626165E0,1.895795727E1
2.247403750E0,-6.800557387E0,-1.666545689E1,6.957544602E0,1.929747292E1
2.257388750E0,-6.700803303E0,-1.696615932E1,6.656232902E0,1.941794951E1
2.267374750E0,-6.632724756E0,-1.725583740E1,6.599471641E0,1.962931450E1
2.277360750E0,-7.133446975E0,-1.775825121E1,7.094960017E0,2.041029176E1
2.287345750E0,-7.208130537E0,-1.842577754E1,7.877562470E0,2.129606570E1
2.297331750E0,-5.585141693E0,-1.905589806E1,8.691191418E0,2.167620508E1
2.307316750E0,-2.386774372E0,-1.940352789E1,9.670819311E0,2.181096817E1
2.317302750E0,3.611269623E0,-1.849179962E1,1.012452992E1,2.138911002E1
2.327288750E0,1.048036690E1,-1.586075138E1,1.038394515E1,2.166166756E1
2.337273750E0,1.446192315E1,-1.319490169E1,1.084998344E1,2.238246618E1
2.347259750E0,1.619616054E1,-1.140527363E1,1.075537198E1,2.254049487E1
2.357244750E0,1.884544975E1,-1.043566962E1,9.973062472E0,2.373849514E1
2.367230750E0,2.276643586E1,-9.540100127E0,8.120964516E0,2.598603811E1
2.377216750E0,2.530113134E1,-8.409791826E0,6.016541662E0,2.733259262E1
2.387201750E0,2.569484308E1,-7.694243488E0,4.267787980E0,2.715953531E1
2.397187750E0,2.527841140E1,-7.307311009E0,2.810221544E0,2.646303501E1
2.407172750E0,2.534919311E1,-7.054152299E0,1.787000028E0,2.637301699E1
2.417158750E0,2.582669545E1,-6.633266208E0,1.299077948E0,2.669655450E1
2.427144750E0,2.689132841E1,-6.268851357E0,1.440849539E0,2.764992023E1
2.437129750E0,2.842212479E1,-5.839066388E0,1.684822273E0,2.906459186E1
2.447115750E0,2.938334390E1,-5.298666133E0,2.274985549E0,2.994381941E1
2.457100750E0,2.808752840E1,-5.055002716E0,3.281021807E0,2.872677163E1
2.467086750E0,2.459548468E1,-5.342768172E0,4.048857408E0,2.549267119E1
2.477072750E0,2.059957936E1,-5.881416017E0,4.148319716E0,2.182068470E1
2.487057750E0,1.724399561E1,-6.307521333E0,3.740358018E0,1.873847614E1
2.497043750E0,1.454246387E1,-6.748518337E0,3.181048160E0,1.634456553E1
2.507028750E0,1.214794720E1,-7.328434076E0,3.023378282E0,1.450583963E1
2.517014750E0,1.032320076E1,-7.814590881E0,3.367610007E0,1.337823239E1
2.527000750E0,9.171043755E0,-8.163091366E0,4.052730312E0,1.292937459E1
2.536985750E0,8.380113698E0,-8.466679387E0,4.668327515E0,1.279469606E1
2.546971750E0,7.496231623E0,-8.668443410E0,5.465209453E0,1.269661034E1
2.556956750E0,6.383944441E0,-9.130260011E0,6.513064411E0,1.290489839E1
2.566942750E0,5.612266926E0,-9.620750188E0,7.442512084E0,1.339579637E1
2.576928750E0,5.452412236E0,-9.942717762E0,8.121442233E0,1.394791238E1
2.586913750E0,5.231566994E0,-1.063977954E1,8.775578434E0,1.475076197E1
2.596899750E0,4.387472298E0,-1.174440278E1,9.437609546E0,1.569233519E1
2.606884750E0,3.320834329E0,-1.289749476E1,9.769479965E0,1.651714414E1
2.616870750E0,2.902774782E0,-1.361466160E1,9.517602965E0,1.686327009E1
2.626856750E0,2.647950785E0,-1.432862535E1,9.370040292E0,1.732393727E1
2.636841750E0,2.081935632E0,-1.536408304E1,9.402568352E0,1.813278233E1
2.646827750E0,1.491675584E0,-1.633107802E1,9.270362806E0,1.883796252E1
2.656812750E0,5.298945630E-1,-1.692685082E1,9.160169688E0,1.925377303E1
2.666798750E0,-4.699237651E-1,-1.727473677E1,9.218869886E0,1.958634526E1
2.676784750E0,-1.206015418E0,-1.731054161E1,9.535377331E0,1.979981679E1
2.686769750E0,-1.382310724E0,-1.704634101E1,9.761076347E0,1.969180379E1
2.696755750E0,-1.237436893E0,-1.679371323E1,9.461542200E0,1.931530054E1
2.706740750E0,-1.264513448E0,-1.680561465E1,8.785662543E0,1.900567138E1
2.716726750E0,-1.696753809E0,-1.665587214E1,7.946430391E0,1.853220996E1
2.726712750E0,-2.342822022E0,-1.594382511E1,7.051902291E0,1.759044343E1
2.736697750E0,-2.918596470E0,-1.493115753E1,6.171766527E0,1.641792839E1
2.746683750E0,-3.368245600E0,-1.422341055E1,5.414582505E0,1.558743692E1
2.756668750E0,-4.255378726E0,-1.347882143E1,4.569641132E0,1.485491485E1
2.766654750E0,-5.794022947E0,-1.237532086E1,3.790205239E0,1.418044160E1
2.776640750E0,-7.767557048E0,-1.116823569E1,3.393620469E0,1.402073788E1
2.786625750E0,-1.003150656E1,-9.853164146E0,3.110095999E0,1.440099527E1
2.796611750E0,-1.223561450E1,-8.509471650E0,2.584082233E0,1.512609834E1
2.806596750E0,-1.471682082E1,-7.653108911E0,1.798988574E0,1.668506071E1
2.816582750E0,-1.732597592E1,-7.201350691E0,6.505658913E-1,1.877424111E1
2.826568750E0,-1.842275219E1,-6.711798992E0,-6.604941711E-1,1.961841728E1
2.836553750E0,-1.788128482E1,-5.778260608E0,-1.767892789E0,1.887469436E1
2.846539750E0,-1.648085913E1,-4.687791726E0,-1.989204639E0,1.724966794E1
2.856524750E0,-1.454624702E1,-3.843681827E0,-1.581865377E0,1.512843318E1
2.866510750E0,-1.253911189E1,-3.101511701E0,-1.267929830E0,1.297907346E1
2.876496750E0,-1.101412998E1,-2.169266721E0,-9.099469158E-1,1.126253882E1
2.886481750E0,-9.765496257E0,-1.464819322E0,-3.825409278E-1,9.882153123E0
2.896467750E0,-8.443738421E0,-1.143127152E0,-4.637865275E-2,8.520892511E0
2.906452750E0,-7.100613105E0,-7.882146102E-1,1.167785445E-1,7.145182011E0
2.916438750E0,-5.938709375E0,-4.526914358E-1,3.049027678E-1,5.963737441E0
2.926424750E0,-5.030868334E0,-2.194898576E-1,6.809290203E-1,5.081483673E0
2.936409750E0,-4.339139798E0,1.668970764E-2,9.685257840E-1,4.445948147E0
2.946395750E0,-3.686031245E0,1.728366780E-1,8.583969855E-1,3.788607164E0
2.956380750E0,-2.946968915E0,3.548376971E-1,4.715451980E-1,3.005476742E0
2.966366750E0,-2.196780502E0,4.878484046E-1,2.023022595E-1,2.259373109E0
2.976352750E0,-1.438942762E0,5.375362891E-1,1.527351201E-1,1.543641652E0
2.986337750E0,-7.150153640E-1,7.092619962E-1,1.414412230E-1,1.017007950E0
2.996323750E0,-2.348095626E-2,9.651934558E-1,1.392216200E-1,9.754652336E-1
3.006309750E0,5.464331201E-1,1.112548553E0,7.709232241E-2,1.241892372E0
3.016294750E0,9.759046778E-1,1.181424075E0,-5.785322875E-2,1.533460069E0
3.026280750E0,1.131337996E0,1.176246366E0,-6.556132078E-2,1.633333848E0
3.036265750E0,9.090195474E-1,1.171879665E0,5.586400598E-2,1.484162819E0
3.046251750E0,3.791591907E-1,1.010272565E0,1.786040792E-1,1.093760378E0
3.056237750E0,-1.191469592E-1,7.336273438E-1,1.570126507E-1,7.596433702E-1
3.066222750E0,-5.958037931E-1,5.427783179E-1,5.538394958E-2,8.078724182E-1
3.076208750E0,-1.014370586E0,3.087405878E-1,1.073233044E-1,1.065732953E0
3.086193750E0,-1.377209028E0,8.587805629E-3,2.061941662E-1,1.392585542E0
3.096179750E0,-1.841667693E0,-1.031817216E-1,3.169354606E-1,1.871586078E0
3.106165750E0,-2.369355225E0,-2.255393869E-1,3.801976562E-1,2.410241161E0
3.116150750E0,-2.901406241E0,-4.605424923E-1,2.492413679E-1,2.948284047E0
3.126136333E0,-3.488992649E0,-6.790552801E-1,-5.051672727E-2,3.554818943E0
3.136121333E0,-4.257239603E0,-9.060839528E-1,-3.627516112E-1,4.367684272E0
3.146107333E0,-5.329507856E0,-1.111759179E0,-5.568651375E-1,5.472637503E0
3.156093333E0,-6.596064468E0,-1.288595937E0,-6.619416493E-1,6.753274221E0
3.166078333E0,-7.875729952E0,-1.597463409E0,-7.627324444E-1,8.072222272E0
3.176064333E0,-9.034376784E0,-2.076362066E0,-9.054942611E-1,9.314030447E0
3.186049333E0,-9.911571983E0,-2.556435428E0,-8.719242266E-1,1.027301675E1
3.196035333E0,-1.064144483E1,-3.062830031E0,-5.951173300E-1,1.108942922E1
3.206021333E0,-1.107001299E1,-3.609172812E0,-1.823945367E-1,1.164493812E1
3.216006333E0,-1.120683316E1,-4.150639599E0,3.459777036E-1,1.195577765E1
3.225992333E0,-1.117030444E1,-4.714056834E0,9.494100666E-1,1.216139024E1
3.235977333E0,-1.087333722E1,-5.271624514E0,1.564832730E0,1.218475230E1
3.245963333E0,-1.047777191E1,-5.899422517E0,2.003058154E0,1.219012437E1
3.255949333E0,-1.005044452E1,-6.550449754E0,2.418503996E0,1.223801408E1
3.265934333E0,-9.665549800E0,-7.077209625E0,2.816698505E0,1.230623986E1
3.275920333E0,-9.283951735E0,-7.576797484E0,3.100174735E0,1.237783112E1
3.285905333E0,-8.801651754E0,-8.231985599E0,3.366179194E0,1.251262654E1
3.295891333E0,-8.333333634E0,-8.919295394E0,3.678244508E0,1.274863767E1
3.305877333E0,-7.900377721E0,-9.561490996E0,4.083554786E0,1.305808171E1
3.315862333E0,-7.435953262E0,-1.028794205E1,4.504109925E0,1.346930432E1
3.325848333E0,-6.949977720E0,-1.113003232E1,4.852355763E0,1.399018107E1
3.335833333E0,-6.569671891E0,-1.191696581E1,5.160194710E0,1.455342820E1
3.345819333E0,-6.576793799E0,-1.266805586E1,5.502143390E0,1.529730165E1
3.355805333E0,-6.505410406E0,-1.348824012E1,5.830092666E0,1.606993985E1
3.365790333E0,-6.557748833E0,-1.429431622E1,5.920896417E0,1.680442086E1
3.375776333E0,-6.730039966E0,-1.495047205E1,5.880352993E0,1.741805396E1
3.385761333E0,-6.708732128E0,-1.544132008E1,5.807592580E0,1.780925557E1
3.395747333E0,-6.511704934E0,-1.598422002E1,5.666398695E0,1.816605805E1
3.405733333E0,-6.439186596E0,-1.651392864E1,5.571719994E0,1.858001687E1
3.415718333E0,-6.218359480E0,-1.698459559E1,6.007132323E0,1.905859703E1
3.425704333E0,-5.388227935E0,-1.741043661E1,6.761635981E0,1.943903352E1
3.435689333E0,-3.655073454E0,-1.757750208E1,7.798977061E0,1.957427354E1
3.445675333E0,-1.523976772E0,-1.702751649E1,8.561608933E0,1.911962266E1
3.455661333E0,5.755531311E-2,-1.603485457E1,9.011901841E0,1.839386442E1
3.465646333E0,9.335524178E-1,-1.563239305E1,9.141856794E0,1.813330577E1
3.475632333E0,2.116599095E0,-1.563641594E1,8.986876343E0,1.815878414E1
3.485618333E0,4.742991781E0,-1.542185704E1,8.694095730E0,1.832803716E1
3.495603333E0,9.910600176E0,-1.476786234E1,7.368509722E0,1.925109580E1
3.505589333E0,1.736594748E1,-1.299501345E1,5.364463681E0,2.234332064E1
3.515574333E0,2.366690941E1,-1.031722374E1,4.597671807E0,2.622415476E1
3.525560333E0,2.547892879E1,-8.036596795E0,6.350604787E0,2.746075166E1
3.535546333E0,2.432219049E1,-7.060346839E0,8.902786950E0,2.684542910E1
3.545531333E0,2.366525348E1,-6.713529768E0,9.199554779E0,2.626304461E1
3.555517333E0,2.417639836E1,-6.749001317E0,6.900506183E0,2.603198498E1
3.565502333E0,2.472732302E1,-7.104564654E0,3.881054891E0,2.601879954E1
3.575488333E0,2.472830769E1,-7.185615249E0,1.549339655E0,2.579772705E1
3.585474333E0,2.396224058E1,-6.967329918E0,4.868026301E-1,2.495935970E1
3.595459333E0,2.281424503E1,-6.628712397E0,5.723397937E-1,2.376462029E1
3.605445333E0,2.182926986E1,-6.096029881E0,1.290804430E0,2.270120656E1
3.615430333E0,2.085641246E1,-5.554405804E0,2.166330249E0,2.169180378E1
3.625416333E0,1.943431816E1,-5.148730659E0,3.079086752E0,2.033919676E1
3.635402333E0,1.721072028E1,-5.273061175E0,3.853537309E0,1.840825403E1
3.645387333E0,1.476283490E1,-5.738994216E0,4.004921722E0,1.633758694E1
3.655373333E0,1.297933122E1,-6.164440550E0,3.573248103E0,1.480646711E1
3.665358333E0,1.191813993E1,-6.753446370E0,3.077149277E0,1.403994106E1
3.675344333E0,1.128490869E1,-7.394401193E0,2.670713410E0,1.375351022E1
3.685330333E0,1.088977257E1,-7.919095827E0,2.573854283E0,1.370853571E1
3.695315333E0,1.028786253E1,-8.514917747E0,2.891065148E0,1.366390125E1
3.705301333E0,9.444009908E0,-9.137023485E0,3.514615148E0,1.360246452E1
3.715286333E0,8.764224896E0,-9.655627075E0,4.208696603E0,1.370240487E1
3.725272333E0,7.844039213E0,-1.019661088E1,5.060124292E0,1.382406172E1
3.735258333E0,6.674621810E0,-1.091679840E1,6.224058176E0,1.422905351E1
3.745243333E0,6.048082713E0,-1.140426323E1,7.269264931E0,1.481481478E1
3.755229333E0,5.954914348E0,-1.156945292E1,8.127053806E0,1.534152044E1
3.765214333E0,5.534791903E0,-1.192032211E1,8.995524960E0,1.592631376E1
3.775200333E0,4.637164194E0,-1.273249919E1,9.877254674E0,1.676842233E1
3.785186333E0,3.955999823E0,-1.342717414E1,1.021176687E1,1.732683244E1
3.795171333E0,3.361449088E0,-1.402826089E1,1.003661937E1,1.757342232E1
3.805157333E0,2.467154877E0,-1.508809212E1,9.606102912E0,1.805587412E1
3.815142333E0,1.435797252E0,-1.602832674E1,9.461020628E0,1.866761053E1
3.825128333E0,1.581987584E-1,-1.665859694E1,9.489180819E0,1.917233506E1
3.835114333E0,-9.930197704E-1,-1.718191456E1,9.501800280E0,1.965931038E1
3.845099333E0,-2.111026699E0,-1.732920592E1,9.689008244E0,1.996583813E1
3.855085333E0,-3.161447124E0,-1.711228123E1,1.017079309E1,2.015613924E1
3.865070333E0,-4.010474823E0,-1.656042804E1,1.083125247E1,2.019028764E1
3.875056333E0,-4.387067963E0,-1.584677303E1,1.057563442E1,1.955020778E1
3.885042333E0,-4.632621492E0,-1.513826825E1,9.804079109E0,1.862117919E1
3.895027333E0,-4.361135562E0,-1.485342698E1,8.873508772E0,1.784328878E1
3.905013333E0,-4.493608910E0,-1.457470659E1,7.745379728E0,1.710571543E1
3.914998333E0,-5.340933900E0,-1.394944043E1,6.656843351E0,1.635316564E1
3.924984333E0,-6.879521695E0,-1.327420396E1,5.702912217E0,1.600173482E1
3.934970333E0,-9.474757492E0,-1.237232007E1,4.384041444E0,1.618842651E1
3.944955333E0,-1.251767249E1,-1.120560642E1,2.654432423E0,1.700893151E1
3.954941333E0,-1.510614364E1,-9.808827049E0,9.744466746E-1,1.803768860E1
3.964927333E0,-1.675545490E1,-8.349494753E0,-2.075612453E-1,1.872170968E1
3.974912333E0,-1.684042781E1,-7.000465504E0,-7.748376426E-1,1.825395572E1
3.984898333E0,-1.544680009E1,-5.874028060E0,-1.041670943E0,1.655877160E1
3.994883333E0,-1.353587388E1,-4.943167115E0,-1.306569693E0,1.446934370E1
4.004869333E0,-1.187980324E1,-4.112337998E0,-1.633507985E0,1.267712102E1
4.014855333E0,-1.093306068E1,-3.323235780E0,-1.887243523E0,1.158177016E1
4.024840333E0,-1.061703387E1,-2.763943171E0,-2.007758146E0,1.115311091E1
4.034826333E0,-1.026904736E1,-2.443836181E0,-2.050098127E0,1.075307264E1
4.044811333E0,-9.709750072E0,-2.105705733E0,-2.080812382E0,1.015101095E1
4.054797333E0,-9.204924277E0,-1.681380309E0,-1.815952224E0,9.531807445E0
4.064783333E0,-8.437356770E0,-1.437980018E0,-1.226398519E0,8.646434475E0
4.074768333E0,-7.539670004E0,-1.141170089E0,-4.949042398E-1,7.641585120E0
4.084754333E0,-6.549994841E0,-8.081097615E-1,2.112376821E-1,6.603036813E0
4.094739333E0,-5.554868903E0,-5.048064995E-1,6.341942722E-1,5.613697579E0
4.104725333E0,-4.594344741E0,-2.243436313E-1,6.487155399E-1,4.645338041E0
4.114711333E0,-3.815022869E0,-3.667373657E-2,4.793605864E-1,3.845195837E0
4.124696333E0,-3.198849131E0,4.733905792E-2,2.852470601E-1,3.211890819E0
4.134682625E0,-2.614508804E0,1.679624391E-1,5.558947921E-2,2.620488095E0
4.144667625E0,-2.058657281E0,2.972250813E-1,-2.080760926E-2,2.080107090E0
4.154653625E0,-1.590527442E0,4.184144729E-1,8.718373954E-2,1.646951493E0
4.164639625E0,-1.153717336E0,5.171347690E-1,2.349940422E-1,1.285968219E0
4.174624625E0,-7.569863856E-1,6.826314372E-1,3.063426447E-1,1.064358907E0
4.184610625E0,-4.001428011E-1,9.016137564E-1,3.467705861E-1,1.045596225E0
4.194595625E0,-9.907054424E-2,9.145197308E-1,4.390162602E-1,1.019262767E0
4.204581625E0,-2.252581358E-2,7.546264493E-1,4.771459535E-1,8.931051177E-1
4.214567625E0,-1.514411312E-1,5.517128634E-1,4.100783899E-1,7.039075123E-1
4.224552625E0,-2.138785771E-1,3.199578863E-1,2.590307763E-1,4.639116703E-1
4.234538625E0,-4.089454919E-1,1.412137663E-1,1.734687620E-1,4.661213947E-1
4.244523625E0,-8.440406093E-1,-5.127423406E-2,1.795855343E-1,8.644562229E-1
4.254509625E0,-1.531176741E0,-2.828385919E-1,1.229976431E-1,1.561930953E0
4.264495625E0,-2.184507781E0,-5.661350209E-1,5.433525145E-3,2.256681774E0
4.274480625E0,-2.956747506E0,-9.048753333E-1,-2.029170942E-1,3.098762742E0
4.284466625E0,-4.083929008E0,-1.348843893E0,-4.500239360E-1,4.324393314E0
4.294451625E0,-5.548634602E0,-1.840273132E0,-6.274337214E-1,5.879423800E0
4.304437625E0,-7.162991202E0,-2.400933990E0,-6.865777230E-1,7.585796989E0
4.314423625E0,-8.720255588E0,-2.985804659E0,-6.856120554E-1,9.242724213E0
4.324408625E0,-9.952667384E0,-3.451737115E0,-6.311107430E-1,1.055312172E1
4.334394625E0,-1.055899792E1,-3.878958664E0,-5.647471842E-1,1.126311221E1
4.344379625E0,-1.048596853E1,-4.344289441E0,-3.944306561E-1,1.135711065E1
4.354365625E0,-1.023575565E1,-4.726072277E0,-2.889957100E-2,1.127418681E1
4.364351625E0,-9.916103575E0,-5.124450096E0,4.377526769E-1,1.117052937E1
4.374336625E0,-9.550280714E0,-5.569665282E0,8.468589672E-1,1.108811089E1
4.384322625E0,-9.236801543E0,-5.946289705E0,1.133339497E0,1.104361003E1
4.394308625E0,-8.910914580E0,-6.428164009E0,1.295734510E0,1.106366210E1
4.404293625E0,-8.635751628E0,-7.057938371E0,1.419596372E0,1.124304025E1
4.414279625E0,-8.488888282E0,-7.511589335E0,1.640738360E0,1.145326246E1
4.424264625E0,-8.196420495E0,-7.956267747E0,2.108247371E0,1.161586038E1
4.434250625E0,-7.839223446E0,-8.499484606E0,2.737876868E0,1.188236645E1
4.444236625E0,-7.438000372E0,-9.023758825E0,3.428440053E0,1.218631503E1
4.454221625E0,-7.001765925E0,-9.683480871E0,4.023180238E0,1.260874724E1
4.464207625E0,-6.667406346E0,-1.029595508E1,4.280700971E0,1.299174350E1
4.474192625E0,-6.495216955E0,-1.083031106E1,4.286185659E0,1.333622392E1
4.484178625E0,-6.504228099E0,-1.137618256E1,4.235291494E0,1.377171764E1
4.494164625E0,-6.691581659E0,-1.199969338E1,4.230686812E0,1.437597361E1
4.504149625E0,-7.021230136E0,-1.256788604E1,4.442456591E0,1.506601648E1
4.514135625E0,-7.232647328E0,-1.313838952E1,5.089467959E0,1.583764978E1
4.524120625E0,-6.903742032E0,-1.384224576E1,6.282729723E0,1.669557170E1
4.534106625E0,-5.879859488E0,-1.438190751E1,7.722441101E0,1.735073796E1
4.544092625E0,-4.255462634E0,-1.454270828E1,9.060157158E0,1.765462472E1
4.554077625E0,-2.184109878E0,-1.452067714E1,9.772318203E0,1.763855447E1
4.564063625E0,1.009814143E0,-1.432655075E1,8.866807278E0,1.687868633E1
4.574048625E0,4.726444160E0,-1.337685417E1,6.877833604E0,1.576654994E1
4.584034625E0,7.064220035E0,-1.229554379E1,5.128320953E0,1.507923332E1
4.594020625E0,8.431228303E0,-1.137097035E1,4.328847529E0,1.480282062E1
4.604005625E0,9.452659695E0,-1.042062005E1,4.815480298E0,1.487047236E1
4.613991625E0,1.000692253E1,-9.677427249E0,5.954716128E0,1.514099537E1
4.623976625E0,1.083668921E1,-8.914507109E0,6.458220452E0,1.544703471E1
4.633962625E0,1.238242405E1,-8.331725650E0,6.600536419E0,1.631898155E1
4.643948625E0,1.420326338E1,-8.855754871E0,5.984290760E0,1.777551183E1
4.653933625E0,1.740387018E1,-8.987859260E0,3.775269696E0,1.994815713E1
4.663919625E0,2.142668906E1,-8.011705198E0,1.406788046E0,2.291875819E1
4.673905625E0,2.454790471E1,-7.257792109E0,-1.776460129E-1,2.559895955E1
4.683890625E0,2.633753628E1,-6.873783823E0,-8.033533439E-1,2.723160109E1
4.693876625E0,2.614929336E1,-6.724336007E0,-3.348586383E-1,2.700211785E1
4.703861625E0,2.465355221E1,-6.916753256E0,6.748675042E-1,2.561434282E1
4.713847625E0,2.358371990E1,-7.074015291E0,1.565745480E0,2.467154425E1
4.723833625E0,2.303911491E1,-6.951444787E0,2.125512299E0,2.415866725E1
4.733818625E0,2.205395731E1,-6.596494238E0,2.600944726E0,2.316583007E1
4.743804625E0,2.010692338E1,-6.368496682E0,3.311338158E0,2.134973250E1
4.753789625E0,1.735632297E1,-6.478222607E0,4.083855041E0,1.897069285E1
4.763775625E0,1.434733410E1,-6.743282740E0,4.828262896E0,1.657196369E1
4.773761625E0,1.207866588E1,-6.965818412E0,5.334398468E0,1.492891833E1
4.783746625E0,1.076089292E1,-7.256377083E0,5.433418141E0,1.407031832E1
4.793732625E0,1.000531454E1,-7.735680951E0,5.394489718E0,1.374945811E1
4.803717625E0,9.657768325E0,-8.082267643E0,5.482371030E0,1.373506212E1
4.813703625E0,8.962001118E0,-8.367232282E0,6.034620668E0,1.366545596E1
4.823689625E0,7.976941162E0,-8.726443697E0,6.887573311E0,1.368287528E1
4.833674625E0,6.984323096E0,-8.953827880E0,7.545770988E0,1.363416527E1
4.843660625E0,6.082873061E0,-9.203756003E0,8.057874813E0,1.366161834E1
4.853645625E0,5.419235719E0,-9.608214927E0,8.569393331E0,1.396855082E1
4.863631625E0,4.776878150E0,-1.015259538E1,9.081392491E0,1.443486915E1
4.873617625E0,3.885544383E0,-1.063282369E1,9.542872292E0,1.480610707E1
4.883602625E0,2.622339395E0,-1.114762309E1,1.009531606E1,1.526635420E1
4.893588625E0,1.381946735E0,-1.176017623E1,1.039173481E1,1.575435413E1
4.903573625E0,7.366702348E-1,-1.218745450E1,1.020884794E1,1.591531672E1
4.913559625E0,4.722404319E-1,-1.245089144E1,9.789828275E0,1.584577061E1
4.923545625E0,2.715920573E-1,-1.266259105E1,9.546655440E0,1.586044150E1
4.933530625E0,-2.220117617E-1,-1.299816627E1,9.298070422E0,1.598298249E1
4.943516625E0,-1.060529968E0,-1.343986962E1,8.664098929E0,1.602564911E1
4.953501625E0,-1.890026213E0,-1.384564533E1,7.749682109E0,1.597910093E1
4.963487625E0,-2.566599935E0,-1.397819703E1,6.877544167E0,1.578854146E1
4.973473625E0,-3.139600172E0,-1.411007514E1,6.281797092E0,1.576110035E1
4.983458625E0,-4.052777382E0,-1.415669265E1,5.950897311E0,1.588238427E1
4.993444625E0,-5.365714400E0,-1.373424418E1,5.744365468E0,1.582460391E1
5.003430625E0,-6.931865385E0,-1.350650682E1,5.450471545E0,1.613022394E1
5.013415625E0,-8.669542102E0,-1.265403307E1,4.407714774E0,1.595974507E1
5.023401625E0,-9.957500693E0,-1.114002638E1,3.113505218E0,1.526256606E1
5.033386625E0,-1.083894857E1,-9.921245617E0,1.904581395E0,1.481692785E1
5.043372625E0,-1.141957942E1,-9.036132703E0,6.731922770E-1,1.457778023E1
5.053358625E0,-1.175489619E1,-8.172373821E0,-2.802786809E-1,1.431935175E1
5.063343625E0,-1.199513373E1,-7.323461019E0,-8.960901842E-1,1.408258826E1
5.073329625E0,-1.188209418E1,-6.540927563E0,-1.220914416E0,1.361831589E1
5.083314625E0,-1.139601515E1,-5.722757667E0,-1.187998392E0,1.280743755E1
5.093300625E0,-1.095031815E1,-4.963230082E0,-9.742051846E-1,1.206201460E1
5.103286625E0,-1.060151653E1,-4.377950107E0,-6.517166233E-1,1.148840000E1
5.113271625E0,-1.029096623E1,-3.756571763E0,-2.409272119E-1,1.095782202E1
5.123257625E0,-9.789758109E0,-2.903053694E0,-8.176044703E-2,1.021145285E1
5.133241958E0,-9.057679693E0,-2.178736287E0,-1.004566267E-1,9.316573660E0
5.143227958E0,-8.061321162E0,-1.862553363E0,-1.135251537E-1,8.274472301E0
5.153213958E0,-6.914852911E0,-1.701351475E0,-2.346098801E-1,7.124944170E0
5.163198958E0,-5.957006482E0,-1.359649547E0,-4.382289326E-1,6.125897299E0
5.173184958E0,-5.227648190E0,-1.009570314E0,-4.618730262E-1,5.344236570E0
5.183169958E0,-4.731357576E0,-7.129182601E-1,-3.316368225E-1,4.796246442E0
5.193155958E0,-4.210168055E0,-4.195470786E-1,-1.089485380E-1,4.232423016E0
5.203141958E0,-3.616744079E0,-3.387525916E-2,1.420674598E-1,3.619691759E0
5.213126958E0,-2.955982397E0,2.071586645E-1,4.203446388E-1,2.992897636E0
5.223112958E0,-2.391051026E0,3.450196373E-1,5.896937451E-1,2.486745317E0
5.233097958E0,-1.997976047E0,5.023407286E-1,6.448177859E-1,2.158713614E0
5.243083958E0,-1.529300370E0,6.061364079E-1,5.908158258E-1,1.747919994E0
5.253069958E0,-1.181323211E0,6.376031989E-1,4.103982326E-1,1.403741100E0
5.263054958E0,-1.019437491E0,5.997132415E-1,1.940307882E-1,1.198564440E0
5.273040958E0,-8.605174783E-1,5.657771713E-1,-1.198290369E-1,1.036799468E0
5.283025958E0,-5.431709585E-1,5.743298936E-1,-3.816641378E-1,8.778137792E-1
5.293011958E0,-3.203075498E-2,5.372702408E-1,-5.005263376E-1,7.349910854E-1
5.302997958E0,3.790565720E-1,5.885988539E-1,-4.383923623E-1,8.260268512E-1
5.312982958E0,3.944069749E-1,6.767450452E-1,-1.739877024E-1,8.023792362E-1
5.322968958E0,1.352955070E-1,6.487275267E-1,7.359831870E-2,6.667600697E-1
5.332953958E0,-3.303910732E-2,5.586342126E-1,1.775580123E-1,5.871035802E-1
5.342939958E0,-1.657945839E-1,4.899838078E-1,2.187455070E-1,5.616240493E-1
5.352925958E0,-3.052860528E-1,4.112235671E-1,2.178967836E-1,5.565818938E-1
5.362910958E0,-4.019598234E-1,3.878189170E-1,2.083944735E-1,5.961572516E-1
5.372896958E0,-5.960213095E-1,3.570040905E-1,1.976674640E-1,7.223335437E-1
5.382881958E0,-9.837007704E-1,2.041520262E-1,1.329706541E-1,1.013423135E0
5.392867958E0,-1.401858843E0,-2.063190043E-2,5.414843291E-2,1.403055930E0
5.402853958E0,-1.964043777E0,-2.473664582E-1,-4.289663583E-2,1.980024809E0
5.412838958E0,-2.753175523E0,-5.436548156E-1,-8.888937235E-2,2.807745954E0
5.422824958E0,-3.755437110E0,-9.780965066E-1,-1.681972048E-1,3.884362363E0
5.432809958E0,-4.904830723E0,-1.511238028E0,-3.669692078E-1,5.145470941E0
5.442795958E0,-6.345598401E0,-1.959206668E0,-7.335334960E-1,6.681555300E0
5.452781958E0,-8.028590788E0,-2.382809376E0,-1.212734453E0,8.462078670E0
5.462766958E0,-9.701093854E0,-2.954912065E0,-1.629510536E0,1.027122348E1
5.472752958E0,-1.160319135E1,-3.588392392E0,-1.825646907E0,1.228184010E1
5.482738958E0,-1.345957941E1,-4.379028919E0,-1.667964750E0,1.425195701E1
5.492723958E0,-1.485378483E1,-5.091079452E0,-1.018247875E0,1.573501962E1
5.502709958E0,-1.531372916E1,-5.571229413E0,-1.742470264E-1,1.629660271E1
5.512694958E0,-1.466345446E1,-6.030193157E0,8.160043797E-1,1.587595632E1
5.522680958E0,-1.342719168E1,-6.616023354E0,1.763140756E0,1.507215668E1
5.532666958E0,-1.220743560E1,-7.371101793E0,2.301863738E0,1.444483306E1
5.542651958E0,-1.102713302E1,-8.178967141E0,2.760241299E0,1.400400293E1
5.552637958E0,-1.009049210E1,-8.840058605E0,3.140152441E0,1.377770752E1
5.562622958E0,-9.425577731E0,-9.545615805E0,3.379904948E0,1.383416257E1
5.572608958E0,-9.079907298E0,-1.040352513E1,3.657117933E0,1.428469682E1
5.582594958E0,-8.974026502E0,-1.111419806E1,3.944369127E0,1.481946686E1
5.592579958E0,-8.656286464E0,-1.163927803E1,4.263616576E0,1.511894555E1
5.602565958E0,-8.113346763E0,-1.228148006E1,4.929120934E0,1.552280198E1
5.612550958E0,-7.630208291E0,-1.287849364E1,5.915550892E0,1.609563355E1
5.622536958E0,-6.983398066E0,-1.348248997E1,7.105508394E0,1.676405780E1
5.632522958E0,-5.883085982E0,-1.413872532E1,8.053922095E0,1.730259852E1
5.642507958E0,-4.943293415E0,-1.450247710E1,8.426596724E0,1.748615235E1
5.652493958E0,-3.523509348E0,-1.476826580E1,8.011582407E0,1.716689388E1
5.662478958E0,-1.561638688E0,-1.482519663E1,6.994346977E0,1.646651329E1
5.672464958E0,-4.004266834E-1,-1.420351130E1,6.166061983E0,1.548936394E1
5.682450958E0,4.357140452E-1,-1.361032414E1,6.282474200E0,1.499667470E1
5.692435958E0,7.078586644E-1,-1.317583041E1,6.895261815E0,1.488785432E1
5.702421958E0,2.842974722E-1,-1.265197836E1,7.383294407E0,1.465149882E1
5.712406958E0,1.479784101E-1,-1.233519142E1,7.780556577E0,1.458478336E1
5.722392958E0,2.987529588E-1,-1.238245212E1,7.901520267E0,1.469177989E1
5.732378958E0,7.348581827E-1,-1.253556263E1,7.564970321E0,1.465977909E1
5.742363958E0,1.933914537E0,-1.254482930E1,6.997548913E0,1.449408356E1
5.752349958E0,4.180548692E0,-1.235637003E1,6.006048249E0,1.436069230E1
5.762335958E0,7.687426220E0,-1.169030083E1,4.997436878E0,1.485712054E1
5.772320958E0,1.147091330E1,-1.109057180E1,4.712924228E0,1.663713586E1
5.782306958E0,1.527556789E1,-1.025224831E1,5.010380859E0,1.906713104E1
5.792291958E0,1.835188861E1,-8.892449073E0,5.817462096E0,2.120637478E1
5.802277958E0,1.985283379E1,-8.008548871E0,6.890472946E0,2.248889686E1
5.812263958E0,2.121813759E1,-7.202328345E0,7.350181625E0,2.358194365E1
5.822248958E0,2.285638709E1,-6.316326070E0,6.689316448E0,2.463853405E1
5.832234958E0,2.355341261E1,-6.044834585E0,5.411688133E0,2.491163663E1
5.842219958E0,2.346557808E1,-6.289279189E0,3.926125521E0,2.460899935E1
5.852205958E0,2.295194696E1,-6.541683608E0,2.438639468E0,2.399025753E1
5.862191958E0,2.219194224E1,-6.752048886E0,1.437913652E0,2.324091350E1
5.872176958E0,2.144128138E1,-6.809458603E0,9.616289932E-1,2.251714911E1
5.882162958E0,2.042431726E1,-6.548007957E0,9.088277587E-1,2.146753622E1
5.892147958E0,1.886562498E1,-6.218996242E0,1.397496820E0,1.991333015E1
5.902133958E0,1.671800582E1,-6.051076487E0,2.192068231E0,1.791402826E1
5.912119958E0,1.441007472E1,-6.114593037E0,2.931595708E0,1.592585178E1
5.922104958E0,1.256418475E1,-6.457493058E0,3.330024690E0,1.451368387E1
5.932090958E0,1.147314928E1,-6.864355187E0,3.221122052E0,1.375238720E1
5.942075958E0,1.113192448E1,-7.078234057E0,2.861016599E0,1.349839087E1
5.952061958E0,1.094410958E1,-7.308941213E0,2.912198447E0,1.347868895E1
5.962047958E0,1.010264028E1,-7.643273894E0,3.542123959E0,1.315407232E1
5.972032958E0,8.745698578E0,-8.093610072E0,4.510719617E0,1.274128561E1
5.982018958E0,7.612963098E0,-8.467732471E0,5.255155832E0,1.254098733E1
5.992003958E0,7.246906933E0,-8.635418336E0,5.649127189E0,1.260954987E1
6.001989958E0,7.023369632E0,-8.993524627E0,5.889930148E0,1.284143619E1
6.011975958E0,6.628339929E0,-9.543985602E0,6.374905230E0,1.325375298E1
6.021960958E0,5.553555034E0,-1.040694692E1,7.216013169E0,1.382813667E1
6.031946958E0,4.151183390E0,-1.119978376E1,7.781351799E0,1.425541706E1
6.041931958E0,2.892676055E0,-1.184014626E1,8.091741301E0,1.462986382E1
6.051917958E0,2.048604164E0,-1.233306069E1,8.343420081E0,1.503042992E1
6.061903958E0,1.639378005E0,-1.253258757E1,8.349516388E0,1.514819248E1
6.071888958E0,1.251217611E0,-1.282001681E1,8.253809162E0,1.529848823E1
6.081874958E0,9.322332859E-1,-1.340252579E1,8.228757352E0,1.575465658E1
6.091859958E0,2.526266134E-1,-1.398051253E1,8.243610449E0,1.623193347E1
6.101845958E0,-4.136519158E-1,-1.454944427E1,8.327510977E0,1.676916443E1
6.111831958E0,-7.296103066E-1,-1.514731740E1,8.203483347E0,1.724153980E1
6.121816958E0,-1.116070331E0,-1.544972837E1,8.195469153E0,1.752442394E1
6.131802750E0,-1.982107288E0,-1.575940393E1,8.599719331E0,1.806219074E1
6.141788750E0,-3.686905404E0,-1.630557130E1,8.946769706E0,1.896073878E1
6.151773750E0,-5.884110414E0,-1.622876227E1,8.247938558E0,1.913175294E1
6.161759750E0,-7.742446765E0,-1.508244254E1,6.930047486E0,1.831532454E1
6.171744750E0,-9.075801383E0,-1.350907843E1,5.595705857E0,1.720980229E1
6.181730750E0,-1.048705612E1,-1.203018544E1,4.232676619E0,1.651118588E1
6.191716750E0,-1.189169180E1,-1.074643860E1,2.866098998E0,1.628228485E1
6.201701750E0,-1.237467766E1,-9.600724059E0,1.631687747E0,1.574703003E1
6.211687750E0,-1.203739857E1,-8.564602123E0,6.246065927E-1,1.478653128E1
6.221672750E0,-1.163613456E1,-7.553368276E0,-1.466040221E-1,1.387351767E1
6.231658750E0,-1.150787706E1,-6.438457448E0,-5.424882960E-1,1.319769913E1
6.241644750E0,-1.147090278E1,-5.457734957E0,-5.525300118E-1,1.271510011E1
6.251629750E0,-1.138939844E1,-4.896881726E0,-3.802222145E-1,1.240332279E1
6.261615750E0,-1.119345941E1,-4.501887106E0,-7.274249098E-1,1.208675589E1
6.271600750E0,-1.053416947E1,-3.783807508E0,-1.689399473E0,1.131989383E1
6.281586750E0,-9.227664683E0,-3.048536512E0,-2.546518258E0,1.004629910E1
6.291572750E0,-7.856759831E0,-2.612221373E0,-2.848573724E0,8.755954991E0
6.301557750E0,-6.795697766E0,-2.083153607E0,-2.509900654E0,7.537946562E0
6.311543750E0,-5.963360066E0,-1.430924767E0,-1.645924548E0,6.349667439E0
6.321528750E0,-5.239358994E0,-9.318847919E-1,-6.185325050E-1,5.357413032E0
6.331514750E0,-4.704915882E0,-6.179442751E-1,4.487650305E-2,4.745535005E0
6.341500750E0,-4.114083099E0,-3.724202746E-1,4.097106001E-1,4.151173254E0
6.351485750E0,-3.608867294E0,-7.735749364E-2,6.441307381E-1,3.666716752E0
6.361471750E0,-3.461353153E0,1.550751758E-1,7.043570593E-1,3.535694109E0
6.371456750E0,-3.360214157E0,2.168094939E-1,6.145593220E-1,3.422824666E0
6.381442750E0,-3.128914093E0,2.658120847E-1,3.232536694E-1,3.156778801E0
6.391428750E0,-2.655136428E0,3.357050228E-1,6.864923537E-3,2.676283699E0
6.401413750E0,-2.016372264E0,3.844889277E-1,-1.289869460E-1,2.056751438E0
6.411399750E0,-1.219744826E0,3.887404382E-1,-2.440741834E-1,1.303253151E0
6.421385750E0,-2.481922312E-1,4.433025616E-1,-4.515047434E-1,6.796860143E-1
6.431370750E0,4.576738483E-1,6.331341720E-1,-3.356547368E-1,8.502872064E-1
6.441356750E0,5.207306604E-1,8.148925316E-1,9.860832185E-2,9.720770854E-1
6.451341750E0,3.044009306E-1,8.280019891E-1,4.218119976E-1,9.778407753E-1
6.461327750E0,-3.339037880E-2,7.598059130E-1,4.411747599E-1,8.792355268E-1
6.471313750E0,-5.403697036E-1,6.997105694E-1,3.284535983E-1,9.431203867E-1
6.481298750E0,-8.600992562E-1,5.727996773E-1,1.832166553E-1,1.049494423E0
6.491284750E0,-8.491439129E-1,4.827975798E-1,4.226221293E-2,9.777141620E-1
6.501269750E0,-5.835408662E-1,3.570596391E-1,-1.318254769E-3,6.841149510E-1
6.511255750E0,-2.706803302E-1,2.613717091E-1,5.477993220E-2,3.802418342E-1
6.521241750E0,-8.007206351E-2,2.018774593E-1,1.396993375E-1,2.582284818E-1
6.531226750E0,8.066233993E-4,7.581207454E-2,1.168452027E-1,1.392871950E-1
6.541212750E0,-8.735009283E-2,-4.684613764E-2,4.155908525E-3,9.920620396E-2
6.551197750E0,-4.816554724E-1,-1.002557749E-1,-9.323736191E-2,5.007358786E-1
6.561183750E0,-8.430796194E-1,-2.358836961E-1,-1.870626613E-1,8.952188570E-1
6.571169750E0,-1.125414620E0,-3.804502559E-1,-3.268844980E-1,1.232133896E0
6.581154750E0,-1.482295919E0,-5.138796240E-1,-4.503130808E-1,1.632193411E0
6.591140750E0,-2.010503414E0,-7.649438614E-1,-5.528808448E-1,2.221022359E0
6.601125750E0,-2.722096987E0,-1.027533545E0,-6.480214754E-1,2.980867160E0
6.611111750E0,-3.769876517E0,-1.347531778E0,-7.862587166E-1,4.079952649E0
6.621097750E0,-5.240149537E0,-1.818439044E0,-9.774641302E-1,5.632168664E0
6.631082750E0,-7.026443514E0,-2.504604539E0,-1.206367420E0,7.556406203E0
6.641068750E0,-8.903214966E0,-3.163654740E0,-1.525208781E0,9.570904339E0
6.651053750E0,-1.060520730E1,-3.817865785E0,-1.771673598E0,1.140987942E1
6.661039750E0,-1.187762574E1,-4.458453988E0,-1.798647681E0,1.281370121E1
6.671025750E0,-1.267153378E1,-5.121446967E0,-1.591751557E0,1.375974784E1
6.681010750E0,-1.324400543E1,-5.904474512E0,-1.305477433E0,1.455921600E1
6.690996750E0,-1.364582960E1,-6.758087305E0,-9.511078057E-1,1.525729385E1
6.700981750E0,-1.366184162E1,-7.611222966E0,-4.650463101E-1,1.564585886E1
6.710967750E0,-1.339741649E1,-8.448499224E0,1.340822098E-1,1.583937770E1
6.720953750E0,-1.282115351E1,-9.309430393E0,1.003939446E0,1.587625163E1
6.730938750E0,-1.217407724E1,-1.002978982E1,1.946772272E0,1.589323009E1
6.740924750E0,-1.176428682E1,-1.072520269E1,2.879585601E0,1.617777581E1
6.750910750E0,-1.142331813E1,-1.164945452E1,3.879112738E0,1.677049503E1
6.760895750E0,-1.108742717E1,-1.266445515E1,4.633056525E0,1.745808346E1
6.770881750E0,-1.068302204E1,-1.337091925E1,5.174195284E0,1.787961796E1
6.780866750E0,-1.018651391E1,-1.394065791E1,5.778250083E0,1.820700916E1
6.790852750E0,-9.277005243E0,-1.470191861E1,6.608448286E0,1.859787154E1
6.800838750E0,-8.136225749E0,-1.527561233E1,7.447039583E0,1.884146756E1
6.810823750E0,-7.278726895E0,-1.540569416E1,8.128852994E0,1.887838788E1
6.820809750E0,-6.491985199E0,-1.565321499E1,8.859564332E0,1.912226167E1
6.830794750E0,-6.001220203E0,-1.608409280E1,9.695535491E0,1.971588430E1
6.840780750E0,-5.695005612E0,-1.659588789E1,1.048153050E1,2.043817667E1
6.850766750E0,-4.400109885E0,-1.720215294E1,1.071237506E1,2.073716500E1
6.860751750E0,-2.388934919E0,-1.753629208E1,1.081824943E1,2.074278358E1
6.870737750E0,2.965011960E-1,-1.709578156E1,1.042943415E1,2.002814911E1
6.880722750E0,4.910778219E0,-1.578318690E1,8.829895560E0,1.874011171E1
6.890708750E0,1.018407211E1,-1.357747799E1,6.768217607E0,1.827216470E1
6.900694750E0,1.310565680E1,-1.111904891E1,6.148260720E0,1.825356400E1
6.910679750E0,1.227129655E1,-9.689440354E0,8.171123101E0,1.764191674E1
6.920665750E0,9.057628822E0,-1.010178776E1,1.107954980E1,1.751693979E1
6.930650750E0,7.494135981E0,-1.126153152E1,1.136860223E1,1.767001084E1
6.940636750E0,9.633300651E0,-1.132409205E1,8.444571065E0,1.709813799E1
6.950622750E0,1.347746020E1,-1.099715318E1,5.410890573E0,1.821694398E1
6.960607750E0,1.733212485E1,-1.046874498E1,3.639044482E0,2.057279315E1
6.970593750E0,2.052318432E1,-9.030149832E0,3.201003245E0,2.264930733E1
6.980578750E0,2.252197079E1,-7.640456121E0,3.676798784E0,2.406521530E1
6.990564750E0,2.361908386E1,-7.058917780E0,4.207602589E0,2.500786601E1
7.000550750E0,2.512645396E1,-6.824728607E0,4.168251413E0,2.636835089E1
7.010535750E0,2.680611109E1,-6.769926748E0,3.761769060E0,2.790251613E1
7.020521750E0,2.782784420E1,-6.914338356E0,3.341270347E0,2.886799396E1
7.030506750E0,2.787230877E1,-6.959726198E0,2.989435780E0,2.888321504E1
7.040492750E0,2.646541956E1,-6.813839337E0,2.844517803E0,2.747613730E1
7.050478750E0,2.374374182E1,-6.663195181E0,2.926223578E0,2.483397331E1
7.060463750E0,2.028585285E1,-6.887011979E0,3.202077379E0,2.166102628E1
7.070449750E0,1.678570956E1,-7.265447284E0,3.533875292E0,1.862887663E1
7.080435750E0,1.376586124E1,-7.477362658E0,4.004291977E0,1.616923753E1
7.090420750E0,1.158118711E1,-7.562786386E0,4.524430169E0,1.455301004E1
7.100406750E0,9.997839464E0,-7.807226897E0,5.040488173E0,1.364976581E1
7.110391750E0,8.575985482E0,-8.188671180E0,5.572723961E0,1.310179816E1
7.120377750E0,7.839929205E0,-8.316596564E0,6.351557883E0,1.307564744E1
7.130363833E0,7.313582148E0,-8.272708533E0,7.174551147E0,1.316815760E1
7.140348833E0,6.485060341E0,-8.434316218E0,8.178335057E0,1.341934656E1
7.150334833E0,5.463839450E0,-8.749198136E0,9.179328091E0,1.380804381E1
7.160319833E0,4.435964427E0,-9.114167304E0,9.796530354E0,1.409673129E1
7.170305833E0,3.677489925E0,-9.496260628E0,9.958690016E0,1.424353906E1
7.180291833E0,2.941725424E0,-1.000873867E1,9.914303802E0,1.439173437E1
7.190276833E0,2.038465676E0,-1.045456899E1,9.906445144E0,1.454616824E1
7.200262833E0,1.168970675E0,-1.083076832E1,9.904729571E0,1.472330475E1
7.210247833E0,2.847038537E-1,-1.121658047E1,9.811639559E0,1.490506641E1
7.220233833E0,-3.255402231E-1,-1.179055368E1,9.676676466E0,1.525651336E1
7.230219833E0,-9.263387078E-1,-1.237565415E1,9.442172713E0,1.559389446E1
7.240204833E0,-1.702168915E0,-1.300663538E1,9.085335853E0,1.595660585E1
7.250190833E0,-2.508562519E0,-1.355655899E1,8.521302906E0,1.620758405E1
7.260175833E0,-3.217990576E0,-1.366151183E1,7.871920491E0,1.609221865E1
7.270161833E0,-4.108802771E0,-1.371398007E1,7.350382769E0,1.609296854E1
7.280147833E0,-4.852915049E0,-1.349000598E1,6.774971725E0,1.585658500E1
7.290132833E0,-5.349181398E0,-1.316606556E1,6.108026029E0,1.546825801E1
7.300118833E0,-6.089321371E0,-1.284078027E1,5.315192703E0,1.517289512E1
7.310103833E0,-6.632808371E0,-1.237132136E1,4.278213565E0,1.467470103E1
7.320089833E0,-7.075682332E0,-1.178179338E1,3.116679671E0,1.409218322E1
7.330075833E0,-7.790069997E0,-1.127356977E1,2.133281786E0,1.386828963E1
7.340060833E0,-8.504037248E0,-1.069417385E1,1.496452759E0,1.374493997E1
7.350046833E0,-9.395359905E0,-9.796133328E0,9.606279498E-1,1.360734441E1
7.360032833E0,-1.032793350E1,-8.846154327E0,4.626369649E-1,1.360642090E1
7.370017833E0,-1.104150899E1,-7.771689860E0,-3.354044759E-1,1.350653842E1
7.380003833E0,-1.161811579E1,-6.751596311E0,-1.212276324E0,1.349200804E1
7.389988833E0,-1.186867015E1,-5.865825001E0,-1.897782837E0,1.337440891E1
7.399974833E0,-1.174064536E1,-5.092804965E0,-2.171717874E0,1.298059222E1
7.409960833E0,-1.105023303E1,-4.256253762E0,-1.820344067E0,1.198069275E1
7.419945833E0,-9.908854197E0,-3.366851331E0,-1.134918830E0,1.052659110E1
7.429931833E0,-8.669640335E0,-2.582837945E0,-6.205100334E-1,9.067455437E0
7.439916833E0,-7.525539622E0,-1.936338208E0,-3.856741583E-1,7.780224728E0
7.449902833E0,-6.378407128E0,-1.513354720E0,-4.443229008E-1,6.570520743E0
7.459888833E0,-5.556462854E0,-1.204970813E0,-5.352947590E-1,5.710759546E0
7.469873833E0,-4.973874353E0,-9.009828418E-1,-4.015587044E-1,5.070744083E0
7.479859833E0,-4.612923684E0,-5.726920885E-1,-8.878266066E-2,4.649185252E0
7.489844833E0,-4.334452963E0,-2.799734563E-1,2.328428516E-1,4.349722223E0
7.499830833E0,-4.164537846E0,-3.547505736E-2,4.574525312E-1,4.189737076E0
7.509816833E0,-3.911061047E0,1.447425610E-1,6.185509238E-1,3.962316768E0
7.519801833E0,-3.502135436E0,3.254425746E-1,6.793049562E-1,3.582222872E0
7.529787833E0,-3.030358396E0,4.639192593E-1,7.099852967E-1,3.146803491E0
7.539772833E0,-2.428908385E0,4.939973366E-1,6.461310706E-1,2.561467289E0
7.549758833E0,-1.692092701E0,5.110641897E-1,4.969069111E-1,1.836104788E0
7.559744833E0,-9.105730064E-1,5.486150086E-1,3.723626795E-1,1.126399393E0
7.569729833E0,-6.719773717E-1,6.391252291E-1,3.811183003E-1,1.002639419E0
7.579715833E0,-6.879744767E-1,6.963033968E-1,4.276659375E-1,1.068197292E0
7.589700833E0,-4.745206998E-1,5.928731686E-1,3.184346867E-1,8.234495360E-1
7.599686833E0,-4.542978121E-1,6.003453255E-1,3.456961602E-2,7.536551402E-1
7.609672833E0,-4.842114365E-1,5.791924381E-1,-2.435081729E-1,7.932344079E-1
7.619657833E0,-5.021922094E-1,4.891599351E-1,-3.794208536E-1,7.971415441E-1
7.629643833E0,-5.868824038E-1,3.844555986E-1,-3.913962436E-1,8.033853886E-1
7.639628833E0,-6.243437603E-1,2.665213519E-1,-3.967411834E-1,7.862838728E-1
7.649614833E0,-6.023478507E-1,1.163812262E-1,-3.754497170E-1,7.192565697E-1
7.659600833E0,-7.289045477E-1,3.837352216E-2,-3.001343635E-1,7.892116338E-1
7.669585833E0,-9.218477538E-1,-5.902179480E-3,-2.525611246E-1,9.558374541E-1
7.679571833E0,-9.758077602E-1,-1.161882681E-1,-2.815902114E-1,1.022249258E0
7.689557833E0,-1.031434369E0,-2.051372820E-1,-3.671349764E-1,1.113878922E0
7.699542833E0,-1.200761841E0,-3.230709440E-1,-3.864810741E-1,1.302141104E0
7.709528833E0,-1.500618023E0,-5.289847362E-1,-4.117015770E-1,1.643525932E0
7.719513833E0,-1.941875667E0,-8.053358424E-1,-5.381052232E-1,2.170023999E0
7.729499833E0,-2.565960834E0,-1.166927658E0,-7.094672334E-1,2.906754018E0
7.739485833E0,-3.442432441E0,-1.505536408E0,-8.413546908E-1,3.850306313E0
7.749470833E0,-4.464827453E0,-1.938048518E0,-9.804564428E-1,4.965079161E0
7.759456833E0,-5.724405413E0,-2.448533249E0,-1.199199903E0,6.340521493E0
7.769441833E0,-7.161907713E0,-2.895932955E0,-1.494070019E0,7.868392147E0
7.779427833E0,-8.432407687E0,-3.257615402E0,-1.634557561E0,9.186366851E0
7.789413833E0,-9.453170156E0,-3.766892098E0,-1.551679126E0,1.029366845E1
7.799398833E0,-1.024273606E1,-4.325409951E0,-1.291435930E0,1.119332926E1
7.809384833E0,-1.077111619E1,-4.773970914E0,-8.865568838E-1,1.181497886E1
7.819369833E0,-1.094320794E1,-5.187987111E0,-3.434139919E-1,1.211556616E1
7.829355833E0,-1.061693330E1,-5.743411202E0,1.341506222E-1,1.207162132E1
7.839341833E0,-1.023832492E1,-6.291847871E0,4.314113715E-1,1.202483940E1
7.849326833E0,-9.971831049E0,-6.872445980E0,6.471034625E-1,1.212792938E1
7.859312833E0,-9.884210522E0,-7.445944399E0,9.673616034E-1,1.241271502E1
7.869297833E0,-9.825213286E0,-8.011225727E0,1.335597026E0,1.274748497E1
7.879283833E0,-9.729634699E0,-8.625582735E0,1.750560618E0,1.311986781E1
7.889269833E0,-9.668785064E0,-9.197586021E0,2.151665286E0,1.351705059E1
7.899254833E0,-9.481542016E0,-9.856748489E0,2.672344784E0,1.393544246E1
7.909240833E0,-9.079238377E0,-1.056164905E1,3.542107587E0,1.437106559E1
7.919225833E0,-8.663891938E0,-1.120893699E1,4.610480425E0,1.489831607E1
7.929211833E0,-8.206277146E0,-1.175785138E1,5.870558907E0,1.549366049E1
7.939197833E0,-7.693866928E0,-1.195689644E1,7.203417681E0,1.593901462E1
7.949182833E0,-6.990517051E0,-1.207835013E1,8.326743822E0,1.625080100E1
7.959168833E0,-6.537574770E0,-1.232511900E1,9.200188032E0,1.671202867E1
7.969153833E0,-6.578246832E0,-1.258109139E1,9.396495434E0,1.702502037E1
7.979139833E0,-6.325227871E0,-1.312158579E1,9.178300735E0,1.721701849E1
7.989125833E0,-5.752377908E0,-1.398257309E1,9.043324193E0,1.761771592E1
7.999110833E0,-4.849620436E0,-1.469431957E1,8.693896340E0,1.774896277E1
8.009096833E0,-3.404586337E0,-1.515700974E1,8.545543708E0,1.772998787E1
8.019081833E0,-8.456746137E-1,-1.512407472E1,8.462607386E0,1.735132633E1
8.029067833E0,3.108640627E0,-1.425298342E1,7.577595629E0,1.643870854E1
8.039053833E0,8.788470960E0,-1.243257562E1,5.141848487E0,1.606999578E1
8.049038833E0,1.398822384E1,-1.039365620E1,3.110819884E0,1.770242062E1
8.059024833E0,1.529017657E1,-8.790863056E0,3.987918019E0,1.808237437E1
8.069010833E0,1.273185600E1,-8.238218731E0,7.310137553E0,1.683468194E1
8.078995833E0,1.037424462E1,-8.461147921E0,9.912673599E0,1.665764309E1
8.088981833E0,1.146566718E1,-8.537863975E0,9.186551156E0,1.699262685E1
8.098966833E0,1.430431028E1,-8.347213170E0,6.212331001E0,1.768847978E1
8.108952833E0,1.758089464E1,-8.222285069E0,3.756839857E0,1.976885616E1
8.118938833E0,2.079711702E1,-7.825876592E0,1.952330050E0,2.230641193E1
8.128923833E0,2.235402238E1,-7.026049996E0,9.072417015E-1,2.344975016E1
8.138910333E0,2.225163062E1,-6.503249860E0,7.283376601E-1,2.319391730E1
8.148895333E0,2.157557555E1,-6.387141699E0,7.885245126E-1,2.251494637E1
8.158881333E0,2.126779683E1,-6.336569715E0,5.843619615E-1,2.219938685E1
8.168867333E0,2.136131719E1,-6.263243877E0,3.403982905E-1,2.226319759E1
8.178852333E0,2.149456588E1,-6.154248269E0,3.845383367E-1,2.236155191E1
8.188838333E0,2.118821154E1,-5.882083769E0,6.623032996E-1,2.199949689E1
8.198823333E0,1.998236833E1,-5.734875437E0,1.029853136E0,2.081452468E1
8.208809333E0,1.814014222E1,-5.592648933E0,1.431858275E0,1.903661472E1
8.218795333E0,1.582358999E1,-5.625880414E0,1.849140727E0,1.689543879E1
8.228780333E0,1.329806294E1,-5.895741695E0,2.232781809E0,1.471677827E1
8.238766333E0,1.110712059E1,-6.078634415E0,2.537573772E0,1.291345054E1
8.248751333E0,9.518271301E0,-6.363085084E0,2.968810604E0,1.182794051E1
8.258737333E0,8.478498949E0,-6.709154881E0,3.420471468E0,1.134007622E1
8.268723333E0,7.789811550E0,-6.839896284E0,3.915730926E0,1.108143916E1
8.278708333E0,7.216114910E0,-6.933645278E0,4.541460769E0,1.098965956E1
8.288694333E0,6.489574977E0,-7.004703566E0,5.272489318E0,1.090777700E1
8.298679333E0,5.739460239E0,-7.292929198E0,6.038114380E0,1.107190342E1
8.308665333E0,5.250309075E0,-7.736071545E0,6.704047923E0,1.150464284E1
8.318651333E0,5.243302356E0,-8.256454443E0,7.246097678E0,1.217239463E1
8.328636333E0,5.266554394E0,-8.628879980E0,7.734817318E0,1.272876914E1
8.338622333E0,4.984821510E0,-9.058383113E0,8.414537426E0,1.333068604E1
8.348607333E0,4.531933023E0,-9.735534539E0,9.026933863E0,1.402870574E1
8.358593333E0,3.855054662E0,-1.051826738E1,9.107301503E0,1.443739367E1
8.368579333E0,3.003793618E0,-1.130628611E1,8.896899973E0,1.469726882E1
8.378564333E0,2.112524171E0,-1.198153661E1,8.653916588E0,1.493017918E1
8.388550333E0,1.012383994E0,-1.261287686E1,8.583506756E0,1.529006776E1
8.398536333E0,2.530060977E-1,-1.300064783E1,8.353554475E0,1.545518451E1
8.408521333E0,6.367249471E-1,-1.323931246E1,7.807568375E0,1.538320308E1
8.418507333E0,7.653981900E-1,-1.370622900E1,7.504569168E0,1.564497064E1
8.428492333E0,1.314676273E-1,-1.420843583E1,7.694304299E0,1.615856587E1
8.438478333E0,-5.767281291E-1,-1.480738835E1,7.999290390E0,1.683983408E1
8.448464333E0,-2.041492195E0,-1.511985186E1,7.918859600E0,1.718970471E1
8.458449333E0,-3.596312153E0,-1.477368967E1,7.260456101E0,1.684961692E1
8.468435333E0,-4.978735728E0,-1.427891232E1,6.534974513E0,1.647364678E1
8.478420333E0,-6.330946448E0,-1.351970282E1,5.566114268E0,1.593251001E1
8.488406333E0,-7.626067293E0,-1.256887071E1,4.637634895E0,1.541561127E1
8.498392333E0,-8.685866944E0,-1.156937340E1,3.736419919E0,1.494173749E1
8.508377333E0,-9.325296813E0,-1.065922972E1,2.769469374E0,1.443088007E1
8.518363333E0,-9.585991414E0,-9.677985073E0,1.609274493E0,1.371657358E1
8.528348333E0,-9.634737897E0,-8.957446722E0,6.830334333E-1,1.317309989E1
8.538334333E0,-9.704225623E0,-8.488424013E0,-3.106926808E-1,1.289658354E1
8.548320333E0,-1.034548216E1,-7.685501316E0,-1.186501505E0,1.294232272E1
8.558305333E0,-1.114878317E1,-6.786654462E0,-1.662168405E0,1.315738761E1
8.568291333E0,-1.185822585E1,-6.036720988E0,-2.109702597E0,1.347257828E1
8.578276333E0,-1.236184419E1,-5.483259807E0,-2.656963975E0,1.378190072E1
8.588262333E0,-1.243400819E1,-4.863004128E0,-3.041981199E0,1.369332021E1
8.598248333E0,-1.211147344E1,-4.271005118E0,-2.506235912E0,1.308474272E1
8.608233333E0,-1.118621705E1,-3.663265404E0,-1.103558166E0,1.182238580E1
8.618219333E0,-9.946673988E0,-2.724089718E0,5.209781438E-2,1.031308404E1
8.628204333E0,-8.553178418E0,-1.840837973E0,7.375742143E-1,8.780066128E0
8.638190333E0,-7.112346713E0,-1.351344747E0,1.114510294E0,7.324871438E0
8.648176333E0,-5.763570063E0,-9.912515724E-1,1.248898313E0,5.980055731E0
8.658161333E0,-4.384264808E0,-6.206538749E-1,1.210658692E0,4.590499276E0
8.668147333E0,-3.197591395E0,-2.434833223E-1,1.001990569E0,3.359741055E0
8.678133333E0,-2.386540484E0,1.678940266E-1,8.760307261E-1,2.547782118E0
8.688118333E0,-1.787825947E0,5.530466133E-1,9.132190177E-1,2.082342706E0
8.698104333E0,-1.286274008E0,7.168312168E-1,1.073226027E0,1.822131148E0
8.708089333E0,-9.034696627E-1,8.742446941E-1,1.151593628E0,1.704913224E0
8.718075333E0,-6.394819093E-1,1.065901220E0,1.167162863E0,1.705095795E0
8.728061333E0,-2.993698400E-1,1.139708869E0,1.238123356E0,1.709241953E0
8.738046333E0,-2.309650183E-3,1.091110906E0,1.192195816E0,1.616124750E0
8.748032333E0,1.453154419E-1,1.094873589E0,9.896912429E-1,1.483021750E0
8.758017333E0,1.152044740E-1,1.155050794E0,7.475381622E-1,1.380662055E0
8.768003333E0,1.391590548E-1,1.161584473E0,6.217119285E-1,1.324828084E0
8.777989333E0,3.187881508E-1,1.074773785E0,6.425704086E-1,1.292153747E0
8.787974333E0,3.631967305E-1,1.018404288E0,5.943589461E-1,1.233824021E0
8.797960333E0,3.981836915E-1,9.301405674E-1,3.846462178E-1,1.082434497E0
8.807945333E0,4.218371406E-1,7.197489774E-1,1.187554881E-1,8.426672117E-1
8.817931333E0,4.192105713E-1,5.060624814E-1,-1.244076991E-1,6.688153810E-1
8.827917333E0,3.493455537E-1,3.709865373E-1,-3.102602792E-1,5.966026882E-1
8.837902333E0,2.529180971E-1,2.635398567E-1,-3.595616627E-1,5.125479579E-1
8.847888333E0,7.955341548E-2,1.753468877E-1,-3.411242223E-1,3.917154732E-1
8.857873333E0,-4.289561257E-2,6.520171702E-2,-2.954387569E-1,3.055738153E-1
8.867859333E0,-1.670999748E-1,-8.573713839E-2,-2.491545367E-1,3.120116050E-1
8.877845333E0,-4.244043607E-1,-1.735570550E-1,-2.226733741E-1,5.097298738E-1
8.887830333E0,-7.454451513E-1,-2.989710599E-1,-2.057252195E-1,8.290928985E-1
8.897816333E0,-1.088296787E0,-4.475049555E-1,-1.810806674E-1,1.190563224E0
8.907801333E0,-1.498579537E0,-5.383753645E-1,-2.640272221E-1,1.614093875E0
8.917787333E0,-1.975772707E0,-6.283809704E-1,-4.065358543E-1,2.112773494E0
8.927773333E0,-2.438942500E0,-8.256724584E-1,-5.280538595E-1,2.628500790E0
8.937758333E0,-2.918235989E0,-1.014499517E0,-5.999199405E-1,3.147255073E0
8.947744333E0,-3.425897392E0,-1.228435104E0,-6.138959554E-1,3.690893386E0
8.957729333E0,-4.032487251E0,-1.581042089E0,-5.917420247E-1,4.371590802E0
8.967715333E0,-4.756010022E0,-1.932963195E0,-5.583485761E-1,5.164080864E0
8.977701333E0,-5.683721071E0,-2.318135077E0,-4.880659211E-1,6.157649210E0
8.987686333E0,-6.947191522E0,-2.820232562E0,-4.316800511E-1,7.510228320E0
8.997672333E0,-8.474925131E0,-3.417014009E0,-4.624153554E-1,9.149544725E0
9.007657333E0,-1.028187615E1,-4.016132004E0,-6.796996433E-1,1.105930762E1
9.017643333E0,-1.169672575E1,-4.676807147E0,-9.279268116E-1,1.263119023E1
9.027629333E0,-1.219194282E1,-5.447101795E0,-9.717116395E-1,1.338874942E1
9.037614333E0,-1.207497512E1,-6.070187527E0,-7.263718262E-1,1.353439384E1
9.047600333E0,-1.163241574E1,-6.620692356E0,-2.801029721E-1,1.338749868E1
9.057585333E0,-1.119516212E1,-7.293302835E0,1.373168895E-1,1.336199001E1
9.067571333E0,-1.096631028E1,-8.036720172E0,5.021518636E-1,1.360518243E1
9.077557333E0,-1.092063300E1,-8.820324252E0,7.466159101E-1,1.405758800E1
9.087542333E0,-1.119755012E1,-9.748572076E0,9.181814034E-1,1.487490650E1
9.097528333E0,-1.117685215E1,-1.087305889E1,1.191597061E0,1.563858488E1
9.107514333E0,-1.080846119E1,-1.208472359E1,1.451352746E0,1.627789306E1
9.117499333E0,-1.033956127E1,-1.314377597E1,1.534176071E0,1.679342342E1
9.127485333E0,-9.562696692E0,-1.415348253E1,2.003903808E0,1.719830998E1
9.137470125E0,-9.229738106E0,-1.499470975E1,2.775161054E0,1.782500785E1
9.147456125E0,-9.150756256E0,-1.563914074E1,3.332957361E0,1.842356284E1
9.157442125E0,-8.738375525E0,-1.622738701E1,4.084760774E0,1.887783267E1
9.167427125E0,-8.427229977E0,-1.666473886E1,4.905769494E0,1.930798541E1
9.177413125E0,-8.477127192E0,-1.708194003E1,5.631038243E0,1.988373588E1
9.187398125E0,-8.617325882E0,-1.742927751E1,6.588442622E0,2.052914017E1
9.197384125E0,-8.671239549E0,-1.784851000E1,7.605692085E0,2.125102955E1
9.207370125E0,-8.111956295E0,-1.876947804E1,8.670868835E0,2.220993263E1
9.217355125E0,-6.587350947E0,-2.021354618E1,9.357444804E0,2.322805233E1
9.227341125E0,-2.514536034E0,-2.140828671E1,9.092599849E0,2.339472170E1
9.237326125E0,4.594530391E0,-2.068765246E1,8.515451013E0,2.283859846E1
9.247312125E0,1.286341251E1,-1.750918672E1,7.920377537E0,2.312512446E1
9.257298125E0,1.968184249E1,-1.309997331E1,7.340312110E0,2.475609837E1
9.267283125E0,2.254160574E1,-9.609349287E0,7.752960058E0,2.570159475E1
9.277269125E0,1.984657025E1,-8.697425719E0,9.753386089E0,2.376257783E1
9.287254125E0,1.622229057E1,-9.124467759E0,1.116355441E1,2.170353820E1
9.297240125E0,1.588727435E1,-8.933218199E0,1.009250004E1,2.083426098E1
9.307226125E0,1.791472037E1,-8.734625705E0,7.202696135E0,2.119220903E1
9.317211125E0,2.041512076E1,-8.447950171E0,4.428084719E0,2.253337418E1
9.327197125E0,2.193519802E1,-7.444855063E0,2.720204244E0,2.332334218E1
9.337182125E0,2.198501630E1,-6.830198092E0,2.371879760E0,2.314343020E1
9.347168125E0,2.170038086E1,-6.583164926E0,2.626675398E0,2.282857887E1
9.357154125E0,2.223561393E1,-5.774386243E0,2.886332411E0,2.315376812E1
9.367139125E0,2.293650563E1,-5.068130300E0,3.442784151E0,2.374072447E1
9.377125125E0,2.323077261E1,-4.723288710E0,4.250391929E0,2.408410438E1
9.387111125E0,2.264451440E1,-4.624079880E0,4.679108026E0,2.358071667E1
9.397096125E0,2.128796504E1,-4.712115558E0,4.452701497E0,2.225327031E1
9.407082125E0,1.921466166E1,-4.906650084E0,3.866395921E0,2.020463944E1
9.417067125E0,1.661021825E1,-5.224369072E0,3.404221471E0,1.774209983E1
9.427053125E0,1.388739562E1,-5.820443591E0,3.402693009E0,1.543747520E1
9.437039125E0,1.185957305E1,-6.206255159E0,3.243175996E0,1.377262744E1
9.447024125E0,1.070085020E1,-6.543127286E0,3.066838882E0,1.291225040E1
9.457010125E0,1.030118015E1,-7.074082534E0,3.143491786E0,1.288559260E1
9.466995125E0,1.006178461E1,-7.694484978E0,3.495132810E0,1.314003661E1
9.476981125E0,9.813912957E0,-8.078885028E0,4.292605025E0,1.341669589E1
9.486967125E0,9.781255088E0,-8.218280895E0,5.256969638E0,1.381480444E1
9.496952125E0,9.460651669E0,-8.496305475E0,6.418496223E0,1.424388397E1
9.506938125E0,8.525710537E0,-9.165986499E0,7.753760542E0,1.472493977E1
9.516923125E0,6.956057655E0,-1.019019532E1,8.751385580E0,1.512658482E1
9.526909125E0,5.101315588E0,-1.101127303E1,9.043025401E0,1.513432730E1
9.536895125E0,3.540330033E0,-1.166091974E1,9.041637272E0,1.517439259E1
9.546880125E0,2.638412806E0,-1.234311088E1,9.042260585E0,1.552662503E1
9.556866125E0,2.393598073E0,-1.305791078E1,8.813040960E0,1.593449204E1
9.566851125E0,2.470833360E0,-1.366315841E1,8.602440040E0,1.633367350E1
9.576837125E0,2.026824455E0,-1.446117471E1,8.940007986E0,1.712183793E1
9.586823125E0,5.573156655E-1,-1.537542897E1,9.554479015E0,1.811083891E1
9.596808125E0,-1.038622790E0,-1.606087702E1,9.770331320E0,1.882790169E1
9.606794125E0,-2.112213684E0,-1.670439116E1,9.454627283E0,1.931031092E1
9.616779125E0,-3.517366848E0,-1.766822748E1,8.960930493E0,2.012054689E1
9.626765125E0,-5.562587228E0,-1.821693488E1,8.003629024E0,2.066052203E1
9.636751125E0,-7.506362509E0,-1.768546741E1,6.690936127E0,2.034428327E1
9.646736125E0,-8.928626965E0,-1.638827431E1,5.355533813E0,1.941591247E1
9.656722125E0,-9.884504052E0,-1.510511220E1,4.119108196E0,1.851580101E1
9.666707125E0,-1.041120721E1,-1.381359090E1,2.807473353E0,1.752399599E1
9.676693125E0,-1.091291585E1,-1.224287674E1,1.446392699E0,1.646425872E1
9.686679125E0,-1.160553842E1,-1.077284697E1,5.402464736E-1,1.584407208E1
9.696664125E0,-1.218099683E1,-9.487065881E0,2.162446529E-2,1.543961044E1
9.706650125E0,-1.252217836E1,-8.291585099E0,-5.366057047E-1,1.502808304E1
9.716635125E0,-1.281611789E1,-7.792029984E0,-1.029900791E0,1.503427100E1
9.726621125E0,-1.320665459E1,-7.011617898E0,-2.086182172E0,1.509737285E1
9.736607125E0,-1.279659286E1,-5.682765636E0,-2.983658439E0,1.431603408E1
9.746592125E0,-1.144559603E1,-4.712633037E0,-2.871960540E0,1.270664141E1
9.756578125E0,-1.010154451E1,-3.942345405E0,-2.316949847E0,1.108835179E1
9.766564125E0,-8.875679843E0,-3.198522272E0,-1.665626156E0,9.580320866E0
9.776549125E0,-7.689607816E0,-2.541132680E0,-1.380319455E0,8.215394419E0
9.786535125E0,-6.627153529E0,-2.047158147E0,-1.375408963E0,7.071192982E0
9.796520125E0,-5.880731308E0,-1.715127515E0,-1.365108216E0,6.276000601E0
9.806506125E0,-5.532810867E0,-1.294430873E0,-1.112657896E0,5.790125643E0
9.816492125E0,-5.279662682E0,-8.190949255E-1,-7.607297730E-1,5.396708656E0
9.826477125E0,-4.902774550E0,-4.755610657E-1,-4.377655408E-1,4.945199216E0
9.836463125E0,-4.371209437E0,-2.013401002E-1,-1.605584022E-1,4.378788506E0
9.846448125E0,-3.732122215E0,-4.159358382E-2,9.970818311E-2,3.733685575E0
9.856434125E0,-3.145978607E0,4.572464168E-2,4.035856417E-1,3.172089770E0
9.866420125E0,-2.694731433E0,1.748364258E-1,7.084927949E-1,2.791792849E0
9.876405125E0,-2.369790404E0,3.480613589E-1,1.004348751E0,2.597261958E0
9.886391125E0,-2.240315946E0,4.132946509E-1,1.046010455E0,2.506783971E0
9.896376125E0,-2.069325965E0,4.508752906E-1,6.206641075E-1,2.206948665E0
9.906362125E0,-1.704917107E0,4.816351533E-1,1.516487074E-1,1.778120382E0
9.916348125E0,-1.272733026E0,5.722909695E-1,-1.391391742E-1,1.402400092E0
9.926333125E0,-9.229101198E-1,6.704253745E-1,-2.310252446E-1,1.163875395E0
9.936319125E0,-6.695346974E-1,7.305499542E-1,-1.307326323E-1,9.995353759E-1
9.946304125E0,-3.830540941E-1,7.316796362E-1,5.628822148E-2,8.278006360E-1
9.956290125E0,-2.179922394E-1,6.623030072E-1,1.991202047E-1,7.251308474E-1
9.966276125E0,-2.072778746E-1,5.885643554E-1,3.075422010E-1,6.956682565E-1
9.976261125E0,-2.729532161E-1,6.015200311E-1,2.608112535E-1,7.101776650E-1
9.986247125E0,-3.140128760E-1,5.126844531E-1,1.791022620E-1,6.273173479E-1
9.996232125E0,-4.696558895E-1,3.001229614E-1,4.283114702E-2,5.590035364E-1
1.000621812E1,-7.604278374E-1,1.129448175E-1,-8.978370398E-2,7.739949233E-1
1.001620412E1,-1.078666569E0,-1.175056458E-1,-2.579537192E-1,1.115288871E0
1.002618912E1,-1.417260994E0,-3.595710182E-1,-4.373398635E-1,1.526167159E0
1.003617512E1,-1.818749239E0,-5.454820704E-1,-6.218423215E-1,1.998020860E0
1.004616012E1,-2.306961633E0,-8.016105813E-1,-8.256783056E-1,2.578060543E0
1.005614612E1,-3.052500632E0,-1.174675804E0,-9.908621478E-1,3.417518273E0
1.006613212E1,-4.044130227E0,-1.536158277E0,-1.091213525E0,4.461560097E0
1.007611712E1,-5.136051557E0,-1.867360944E0,-1.166931167E0,5.588183143E0
1.008610313E1,-6.157112820E0,-2.243446253E0,-1.233625385E0,6.668202228E0
1.009608912E1,-7.141639509E0,-2.632686043E0,-1.335400267E0,7.727699823E0
1.010607412E1,-7.922609419E0,-3.035994819E0,-1.444843479E0,8.606542699E0
1.011606013E1,-8.390648627E0,-3.374860847E0,-1.531096635E0,9.172618329E0
1.012604513E1,-8.578660583E0,-3.604504979E0,-1.409309658E0,9.411271288E0
1.013603058E1,-8.421747628E0,-3.803224357E0,-8.230233774E-1,9.277268784E0
1.014601658E1,-8.280712202E0,-4.029761279E0,3.106406406E-2,9.209241853E0
1.015600158E1,-8.247140413E0,-4.337231267E0,7.481348705E-1,9.348080329E0
1.016598758E1,-8.079849234E0,-4.687081289E0,1.343428202E0,9.437027816E0
1.017597258E1,-8.140430481E0,-5.162687379E0,1.743296768E0,9.795868160E0
1.018595858E1,-8.504973972E0,-5.670895788E0,1.998365471E0,1.041571437E1
1.019594458E1,-8.802117192E0,-6.300904623E0,2.203268280E0,1.104685735E1
1.020592958E1,-9.182793735E0,-7.034709138E0,2.264154167E0,1.178716368E1
1.021591558E1,-9.807927162E0,-7.863636741E0,2.389275519E0,1.279612658E1
1.022590058E1,-1.037841953E1,-8.855902805E0,2.597762378E0,1.388837556E1
1.023588658E1,-1.089363056E1,-9.700383418E0,2.717037392E0,1.483748353E1
1.024587258E1,-1.112444940E1,-1.034928285E1,2.957159150E0,1.547920606E1
1.025585758E1,-1.106640292E1,-1.136369875E1,3.195856526E0,1.618061871E1
1.026584358E1,-1.066745441E1,-1.254586543E1,3.474368763E0,1.683046527E1
1.027582858E1,-9.979034818E0,-1.322229355E1,3.867088231E0,1.701071880E1
1.028581458E1,-9.152389968E0,-1.366523066E1,4.822484093E0,1.713946102E1
1.029580058E1,-8.163977804E0,-1.414167115E1,6.275661609E0,1.749346521E1
1.030578558E1,-7.143327016E0,-1.457541995E1,7.646802104E0,1.794278601E1
1.031577158E1,-5.920797014E0,-1.495835410E1,8.354185390E0,1.812734421E1
1.032575658E1,-4.334078448E0,-1.523396144E1,8.373998680E0,1.791596135E1
1.033574258E1,-2.384545414E0,-1.537078862E1,8.626829361E0,1.778677555E1
1.034572858E1,2.516770256E-1,-1.504394447E1,8.754013318E0,1.740736499E1
1.035571358E1,4.348525749E0,-1.412604739E1,7.465539588E0,1.655865853E1
1.036569958E1,9.616532591E0,-1.312349315E1,4.865179292E0,1.698157063E1
1.037568458E1,1.422416367E1,-1.159552682E1,2.811737142E0,1.856580028E1
1.038567058E1,1.579307571E1,-1.002504890E1,4.148479638E0,1.916070795E1
1.039565658E1,1.487805078E1,-9.317555684E0,8.022383384E0,1.930108479E1
1.040564158E1,1.526643454E1,-8.469481958E0,1.050835752E1,2.037699011E1
1.041562758E1,1.721126290E1,-7.643331197E0,9.806916178E0,2.123260906E1
1.042561258E1,1.901565284E1,-7.423207501E0,6.844637792E0,2.153016788E1
1.043559858E1,2.051125366E1,-7.181751409E0,4.133470127E0,2.212181401E1
1.044558458E1,2.100311208E1,-6.941703326E0,2.672210882E0,2.228135259E1
1.045556958E1,2.045689093E1,-6.995639212E0,1.846867330E0,2.169871594E1
1.046555558E1,2.039741305E1,-6.775580420E0,1.297288408E0,2.153243847E1
1.047554158E1,2.074772676E1,-6.371217391E0,1.431259813E0,2.175107081E1
1.048552658E1,2.131234793E1,-6.154858718E0,2.008996587E0,2.227407748E1
1.049551258E1,2.220405767E1,-5.747306617E0,2.516885446E0,2.307350045E1
1.050549758E1,2.256764222E1,-5.475495874E0,3.009078624E0,2.341653443E1
1.051548358E1,2.200629081E1,-5.440888544E0,3.564409744E0,2.294744256E1
1.052546958E1,2.027986764E1,-5.519428344E0,3.773129323E0,2.135353895E1
1.053545458E1,1.762496978E1,-5.836925138E0,3.720698510E0,1.893549187E1
1.054544058E1,1.488332497E1,-6.429278489E0,3.615568788E0,1.661087962E1
1.055542558E1,1.255573202E1,-6.958647972E0,3.529351301E0,1.478260832E1
1.056541158E1,1.057710792E1,-7.499327724E0,3.680126142E0,1.347807318E1
1.057539758E1,9.577221175E0,-8.020530401E0,3.917954622E0,1.309207553E1
1.058538258E1,9.804595419E0,-8.370676877E0,4.058483095E0,1.351553209E1
1.059536858E1,1.016856296E1,-8.817774282E0,4.685625917E0,1.425159311E1
1.060535358E1,9.823020580E0,-9.430783507E0,5.895110196E0,1.483858939E1
1.061533958E1,8.788369219E0,-9.908319762E0,7.287390715E0,1.511675552E1
1.062532558E1,7.318578009E0,-1.034680363E1,8.758907438E0,1.540572585E1
1.063531058E1,5.719585553E0,-1.076777158E1,1.013222368E1,1.585309183E1
1.064529658E1,3.821010418E0,-1.143905650E1,1.143365133E1,1.661867976E1
1.065528158E1,2.006436383E0,-1.187659429E1,1.203050938E1,1.702387837E1
1.066526758E1,7.775276542E-1,-1.192530978E1,1.191954677E1,1.687877833E1
1.067525358E1,-3.109835798E-1,-1.238368121E1,1.155379174E1,1.693937350E1
1.068523858E1,-1.238144991E0,-1.301993896E1,1.077909296E1,1.694817567E1
1.069522458E1,-1.513036632E0,-1.337624723E1,9.914386833E0,1.671850281E1
1.070520958E1,-2.112648132E0,-1.375999064E1,9.316552302E0,1.675108269E1
1.071519558E1,-3.110256797E0,-1.399936162E1,8.847411479E0,1.685029711E1
1.072518158E1,-3.948927031E0,-1.395845449E1,8.618340958E0,1.687330073E1
1.073516658E1,-4.949655771E0,-1.381015273E1,8.257103484E0,1.683446372E1
1.074515258E1,-5.270390167E0,-1.349758982E1,7.440956140E0,1.628894631E1
1.075513758E1,-5.147513269E0,-1.332627576E1,6.555824515E0,1.571831268E1
1.076512358E1,-5.439449544E0,-1.340114935E1,5.911255528E0,1.562438342E1
1.077510958E1,-6.283833092E0,-1.349529888E1,5.220722748E0,1.577547452E1
1.078509458E1,-7.149963021E0,-1.260062343E1,3.785536530E0,1.497424352E1
1.079508058E1,-7.641141415E0,-1.137844192E1,2.707870419E0,1.397098940E1
1.080506658E1,-8.267219751E0,-1.038428896E1,2.164254488E0,1.344858272E1
1.081505158E1,-9.045978245E0,-9.550245046E0,1.843156979E0,1.328285099E1
1.082503758E1,-9.650121337E0,-8.587041982E0,1.398003774E0,1.299294218E1
1.083502258E1,-9.919547585E0,-7.524223999E0,8.988211262E-1,1.248275813E1
1.084500858E1,-1.004875351E1,-6.568589571E0,5.840926972E-1,1.201935857E1
1.085499458E1,-1.020750191E1,-5.835012513E0,4.399790043E-1,1.176579992E1
1.086497958E1,-1.058045486E1,-4.943084670E0,1.860554785E-1,1.167967156E1
1.087496558E1,-1.097913323E1,-4.336219699E0,-1.229850715E-1,1.180505371E1
1.088495058E1,-1.115036192E1,-4.115348729E0,-6.872981000E-1,1.190542082E1
1.089493658E1,-1.094611868E1,-3.865966735E0,-1.504333929E0,1.170582050E1
1.090492258E1,-1.027252294E1,-3.579492930E0,-2.210050465E0,1.110053243E1
1.091490758E1,-9.078444325E0,-3.147114136E0,-2.723211467E0,9.986909404E0
1.092489358E1,-7.703973255E0,-2.655246940E0,-2.519436878E0,8.529308437E0
1.093487858E1,-6.703180196E0,-2.224159212E0,-1.694904335E0,7.263071640E0
1.094486458E1,-5.667366993E0,-1.767434367E0,-6.964659494E-1,5.977285144E0
1.095485058E1,-4.595638146E0,-1.176912364E0,1.211627868E-1,4.745491871E0
1.096483558E1,-3.762847287E0,-7.302423906E-1,6.311218527E-1,3.884660660E0
1.097482158E1,-3.147406789E0,-3.878487378E-1,8.080267310E-1,3.272537752E0
1.098480658E1,-2.530353922E0,-1.294924378E-1,6.461141136E-1,2.614750985E0
1.099479258E1,-1.984123408E0,3.101421654E-2,3.145500889E-1,2.009141443E0
1.100477858E1,-1.618592469E0,1.421493208E-1,-8.453495085E-2,1.627020027E0
1.101476358E1,-1.279546347E0,1.697130954E-1,-4.333073312E-1,1.361542006E0
1.102474958E1,-1.123376427E0,1.516428602E-1,-6.351160857E-1,1.299362380E0
1.103473458E1,-1.090290688E0,1.546167541E-1,-6.804393160E-1,1.294464286E0
1.104472058E1,-9.479991335E-1,1.488151467E-1,-7.970468295E-1,1.247450181E0
1.105470658E1,-6.038638875E-1,3.596388459E-2,-9.002437538E-1,1.084612286E0
1.106469158E1,-4.209053868E-1,5.084738731E-3,-8.552672634E-1,9.532414652E-1
1.107467758E1,-4.383295047E-1,8.993310034E-2,-6.096187171E-1,7.562114106E-1
1.108466258E1,-4.886054729E-1,1.042236954E-1,-1.839879030E-1,5.323996950E-1
1.109464858E1,-5.124455944E-1,1.265910494E-1,2.750249577E-1,5.952012335E-1
1.110463458E1,-6.644656000E-1,8.784447491E-2,5.903962880E-1,8.931959260E-1
1.111461958E1,-1.087687069E0,-1.588361049E-1,5.845777237E-1,1.244999270E0
1.112460558E1,-1.675096453E0,-4.294657105E-1,3.081055802E-1,1.756507322E0
1.113459108E1,-2.334386390E0,-8.205596530E-1,-4.370150506E-2,2.474790452E0
1.114457708E1,-3.179358899E0,-1.306676112E0,-4.010277772E-1,3.460715064E0
1.115456308E1,-4.349575616E0,-1.841836678E0,-6.900889760E-1,4.773614269E0
1.116454808E1,-5.796323826E0,-2.249947187E0,-9.236431414E-1,6.285916711E0
1.117453408E1,-7.166352181E0,-2.455538798E0,-1.228626893E0,7.674359805E0
1.118451908E1,-8.012934283E0,-2.691782098E0,-1.361398742E0,8.561904766E0
1.119450508E1,-8.494748361E0,-2.986256649E0,-1.239325544E0,9.089246740E0
1.120449108E1,-8.691697787E0,-3.364247566E0,-1.011991939E0,9.374854654E0
1.121447608E1,-8.635691986E0,-3.753732355E0,-6.614382041E-1,9.439448245E0
1.122446208E1,-8.603408339E0,-4.029551364E0,-1.927552181E-1,9.502266773E0
1.123444708E1,-8.729963720E0,-4.330908088E0,2.872587946E-1,9.749438396E0
1.124443308E1,-8.965036992E0,-4.694238866E0,7.122952393E-1,1.014470952E1
1.125441908E1,-9.248974861E0,-5.108542162E0,1.005882475E0,1.061379002E1
1.126440408E1,-9.502601933E0,-5.627316490E0,1.198671607E0,1.110868795E1
1.127439008E1,-9.641552242E0,-6.215660990E0,1.474189778E0,1.156577739E1
1.128437608E1,-9.838941379E0,-6.742987456E0,1.966563343E0,1.208883860E1
1.129436108E1,-1.005624028E1,-7.106534581E0,2.843649783E0,1.263792493E1
1.130434708E1,-9.978657088E0,-7.538090671E0,3.836408476E0,1.308107175E1
1.131433208E1,-9.518587636E0,-8.257728551E0,4.662600167E0,1.343627298E1
1.132431808E1,-9.091960748E0,-8.942287815E0,5.368309395E0,1.383643767E1
1.133430408E1,-8.416136055E0,-9.441343578E0,6.132245196E0,1.405612841E1
1.134428908E1,-7.491608230E0,-9.801636727E0,6.504372525E0,1.394643820E1
1.135427508E1,-6.560620986E0,-1.034311404E1,6.575938936E0,1.390196852E1
1.136426008E1,-5.933838059E0,-1.090283291E1,6.656521754E0,1.408515110E1
1.137424608E1,-5.650652143E0,-1.120359731E1,6.444123985E0,1.410592770E1
1.138423208E1,-5.286867036E0,-1.161645985E1,5.912413276E0,1.406590677E1
1.139421708E1,-5.310509668E0,-1.187668317E1,5.610717999E0,1.416817816E1
1.140420308E1,-5.498478940E0,-1.202669816E1,5.683005956E0,1.439344629E1
1.141418808E1,-4.850247257E0,-1.244921329E1,5.960451661E0,1.462992802E1
1.142417408E1,-3.660453478E0,-1.275160556E1,6.125615623E0,1.461251281E1
1.143416008E1,-2.107383299E0,-1.257799471E1,6.400130119E0,1.426915137E1
1.144414508E1,6.056370556E-2,-1.214625735E1,6.771723597E0,1.390652639E1
1.145413108E1,2.068954228E0,-1.152429253E1,7.102432174E0,1.369432119E1
1.146411608E1,3.153106363E0,-1.091292871E1,7.940479680E0,1.385948449E1
1.147410208E1,3.261081047E0,-1.073343907E1,8.925457774E0,1.433545118E1
1.148408808E1,3.793458338E0,-1.075046617E1,9.258968922E0,1.468643437E1
1.149407308E1,5.185167584E0,-1.069476091E1,9.082796992E0,1.495864549E1
1.150405908E1,7.770069596E0,-1.024180284E1,8.784703014E0,1.557046929E1
1.151404408E1,1.097533371E1,-9.667958853E0,8.544077227E0,1.693896791E1
1.152403008E1,1.410221882E1,-9.242494977E0,8.500880921E0,1.888282991E1
1.153401608E1,1.753877831E1,-8.711000031E0,7.784469534E0,2.107340106E1
1.154400108E1,2.188109490E1,-7.673907457E0,6.824606985E0,2.417119009E1
1.155398708E1,2.597591406E1,-6.794983236E0,6.124999326E0,2.753970815E1
1.156397208E1,2.882343558E1,-6.408862935E0,5.345919237E0,3.000737934E1
1.157395808E1,3.124970029E1,-6.208800452E0,3.096570219E0,3.201065008E1
1.158394408E1,3.147529522E1,-5.577942601E0,1.902544225E0,3.202229423E1
1.159392908E1,2.977839816E1,-6.154894386E0,6.697289711E-1,3.041519782E1
1.160391508E1,2.715474080E1,-6.519462435E0,9.634047925E-2,2.792655761E1
1.161390108E1,2.430332270E1,-6.332147466E0,4.358251423E-1,2.511846988E1
1.162388608E1,2.135985071E1,-6.132565624E0,7.875088513E-2,2.222291127E1
1.163387208E1,1.800135037E1,-6.222375932E0,3.201783264E-1,1.904912312E1
1.164385708E1,1.428990742E1,-6.298662801E0,1.390086059E0,1.567823161E1
1.165384308E1,1.131729291E1,-6.196782085E0,2.614319939E0,1.316494952E1
1.166382908E1,9.286864234E0,-6.082495331E0,3.833744484E0,1.174479432E1
1.167381408E1,7.867506428E0,-6.043494403E0,4.929468843E0,1.107795762E1
1.168380008E1,6.750839682E0,-6.203768338E0,5.978653459E0,1.094554134E1
1.169378508E1,6.047673408E0,-6.360644456E0,6.724624275E0,1.105679534E1
1.170377108E1,6.015547051E0,-6.527069077E0,7.162303569E0,1.140561395E1
1.171375708E1,6.370794638E0,-6.844440156E0,7.603494117E0,1.205182593E1
1.172374208E1,6.503529941E0,-7.533239236E0,8.176286777E0,1.288011105E1
1.173372808E1,6.738985037E0,-8.304690464E0,8.647240822E0,1.375342055E1
1.174371308E1,6.311690397E0,-8.836497066E0,9.089240624E0,1.416105262E1
1.175369908E1,5.107496095E0,-9.477640754E0,9.690578222E0,1.448514746E1
1.176368508E1,3.713497664E0,-1.005732904E1,1.031609523E1,1.487823084E1
1.177367008E1,2.873984261E0,-1.048157143E1,1.052507822E1,1.512945461E1
1.178365608E1,2.712081292E0,-1.095319381E1,1.026090219E1,1.525168690E1
1.179364108E1,2.527747234E0,-1.147494320E1,9.998473302E0,1.542832771E1
1.180362708E1,2.097979807E0,-1.219646622E1,9.714502105E0,1.573298633E1
1.181361308E1,1.748647263E0,-1.292878438E1,9.501999085E0,1.613998821E1
1.182359808E1,1.225313276E0,-1.362663085E1,9.406036921E0,1.660301152E1
1.183358408E1,1.479070741E-1,-1.442676852E1,9.224726458E0,1.712451765E1
1.184356908E1,-1.458418375E0,-1.538753505E1,8.621621246E0,1.769846242E1
1.185355508E1,-3.751838734E0,-1.639106694E1,7.814899614E0,1.854227671E1
1.186354108E1,-6.454913852E0,-1.650522798E1,6.723402207E0,1.895501519E1
1.187352608E1,-8.316053942E0,-1.546915750E1,5.128622670E0,1.829629355E1
1.188351208E1,-9.009849468E0,-1.396156404E1,3.663949820E0,1.701549841E1
1.189349708E1,-9.503516437E0,-1.264727836E1,2.987094263E0,1.609947847E1
1.190348308E1,-1.011483406E1,-1.149528683E1,2.920881854E0,1.558791321E1
1.191346908E1,-1.079164694E1,-1.028631419E1,2.958462202E0,1.519935531E1
1.192345408E1,-1.157902715E1,-8.954344774E0,2.598834758E0,1.486634125E1
1.193344008E1,-1.232194747E1,-7.807964231E0,1.857975285E0,1.470533125E1
1.194342508E1,-1.266168006E1,-7.067053596E0,8.760339421E-1,1.452683117E1
1.195341108E1,-1.230338373E1,-6.568758556E0,-5.787310928E-2,1.394722874E1
1.196339708E1,-1.141137812E1,-6.257841049E0,-5.947349221E-1,1.302819384E1
1.197338208E1,-1.043842132E1,-5.780035822E0,-9.149588567E-1,1.196689615E1
1.198336808E1,-9.555639687E0,-4.946531603E0,-1.327957054E0,1.084167398E1
1.199335308E1,-8.777223256E0,-3.875119382E0,-1.455264095E0,9.704328514E0
1.200333908E1,-8.203530709E0,-3.058770894E0,-1.192227976E0,8.836028691E0
1.201332508E1,-7.620029458E0,-2.568821585E0,-9.808429438E-1,8.100971926E0
1.202331008E1,-6.667533231E0,-2.202764835E0,-1.070165595E0,7.103057560E0
1.203329608E1,-5.748011792E0,-1.867821119E0,-1.220178836E0,6.165811519E0
1.204328208E1,-4.996682003E0,-1.540843651E0,-1.058408014E0,5.334909344E0
1.205326708E1,-4.360729473E0,-1.193790352E0,-6.807582816E-1,4.572147064E0
1.206325308E1,-3.869316313E0,-8.237159801E-1,-2.994683656E-1,3.967341433E0
1.207323808E1,-3.521676831E0,-4.664896953E-1,-6.022339761E-3,3.552443751E0
1.208322408E1,-3.054277309E0,-2.979331791E-1,1.180848125E-1,3.071045112E0
1.209321008E1,-2.443986893E0,-3.151666778E-1,9.867556483E-2,2.466199269E0
1.210319508E1,-2.059570616E0,-2.474354553E-1,9.129491687E-2,2.076388738E0
1.211318108E1,-1.978104431E0,-7.830532730E-2,5.165401071E-2,1.980327498E0
1.212316608E1,-2.023530572E0,7.168043196E-2,-1.778073961E-1,2.032591826E0
1.213315208E1,-1.964647356E0,2.135344684E-1,-5.193847775E-1,2.043329819E0
1.214313833E1,-1.674040007E0,2.617576253E-1,-7.448078048E-1,1.850855388E0
1.215312333E1,-1.415068288E0,2.937991977E-1,-7.487713400E-1,1.627696147E0
1.216310933E1,-1.187137536E0,3.274464154E-1,-7.016381040E-1,1.417325902E0
1.217309433E1,-7.758265530E-1,2.805844903E-1,-6.906812990E-1,1.075953137E0
1.218308033E1,-2.977584936E-1,3.713280147E-1,-5.940680471E-1,7.612236594E-1
1.219306633E1,6.016638726E-3,5.044755471E-1,-3.413107485E-1,6.091180547E-1
1.220305133E1,1.314220190E-2,5.093024236E-1,-4.085098743E-2,5.111071114E-1
1.221303733E1,2.088976264E-2,4.722316611E-1,2.084032443E-1,5.165956215E-1
1.222302233E1,8.252789408E-2,4.877946103E-1,3.289637679E-1,5.941141268E-1
1.223300833E1,-1.736609893E-1,3.736821038E-1,2.853812537E-1,5.012373827E-1
1.224299433E1,-6.034909813E-1,1.392116797E-1,1.101138881E-1,6.290519252E-1
1.225297933E1,-1.201201259E0,-4.576030970E-2,-6.146388441E-2,1.203642920E0
1.226296533E1,-1.832172692E0,-3.029676318E-1,-2.099933946E-1,1.868888275E0
1.227295033E1,-2.384865695E0,-6.389217460E-1,-2.977194634E-1,2.486853888E0
1.228293633E1,-2.930648751E0,-1.024282494E0,-3.631278795E-1,3.125654905E0
1.229292233E1,-3.564802093E0,-1.415047238E0,-4.109747681E-1,3.857340133E0
1.230290733E1,-4.452073214E0,-1.787203803E0,-4.673305249E-1,4.820109040E0
1.231289333E1,-5.630745297E0,-2.278923649E0,-5.169824490E-1,6.096397006E0
1.232287833E1,-6.991348525E0,-2.834838907E0,-5.840979597E-1,7.566798283E0
1.233286433E1,-8.373210475E0,-3.354516045E0,-7.174647626E-1,9.048656654E0
1.234285033E1,-9.564291812E0,-3.851432312E0,-9.187680253E-1,1.035148991E1
1.235283533E1,-1.041122475E1,-4.344254358E0,-1.087331558E0,1.133350946E1
1.236282133E1,-1.081608245E1,-4.858809335E0,-1.012410307E0,1.190044715E1
1.237280633E1,-1.082329207E1,-5.364066655E0,-7.534725013E-1,1.210308155E1
1.238279233E1,-1.051902168E1,-5.915833313E0,-3.607135642E-1,1.207381527E1
1.239277833E1,-1.007907600E1,-6.428784984E0,3.669244766E-2,1.195484821E1
1.240276333E1,-9.677241307E0,-6.951729546E0,4.385291871E-1,1.192341607E1
1.241274933E1,-9.472523271E0,-7.573139466E0,8.387892249E-1,1.215667331E1
1.242273433E1,-9.241404471E0,-8.318885164E0,1.233823021E0,1.249518812E1
1.243272033E1,-9.099464480E0,-9.188155047E0,1.591913525E0,1.302906887E1
1.244270633E1,-9.085207799E0,-9.961159880E0,1.902290163E0,1.361559454E1
1.245269133E1,-8.926564068E0,-1.068716421E1,2.308699425E0,1.411485451E1
1.246267733E1,-8.667438859E0,-1.147760719E1,2.858571585E0,1.466394881E1
1.247266233E1,-8.306725295E0,-1.222004571E1,3.659444833E0,1.522244194E1
1.248264833E1,-8.009880867E0,-1.290149191E1,4.621040497E0,1.587327000E1
1.249263433E1,-7.640584760E0,-1.349959308E1,5.661973522E0,1.651288869E1
1.250261933E1,-7.205817963E0,-1.389708212E1,6.748206096E0,1.704672958E1
1.251260533E1,-6.812155339E0,-1.406140408E1,7.819900737E0,1.747224635E1
1.252259033E1,-5.881444083E0,-1.412934522E1,8.562331649E0,1.753691262E1
1.253257633E1,-4.493509800E0,-1.445187997E1,8.704304384E0,1.745890546E1
1.254256233E1,-3.120070764E0,-1.466987119E1,8.098899463E0,1.704500322E1
1.255254733E1,-1.110264046E0,-1.463843305E1,7.460451926E0,1.646738447E1
1.256253333E1,1.829876783E0,-1.419379674E1,7.135963032E0,1.599169420E1
1.257251933E1,4.762561242E0,-1.335153924E1,6.821899724E0,1.573162120E1
1.258250433E1,8.613318200E0,-1.196914636E1,5.801285189E0,1.584628110E1
1.259249033E1,1.285029954E1,-1.033784453E1,4.489485746E0,1.709259226E1
1.260247533E1,1.569993190E1,-8.758372418E0,4.570532833E0,1.854957464E1
1.261246133E1,1.672150012E1,-7.070516317E0,6.585947616E0,1.931257293E1
1.262244733E1,1.659863024E1,-5.859228172E0,8.745422589E0,1.965521551E1
1.263243233E1,1.647675087E1,-5.395812943E0,8.885735884E0,1.948215642E1
1.264241833E1,1.748505410E1,-5.060557571E0,6.877124337E0,1.945844801E1
1.265240333E1,1.842195229E1,-5.048812269E0,4.226135632E0,1.956320664E1
1.266238933E1,1.840889429E1,-5.737291507E0,1.967996203E0,1.938238664E1
1.267237533E1,1.870537385E1,-6.209743608E0,-1.455927461E-2,1.970918919E1
1.268236033E1,1.978629247E1,-6.174183766E0,-1.494274086E0,2.078101947E1
1.269234633E1,2.092768534E1,-6.001574544E0,-1.898642378E0,2.185387274E1
1.270233133E1,2.215994862E1,-5.517141498E0,-1.302181065E0,2.287351850E1
1.271231733E1,2.305969711E1,-4.986918322E0,1.397569326E-1,2.359318794E1
1.272230333E1,2.269942209E1,-4.607187858E0,1.743624212E0,2.322778871E1
1.273228833E1,2.120561052E1,-4.145020425E0,2.982355387E0,2.181177561E1
1.274227433E1,1.894893260E1,-4.187139673E0,3.633377068E0,1.974324224E1
1.275225933E1,1.624568411E1,-4.703942320E0,3.684348124E0,1.730964317E1
1.276224533E1,1.383555889E1,-5.136324037E0,3.319450877E0,1.512690545E1
1.277223133E1,1.219916998E1,-5.428028178E0,2.781089254E0,1.363883043E1
1.278221633E1,1.097545299E1,-5.790389487E0,2.591786816E0,1.267700823E1
1.279220233E1,1.013426904E1,-6.151372023E0,2.977328243E0,1.222322667E1
1.280218733E1,9.245995705E0,-6.480424084E0,3.598454280E0,1.185045172E1
1.281217333E1,8.192048532E0,-6.819059147E0,4.545532477E0,1.158754039E1
1.282215933E1,7.054903666E0,-7.094202803E0,5.609943243E0,1.147043340E1
1.283214433E1,6.163869862E0,-7.234510835E0,6.447949233E0,1.148509852E1
1.284213033E1,5.860399370E0,-7.302222762E0,6.953763793E0,1.166282851E1
1.285211533E1,5.770020127E0,-7.668570703E0,7.342334077E0,1.208345888E1
1.286210133E1,5.717947163E0,-8.311882539E0,7.708011927E0,1.269628918E1
1.287208733E1,5.530292471E0,-8.731908504E0,8.155088866E0,1.316570679E1
1.288207233E1,4.848170326E0,-9.383844398E0,8.690038347E0,1.367764810E1
1.289205833E1,4.206123828E0,-1.003689536E1,8.911825576E0,1.406596535E1
1.290204333E1,3.645347781E0,-1.063174664E1,9.004458336E0,1.440148836E1
1.291202933E1,2.766834619E0,-1.131565452E1,9.019848207E0,1.473285691E1
1.292201533E1,1.859348504E0,-1.199316321E1,8.696356848E0,1.493049775E1
1.293200033E1,4.133262259E-1,-1.264733450E1,8.377505840E0,1.517591884E1
1.294198633E1,-1.226108497E0,-1.313368602E1,8.239692814E0,1.555280001E1
1.295197133E1,-2.539784896E0,-1.334335781E1,7.959846243E0,1.574340679E1
1.296195733E1,-3.580649509E0,-1.308756786E1,7.536641146E0,1.552116114E1
1.297194333E1,-4.418154100E0,-1.288472678E1,7.217760901E0,1.541532816E1
1.298192833E1,-4.647390389E0,-1.308808475E1,6.709125645E0,1.542428497E1
1.299191433E1,-5.745034974E0,-1.282108217E1,5.712822078E0,1.516647326E1
1.300189933E1,-7.236563793E0,-1.222062458E1,4.806845130E0,1.499390812E1
1.301188533E1,-9.033855797E0,-1.167593773E1,4.143530262E0,1.533319652E1
1.302187133E1,-1.113781380E1,-1.087255837E1,3.121350135E0,1.587470467E1
1.303185633E1,-1.281528407E1,-9.738393243E0,1.714614421E0,1.618665226E1
1.304184233E1,-1.324260093E1,-8.644148229E0,3.408339080E-1,1.581783632E1
1.305182833E1,-1.244290298E1,-7.850531377E0,-7.812754270E-1,1.473319614E1
1.306181333E1,-1.088875866E1,-7.175737547E0,-1.635086441E0,1.314267029E1
1.307179933E1,-9.073934952E0,-6.437539435E0,-2.042109661E0,1.131142879E1
1.308178433E1,-7.769222335E0,-5.507670763E0,-1.944261477E0,9.719845966E0
1.309177033E1,-7.095499715E0,-4.667446339E0,-1.332473736E0,8.596898150E0
1.310175633E1,-6.753099046E0,-4.080168956E0,-7.814534748E-1,7.928606117E0
1.311174133E1,-6.444704613E0,-3.532249766E0,-6.435816845E-1,7.377343922E0
1.312172733E1,-6.100832199E0,-2.910100173E0,-6.868937650E-1,6.794163642E0
1.313171233E1,-5.767142712E0,-2.381363944E0,-7.543890524E-1,6.284897146E0
1.314169787E1,-5.246521833E0,-2.017688180E0,-9.048145223E-1,5.693482788E0
1.315168388E1,-4.715170144E0,-1.594538632E0,-1.079432262E0,5.093187307E0
1.316166887E1,-4.253260573E0,-9.909861088E-1,-1.069020710E0,4.496118798E0
1.317165487E1,-3.604768689E0,-5.641498911E-1,-9.129538465E-1,3.761131096E0
1.318163987E1,-2.863917695E0,-3.835679913E-1,-7.272530016E-1,2.979604990E0
1.319162588E1,-2.187260358E0,-1.329341090E-1,-5.647357821E-1,2.262897667E0
1.320161187E1,-1.449732921E0,3.211349308E-2,-3.380994576E-1,1.488982224E0
1.321159687E1,-1.013405649E0,9.458105206E-2,-1.621701872E-1,1.030648221E0
1.322158288E1,-1.118554813E0,2.810657161E-1,-4.502092928E-2,1.154205220E0
1.323156787E1,-1.434096443E0,3.656006670E-1,-1.393976212E-1,1.486515440E0
1.324155387E1,-1.529388663E0,2.657477653E-1,-4.388168702E-1,1.613137255E0
1.325153987E1,-1.519862525E0,2.135572726E-1,-8.121218285E-1,1.736413162E0
1.326152488E1,-1.408078234E0,1.637898660E-1,-1.033267618E0,1.754181690E0
1.327151087E1,-1.256395320E0,1.613661951E-1,-1.063393934E0,1.653896886E0
1.328149587E1,-1.134106360E0,1.945251703E-1,-1.034528277E0,1.547348065E0
1.329148187E1,-1.064621265E0,1.939679307E-1,-9.769504523E-1,1.457900608E0
1.330146787E1,-8.772557178E-1,1.996707201E-1,-9.173108992E-1,1.284875588E0
1.331145287E1,-4.203892238E-1,1.279189521E-1,-8.821679637E-1,9.855509495E-1
1.332143887E1,-1.488234790E-1,8.380755723E-2,-7.891206363E-1,8.073930351E-1
1.333142388E1,-2.770763071E-1,1.066666621E-1,-5.468968043E-1,6.222902629E-1
1.334140987E1,-5.481396300E-1,2.220480144E-2,-4.592476264E-1,7.154428625E-1
1.335139587E1,-8.756434943E-1,-1.075706416E-1,-5.153826508E-1,1.021734921E0
1.336138087E1,-1.199139238E0,-1.739014560E-1,-5.749306950E-1,1.341164395E0
1.337136688E1,-1.427565103E0,-2.364888829E-1,-6.069295827E-1,1.569150291E0
1.338135187E1,-1.499129468E0,-3.131119663E-1,-5.969033620E-1,1.643691543E0
1.339133787E1,-1.564451784E0,-3.968861943E-1,-6.132045221E-1,1.726571117E0
1.340132388E1,-1.713969620E0,-5.371661603E-1,-6.018255481E-1,1.894316059E0
1.341130887E1,-1.950706717E0,-6.497005033E-1,-5.339215404E-1,2.124250374E0
1.342129487E1,-2.380050513E0,-7.964486593E-1,-4.727932861E-1,2.553919420E0
1.343127987E1,-2.984147558E0,-1.131673626E0,-4.414454859E-1,3.221908745E0
1.344126588E1,-3.777108938E0,-1.667621811E0,-5.212494546E-1,4.161636148E0
1.345125187E1,-4.942461941E0,-2.287852347E0,-6.832661524E-1,5.488993627E0
1.346123687E1,-6.581803109E0,-2.921357233E0,-8.465856099E-1,7.250597730E0
1.347122287E1,-8.481365254E0,-3.622374655E0,-1.074246951E0,9.284888864E0
1.348120788E1,-1.039633072E1,-4.287425854E0,-1.566634842E0,1.135429688E1
1.349119387E1,-1.192012564E1,-4.900002385E0,-2.233534930E0,1.308006487E1
1.350117987E1,-1.271019090E1,-5.586818674E0,-2.644291889E0,1.413342758E1
1.351116488E1,-1.291856227E1,-6.217625654E0,-2.554269034E0,1.456270615E1
1.352115087E1,-1.269288548E1,-6.968973570E0,-1.759576294E0,1.458670775E1
1.353113687E1,-1.256075244E1,-7.600788610E0,-5.750213268E-1,1.469268998E1
1.354112187E1,-1.233901433E1,-8.079067461E0,5.086539674E-1,1.475741625E1
1.355110788E1,-1.218200021E1,-8.683902864E0,1.283209774E0,1.501525642E1
1.356109287E1,-1.218721944E1,-9.597889329E0,1.744004720E0,1.561055251E1
1.357107887E1,-1.224937651E1,-1.059462734E1,1.816370884E0,1.629701066E1
1.358106488E1,-1.218297202E1,-1.159133788E1,1.741939483E0,1.690616083E1
1.359104987E1,-1.184924569E1,-1.245517043E1,2.017486013E0,1.730913469E1
1.360103587E1,-1.145256474E1,-1.330719162E1,2.953839101E0,1.780358821E1
1.361102087E1,-1.137902080E1,-1.409568163E1,4.212390289E0,1.859877918E1
1.362100688E1,-1.127127766E1,-1.479287556E1,6.064939066E0,1.956155294E1
1.363099287E1,-1.083108524E1,-1.570320751E1,8.688522749E0,2.096171656E1
1.364097787E1,-9.948010662E0,-1.656249795E1,1.117608032E1,2.232003642E1
1.365096387E1,-8.697352629E0,-1.737973054E1,1.265874709E1,2.319359512E1
1.366094888E1,-6.974935391E0,-1.826029315E1,1.330948723E1,2.364805447E1
1.367093487E1,-5.398417293E0,-1.914751574E1,1.296766017E1,2.374722044E1
1.368092087E1,-2.940344896E0,-1.953817991E1,1.176438856E1,2.299536781E1
1.369090588E1,3.067438222E0,-1.875542368E1,8.868165586E0,2.097187296E1
1.370089187E1,1.232000035E1,-1.592495849E1,3.099957511E0,2.037146161E1
1.371087687E1,1.803339545E1,-1.284643219E1,8.986761153E-2,2.214141477E1
1.372086287E1,1.585486557E1,-1.108931231E1,4.895629837E0,1.995787568E1
1.373084888E1,1.184805637E1,-1.053315790E1,1.188032131E1,1.981075187E1
1.374083387E1,1.193284334E1,-9.912012863E0,1.521186598E1,2.172651872E1
1.375081987E1,1.580582849E1,-9.542485791E0,1.304074686E1,2.260407768E1
1.376080487E1,2.095049650E1,-9.021047471E0,7.921152293E0,2.414637146E1
1.377079087E1,2.537843855E1,-8.198723713E0,3.186051622E0,2.685954464E1
1.378077687E1,2.614645629E1,-8.053879995E0,4.091323105E-1,2.736182649E1
1.379076187E1,2.459727626E1,-8.294677691E0,-7.409433800E-1,2.596876344E1
1.380074788E1,2.369725880E1,-8.101252967E0,-1.356332714E0,2.508047074E1
1.381073287E1,2.342312028E1,-8.332661789E0,-1.835993848E0,2.492883249E1
1.382071887E1,2.422961738E1,-7.957969286E0,-2.246968031E0,2.560180655E1
1.383070487E1,2.553652621E1,-7.066563599E0,-1.827675306E0,2.655919594E1
1.384068988E1,2.578848975E1,-6.327006594E0,-2.594339418E-1,2.655455746E1
1.385067587E1,2.420502867E1,-5.728638212E0,1.794272794E0,2.493832639E1
1.386066187E1,2.148886836E1,-5.410201771E0,3.778049170E0,2.247922156E1
1.387064688E1,1.828488420E1,-5.557198434E0,5.120841195E0,1.978490483E1
1.388063287E1,1.541212142E1,-5.958793391E0,5.679278941E0,1.747269054E1
1.389061787E1,1.316695199E1,-6.473746564E0,5.654046451E0,1.572406629E1
1.390060387E1,1.133664252E1,-7.208755020E0,5.484322246E0,1.451080298E1
1.391058988E1,9.985954413E0,-7.740144716E0,5.569147804E0,1.380740863E1
1.392057487E1,9.258308771E0,-7.935911250E0,6.079920217E0,1.362572561E1
1.393056087E1,8.669562567E0,-8.049766479E0,7.173556536E0,1.383546056E1
1.394054587E1,7.599746051E0,-8.423083717E0,8.785670144E0,1.434895394E1
1.395053187E1,6.698864366E0,-8.672335317E0,1.004746946E1,1.486727366E1
1.396051787E1,6.212151491E0,-8.856625521E0,1.067762974E1,1.520007956E1
1.397050287E1,5.478330020E0,-9.532691120E0,1.131811503E1,1.577922773E1
1.398048888E1,4.734726157E0,-1.050120521E1,1.177634144E1,1.647346838E1
1.399047387E1,4.052188275E0,-1.123997635E1,1.166793991E1,1.670024311E1
1.400045987E1,3.522090229E0,-1.183233087E1,1.129430517E1,1.673231910E1
1.401044587E1,2.939917465E0,-1.238485650E1,1.098101837E1,1.681102464E1
1.402043088E1,2.062642159E0,-1.330686066E1,1.072801403E1,1.721677433E1
1.403041687E1,8.361296189E-1,-1.439702374E1,1.021934018E1,1.767507621E1
1.404040187E1,-3.366499329E-1,-1.529979641E1,9.586297224E0,1.805807846E1
1.405038788E1,-1.675158287E0,-1.606045368E1,8.936006151E0,1.845525761E1
1.406037387E1,-3.075977495E0,-1.653076394E1,8.376619402E0,1.878551428E1
1.407035887E1,-3.974230272E0,-1.660888274E1,7.908862031E0,1.882019104E1
1.408034487E1,-5.067184805E0,-1.648774013E1,7.199826322E0,1.869115929E1
1.409032988E1,-6.724305017E0,-1.613263405E1,6.287637291E0,1.857451324E1
1.410031587E1,-8.505657511E0,-1.593874973E1,5.741391574E0,1.895662232E1
1.411030187E1,-1.069362889E1,-1.526398572E1,4.685537040E0,1.921710739E1
1.412028687E1,-1.257543480E1,-1.343861597E1,2.744093043E0,1.860827789E1
1.413027287E1,-1.308893377E1,-1.146794058E1,7.831643701E-1,1.741973578E1
1.414025775E1,-1.256574596E1,-9.938131206E0,-1.012572860E0,1.605271713E1
1.415024375E1,-1.168508044E1,-8.889407351E0,-2.406095327E0,1.487790182E1
1.416022975E1,-1.080975927E1,-8.000082103E0,-3.219090437E0,1.382804225E1
1.417021475E1,-9.998804255E0,-7.144440325E0,-3.368341202E0,1.274224613E1
1.418020075E1,-9.300841418E0,-6.380747184E0,-3.059983022E0,1.168687648E1
1.419018575E1,-8.808274895E0,-5.594820004E0,-2.806927807E0,1.080585773E1
1.420017175E1,-8.428960168E0,-4.993629171E0,-2.408182783E0,1.008875840E1
1.421015775E1,-8.162943431E0,-4.617595317E0,-1.984788237E0,9.586199263E0
1.422014275E1,-7.860527776E0,-4.094988139E0,-1.988697100E0,9.083597357E0
1.423012875E1,-7.498305631E0,-3.415719436E0,-2.220431027E0,8.533583101E0
1.424011475E1,-7.146997898E0,-2.809620450E0,-2.381147012E0,8.040112382E0
1.425009975E1,-6.614221242E0,-2.281882925E0,-2.393710047E0,7.394914476E0
1.426008575E1,-5.759364161E0,-1.785768896E0,-2.124108382E0,6.393049547E0
1.427007075E1,-4.801345823E0,-1.402226633E0,-1.655571284E0,5.268783306E0
1.428005675E1,-3.826421139E0,-1.176592521E0,-1.100672858E0,4.151788703E0
1.429004275E1,-2.952502135E0,-8.641909915E-1,-7.170273909E-1,3.158832570E0
1.430002775E1,-2.457039194E0,-5.552621233E-1,-5.710425889E-1,2.582914490E0
1.431001375E1,-2.241182211E0,-3.216898316E-1,-3.934614801E-1,2.298084852E0
1.431999875E1,-2.323183563E0,-1.055884355E-1,-3.403731474E-1,2.350358412E0
1.432998475E1,-2.396332816E0,1.837545991E-2,-4.777976257E-1,2.443570992E0
1.433997075E1,-2.349004868E0,1.300064081E-1,-6.351625711E-1,2.436833401E0
1.434995575E1,-2.214259291E0,1.915635556E-1,-6.056142515E-1,2.303564505E0
1.435994175E1,-2.074569602E0,2.688888896E-1,-3.850461674E-1,2.127063896E0
1.436992675E1,-1.719397444E0,3.152701735E-1,-1.182581824E-1,1.752058175E0
1.437991275E1,-1.047515236E0,3.584454292E-1,9.534294426E-2,1.111243255E0
1.438989875E1,-3.125753380E-1,5.071471399E-1,2.454064715E-1,6.443026461E-1
1.439988375E1,4.426998599E-1,6.094155264E-1,3.464519128E-1,8.290955178E-1
1.440986975E1,9.271722284E-1,6.341281986E-1,3.545289642E-1,1.177903943E0
1.441985475E1,8.711803146E-1,7.197799677E-1,3.982646754E-1,1.198187420E0
1.442984075E1,6.083539644E-1,6.771216059E-1,3.916646308E-1,9.909537820E-1
1.443982675E1,3.301969457E-1,5.569367659E-1,1.910276583E-1,6.750556647E-1
1.444981175E1,5.482612520E-2,4.373231989E-1,-1.190364468E-1,4.565382350E-1
1.445979775E1,-1.307770711E-1,2.487633580E-1,-4.551460969E-1,5.349241256E-1
1.446978275E1,-1.466423213E-1,7.511157811E-2,-6.385469395E-1,6.594603199E-1
1.447976875E1,-1.306953563E-1,-9.231116295E-2,-5.830665109E-1,6.046231744E-1
1.448975475E1,-2.334671880E-1,-2.512104177E-1,-4.859340262E-1,5.947650626E-1
1.449973975E1,-4.892643079E-1,-3.751819146E-1,-3.930013043E-1,7.311573409E-1
1.450972575E1,-9.302930336E-1,-5.460948586E-1,-3.811332107E-1,1.144083584E0
1.451971075E1,-1.561730636E0,-8.406693971E-1,-5.033011338E-1,1.843648460E0
1.452969675E1,-2.177137512E0,-1.212005013E0,-6.817908999E-1,2.583354937E0
1.453968275E1,-2.869835662E0,-1.580131093E0,-9.052328905E-1,3.398855334E0
1.454966775E1,-3.755522187E0,-1.971697490E0,-1.133337451E0,4.390443220E0
1.455965375E1,-4.757703960E0,-2.293137646E0,-1.429503309E0,5.471536068E0
1.456963875E1,-5.581067938E0,-2.613048170E0,-1.730674092E0,6.400904067E0
1.457962475E1,-6.228657596E0,-3.002649318E0,-1.877025222E0,7.164865809E0
1.458961075E1,-6.808008494E0,-3.339091090E0,-1.826090711E0,7.799558721E0
1.459959575E1,-7.374152285E0,-3.673181112E0,-1.574404330E0,8.387438846E0
1.460958175E1,-7.878350675E0,-4.079605869E0,-1.099639947E0,8.939843478E0
1.461956675E1,-8.263679262E0,-4.468179077E0,-5.127636829E-1,9.408291333E0
1.462955275E1,-8.640593707E0,-4.894443437E0,-5.279714137E-2,9.930670859E0
1.463953875E1,-9.080119552E0,-5.407622564E0,2.031226239E-1,1.057034586E1
1.464952375E1,-9.608385665E0,-5.924881294E0,3.987996957E-1,1.129532357E1
1.465950975E1,-1.021517579E1,-6.510082916E0,5.007833228E-1,1.212360425E1
1.466949475E1,-1.076443750E1,-7.210401011E0,5.379798004E-1,1.296735978E1
1.467948075E1,-1.103807901E1,-7.984919103E0,6.263195345E-1,1.363782965E1
1.468946675E1,-1.112409038E1,-8.834935859E0,9.000493339E-1,1.423416901E1
1.469945175E1,-1.109704467E1,-9.670921637E0,1.399713792E0,1.478615313E1
1.470943775E1,-1.105939211E1,-1.017213210E1,2.107787634E0,1.517317350E1
1.471942375E1,-1.075498489E1,-1.068242212E1,2.986747230E0,1.545006477E1
1.472940875E1,-1.009084177E1,-1.135140440E1,4.218912274E0,1.576320685E1
1.473939475E1,-9.415807618E0,-1.192418010E1,5.449316136E0,1.614120660E1
1.474937975E1,-8.547507788E0,-1.265152344E1,6.561184072E0,1.661836548E1
1.475936575E1,-7.516856507E0,-1.320245629E1,7.422553782E0,1.690864538E1
1.476935175E1,-6.736910444E0,-1.365997285E1,8.104066063E0,1.725273043E1
1.477933675E1,-6.051809143E0,-1.380495456E1,8.660054995E0,1.738383493E1
1.478932275E1,-5.255282131E0,-1.396369360E1,9.005652922E0,1.742712007E1
1.479930775E1,-4.640912259E0,-1.424635034E1,9.204754123E0,1.758476793E1
1.480929375E1,-4.286494392E0,-1.436546397E1,9.215796005E0,1.759748520E1
1.481927975E1,-3.443441085E0,-1.463709404E1,9.112018452E0,1.758211275E1
1.482926475E1,-1.356061111E0,-1.497500463E1,8.738528137E0,1.739113393E1
1.483925075E1,2.828200563E0,-1.459514260E1,7.350643555E0,1.658459727E1
1.484923575E1,9.151560248E0,-1.324239979E1,5.155330412E0,1.690235601E1
1.485922175E1,1.395332766E1,-1.120023516E1,4.151672802E0,1.836782533E1
1.486920775E1,1.515249686E1,-9.083670566E0,6.272582465E0,1.874717373E1
1.487919275E1,1.373005523E1,-8.167097293E0,1.001003208E1,1.885249684E1
1.488917875E1,1.300768904E1,-8.174878768E0,1.190051876E1,1.943324378E1
1.489916375E1,1.497942863E1,-7.889841038E0,1.035479678E1,1.984577260E1
1.490914975E1,1.864758348E1,-7.878982759E0,6.698967862E0,2.132338879E1
1.491913575E1,2.254182326E1,-7.840687589E0,3.038240735E0,2.405911645E1
1.492912075E1,2.555232071E1,-7.230250554E0,4.594335678E-1,2.655953117E1
1.493910675E1,2.637978592E1,-6.660217195E0,-5.816734117E-1,2.721378221E1
1.494909275E1,2.503613085E1,-6.443553296E0,-2.987681615E-1,2.585375194E1
1.495907775E1,2.308782690E1,-6.123781936E0,2.456467921E-1,2.388741925E1
1.496906375E1,2.182146734E1,-5.944340828E0,6.921574286E-1,2.262721164E1
1.497904875E1,2.133416974E1,-5.755524294E0,1.204558292E0,2.212970445E1
1.498903475E1,2.109685231E1,-5.393323783E0,1.553218406E0,2.183065748E1
1.499902075E1,2.019355806E1,-5.173448009E0,1.733518762E0,2.091768244E1
1.500900575E1,1.827470186E1,-5.254136077E0,1.906142309E0,1.911031272E1
1.501899175E1,1.574284696E1,-5.463578664E0,2.164086965E0,1.680390414E1
1.502897675E1,1.333859584E1,-5.845733968E0,2.331421121E0,1.474877178E1
1.503896275E1,1.148245804E1,-6.116487535E0,2.481836066E0,1.324453747E1
1.504894875E1,1.005294713E1,-6.348076451E0,2.861109277E0,1.222889067E1
1.505893375E1,8.881655697E0,-6.572269809E0,3.555051568E0,1.160676225E1
1.506891975E1,7.774598849E0,-6.764570698E0,4.503026143E0,1.124637935E1
1.507890475E1,6.775996742E0,-7.042956051E0,5.383091156E0,1.115773419E1
1.508889075E1,5.893111033E0,-7.340350116E0,6.026263828E0,1.117700108E1
1.509887675E1,5.257291235E0,-7.487129263E0,6.644282947E0,1.130675513E1
1.510886175E1,4.715715104E0,-7.779785330E0,7.236265585E0,1.162439540E1
1.511884775E1,4.318285119E0,-8.111242350E0,7.653846830E0,1.195914755E1
1.512883275E1,4.133559297E0,-8.220234450E0,8.042811801E0,1.222069509E1
1.513881883E1,4.167199498E0,-8.255321252E0,8.394762728E0,1.248951248E1
1.514880483E1,3.991048619E0,-8.479422809E0,8.941289696E0,1.295282755E1
1.515878983E1,3.302609142E0,-8.878062583E0,9.592340906E0,1.348110628E1
1.516877583E1,2.585596077E0,-9.415459709E0,1.008925600E1,1.404027333E1
1.517876083E1,1.911350132E0,-1.026834569E1,1.018362656E1,1.458761229E1
1.518874683E1,1.234942471E0,-1.130012549E1,9.878774951E0,1.506014985E1
1.519873283E1,4.084034550E-1,-1.228883820E1,9.653654809E0,1.563251064E1
1.520871783E1,-6.272770160E-1,-1.279383532E1,9.298960369E0,1.582865637E1
1.521870383E1,-1.538322331E0,-1.285411075E1,8.722596813E0,1.561019840E1
1.522868883E1,-2.128270723E0,-1.288715688E1,8.045127883E0,1.534054860E1
1.523867483E1,-2.919232939E0,-1.294187863E1,7.441635586E0,1.521157729E1
1.524866083E1,-3.095327978E0,-1.268618808E1,6.877158251E0,1.475858153E1
1.525864583E1,-2.740524195E0,-1.221793720E1,6.509569530E0,1.411251068E1
1.526863183E1,-2.923231850E0,-1.192312760E1,6.362703846E0,1.382715649E1
1.527861683E1,-3.375384173E0,-1.178788151E1,6.154000347E0,1.371929623E1
1.528860283E1,-3.799087160E0,-1.156688131E1,5.553071469E0,1.338142030E1
1.529858883E1,-4.327358536E0,-1.145526849E1,4.769251041E0,1.314134558E1
1.530857383E1,-4.994726694E0,-1.140677870E1,3.849606811E0,1.303385467E1
1.531855983E1,-6.150984938E0,-1.107251326E1,2.663058236E0,1.294322390E1
1.532854583E1,-8.078976245E0,-1.064507361E1,1.469834479E0,1.344425017E1
1.533853083E1,-1.076751782E1,-1.000048124E1,3.370516366E-1,1.469907033E1
1.534851683E1,-1.410863906E1,-8.908118441E0,-1.057492340E0,1.671904783E1
1.535850183E1,-1.674837392E1,-7.440947953E0,-2.719989651E0,1.852765714E1
1.536848783E1,-1.739313937E1,-6.364295458E0,-4.123298603E0,1.897438129E1
1.537847383E1,-1.605347912E1,-5.824632536E0,-4.933595223E0,1.777585154E1
1.538845883E1,-1.343236881E1,-5.319517888E0,-5.011785361E0,1.529195196E1
1.539844483E1,-1.077093610E1,-4.637351305E0,-4.371249491E0,1.251502751E1
1.540842983E1,-8.923300737E0,-3.815407616E0,-3.480551316E0,1.031003728E1
1.541841583E1,-7.585765944E0,-3.006745877E0,-2.621184863E0,8.570587833E0
1.542840183E1,-6.855580856E0,-2.361488088E0,-2.051152380E0,7.535439002E0
1.543838683E1,-6.386564578E0,-1.936873228E0,-1.717731572E0,6.891319668E0
1.544837283E1,-5.747829943E0,-1.600185288E0,-1.567725640E0,6.168946887E0
1.545835783E1,-5.073694510E0,-1.316493587E0,-1.435794328E0,5.434798681E0
1.546834383E1,-4.443189539E0,-1.067982244E0,-1.213097273E0,4.728014842E0
1.547832983E1,-3.884189583E0,-9.027305746E-1,-8.482593754E-1,4.076934532E0
1.548831483E1,-3.228810264E0,-9.009886891E-1,-4.955740383E-1,3.388597050E0
1.549830083E1,-2.664498990E0,-7.703998983E-1,-3.081368628E-1,2.790702276E0
1.550828583E1,-2.271961077E0,-5.099807006E-1,-2.831540492E-1,2.345647814E0
1.551827183E1,-1.830632243E0,-2.807090360E-1,-2.668561050E-1,1.871155834E0
1.552825783E1,-1.490709916E0,-9.126568079E-2,-1.874532554E-1,1.505218988E0
1.553824283E1,-1.145075736E0,8.194580376E-2,-1.125705957E-2,1.148059353E0
1.554822883E1,-7.441535014E-1,2.375367039E-1,1.783830544E-1,8.012544124E-1
1.555821383E1,-3.483461183E-1,3.606831586E-1,3.867687571E-1,6.332672663E-1
1.556819983E1,-3.490714654E-2,4.948083454E-1,6.504892927E-1,8.180404193E-1
1.557818583E1,2.468887407E-1,5.704011494E-1,8.114274716E-1,1.022118419E0
1.558817083E1,5.989457944E-1,5.212488699E-1,6.975830600E-1,1.056909918E0
1.559815683E1,1.071419969E0,5.405288941E-1,4.079555583E-1,1.267493579E0
1.560814183E1,1.427896056E0,6.383194828E-1,2.353366891E-1,1.581683364E0
1.561812783E1,1.564827029E0,6.376552391E-1,2.850964943E-1,1.713641691E0
1.562811383E1,1.562405112E0,6.990106577E-1,4.186369595E-1,1.762096064E0
1.563809883E1,1.507930259E0,6.900761122E-1,3.913061965E-1,1.703871839E0
1.564808483E1,1.400448348E0,5.344419426E-1,2.276756671E-1,1.516153019E0
1.565807083E1,1.260177299E0,3.397483724E-1,-4.678795785E-2,1.306011063E0
1.566805583E1,9.945407774E-1,1.098873085E-1,-4.457791498E-1,1.095402040E0
1.567804183E1,5.670707215E-1,-1.206409228E-1,-7.291489613E-1,9.315479823E-1
1.568802683E1,-3.255086482E-2,-3.028881097E-1,-8.886507717E-1,9.394152222E-1
1.569801283E1,-6.471673433E-1,-4.845722097E-1,-9.470162165E-1,1.245180915E0
1.570799883E1,-1.199936652E0,-7.372116870E-1,-9.110546708E-1,1.677304282E0
1.571798383E1,-1.723947016E0,-9.987862945E-1,-8.728287908E-1,2.175177573E0
1.572796983E1,-2.279103159E0,-1.316825709E0,-8.285720927E-1,2.759505910E0
1.573795483E1,-2.990449687E0,-1.682019995E0,-8.278648719E-1,3.529495834E0
1.574794083E1,-3.881096406E0,-2.068261918E0,-8.500717199E-1,4.479200666E0
1.575792683E1,-4.930416092E0,-2.584829507E0,-9.172591513E-1,5.641959834E0
1.576791183E1,-6.250929641E0,-3.208526857E0,-1.016461258E0,7.099433742E0
1.577789783E1,-7.702326679E0,-3.694892408E0,-1.185658337E0,8.624607346E0
1.578788283E1,-9.221563699E0,-4.195126385E0,-1.394084385E0,1.022642624E1
1.579786883E1,-1.054905414E1,-4.727774402E0,-1.495252033E0,1.165633616E1
1.580785483E1,-1.160751011E1,-5.137982892E0,-1.235350314E0,1.275379353E1
1.581783983E1,-1.206616804E1,-5.644186292E0,-8.444379276E-1,1.334774608E1
1.582782583E1,-1.201196201E1,-6.202674324E0,-2.735900509E-1,1.352165861E1
1.583781083E1,-1.156339637E1,-6.695526191E0,3.154432511E-1,1.336569157E1
1.584779683E1,-1.104386191E1,-7.199473150E0,7.914373031E-1,1.320703117E1
1.585778283E1,-1.053825668E1,-7.919002857E0,1.107769185E0,1.322847733E1
1.586776783E1,-1.032123727E1,-8.702349075E0,1.271568553E0,1.356007761E1
1.587775383E1,-1.028760057E1,-9.470534633E0,1.518824791E0,1.406529703E1
1.588773883E1,-1.037944513E1,-1.034275385E1,1.919550852E0,1.477802808E1
1.589772483E1,-1.037808507E1,-1.112971657E1,2.298226039E0,1.539016191E1
1.590771083E1,-1.014497997E1,-1.184537835E1,2.731763020E0,1.583338675E1
1.591769583E1,-9.833159652E0,-1.271216609E1,3.571598604E0,1.646349027E1
1.592768183E1,-9.488963302E0,-1.357815977E1,4.623172392E0,1.719827231E1
1.593766783E1,-9.194241414E0,-1.414935205E1,5.580487894E0,1.777301561E1
1.594765283E1,-8.546173453E0,-1.495543049E1,6.677820822E0,1.847417854E1
1.595763883E1,-7.478018131E0,-1.556073659E1,8.030166612E0,1.904050562E1
1.596762383E1,-6.250446076E0,-1.559243084E1,9.584170591E0,1.934032837E1
1.597760983E1,-4.650364868E0,-1.568658037E1,1.084990158E1,1.963199076E1
1.598759583E1,-3.226277835E0,-1.600543372E1,1.138961595E1,1.990743903E1
1.599758083E1,-2.365199316E0,-1.615003419E1,1.088384466E1,1.961825290E1
1.600756683E1,-6.967945629E-1,-1.619862338E1,1.033433152E1,1.922704684E1
1.601755183E1,1.923664953E0,-1.595377824E1,9.666577740E0,1.875276652E1
1.602753783E1,7.824577925E0,-1.477143616E1,7.406504345E0,1.828320684E1
1.603752383E1,1.634540838E1,-1.178349492E1,3.685961956E0,2.048437070E1
1.604750883E1,2.076829024E1,-8.561090870E0,3.335649419E0,2.270992544E1
1.605749483E1,1.822459005E1,-7.123070506E0,7.914313974E0,2.110711211E1
1.606747983E1,1.387104564E1,-7.087788992E0,1.238768889E1,1.990219827E1
1.607746583E1,1.211912042E1,-7.484734243E0,1.233144569E1,1.884035242E1
1.608745183E1,1.350412233E1,-7.879634723E0,8.126259170E0,1.762061439E1
1.609743683E1,1.662887437E1,-8.264319533E0,4.045259909E0,1.900480381E1
1.610742283E1,1.958791984E1,-7.544333743E0,1.553873586E0,2.104799511E1
1.611740783E1,2.112630590E1,-6.621047866E0,1.061369628E0,2.216496292E1
1.612739383E1,2.143199600E1,-6.221434531E0,1.750587369E0,2.238529107E1
1.613738000E1,2.151933235E1,-5.526946110E0,2.148282233E0,2.232137797E1
1.614736500E1,2.174559855E1,-4.952851274E0,2.252216492E0,2.241593788E1
1.615735100E1,2.149675040E1,-4.800505286E0,2.329290980E0,2.214905699E1
1.616733600E1,2.063804702E1,-4.887520918E0,2.193318073E0,2.132199545E1
1.617732200E1,1.938068516E1,-5.214702455E0,1.875387124E0,2.015740945E1
1.618730800E1,1.768452952E1,-5.490432587E0,1.505004897E0,1.857827963E1
1.619729300E1,1.587567698E1,-5.432144033E0,1.253273492E0,1.682605132E1
1.620727900E1,1.403355847E1,-5.472299786E0,1.392060371E0,1.512695146E1
1.621726400E1,1.218132427E1,-5.773388123E0,1.594770182E0,1.357423896E1
1.622725000E1,1.072833095E1,-6.025818270E0,1.628923184E0,1.241212961E1
1.623723600E1,9.604913004E0,-6.213701588E0,1.835232832E0,1.158587592E1
1.624722100E1,8.587767037E0,-6.515725479E0,2.514860263E0,1.106927926E1
1.625720700E1,7.847234716E0,-6.958591838E0,3.197182090E0,1.096462796E1
1.626719200E1,7.612388901E0,-7.190397102E0,3.832529433E0,1.115072003E1
1.627717800E1,7.617039192E0,-7.344431473E0,4.539016925E0,1.151358477E1
1.628716400E1,7.698962776E0,-7.745937552E0,5.577911611E0,1.226322447E1
1.629714900E1,7.479188159E0,-8.375407274E0,6.457640408E0,1.295325527E1
1.630713500E1,7.079490623E0,-8.822333356E0,6.988931286E0,1.329653766E1
1.631712100E1,6.459410360E0,-9.086935651E0,7.494711932E0,1.343380395E1
1.632710600E1,5.862954603E0,-9.720190276E0,8.239154871E0,1.402640398E1
1.633709200E1,5.311924109E0,-1.041967163E1,8.700126548E0,1.457663530E1
1.634707700E1,4.702291651E0,-1.095219277E1,8.861492743E0,1.485220949E1
1.635706300E1,4.134395449E0,-1.150643280E1,9.139016801E0,1.526475842E1
1.636704900E1,3.440884683E0,-1.205465838E1,9.389990991E0,1.566289906E1
1.637703400E1,2.729001964E0,-1.263980913E1,9.508517561E0,1.605067391E1
1.638702000E1,1.893240720E0,-1.333879815E1,9.682217288E0,1.659075731E1
1.639700500E1,9.367368114E-1,-1.398675736E1,9.905589112E0,1.716471826E1
1.640699100E1,1.877482474E-1,-1.520577318E1,1.011505860E1,1.826376735E1
1.641697700E1,-1.320256271E0,-1.616076383E1,9.431922544E0,1.875831888E1
1.642696200E1,-2.956342001E0,-1.613378244E1,8.241789626E0,1.835663341E1
1.643694800E1,-3.724493645E0,-1.581445898E1,7.517449415E0,1.790198345E1
1.644693300E1,-4.320190142E0,-1.540795820E1,6.671775970E0,1.733729545E1
1.645691900E1,-5.166925440E0,-1.497075370E1,5.617901888E0,1.680420800E1
1.646690500E1,-6.368580297E0,-1.466009465E1,4.799546635E0,1.668870390E1
1.647689000E1,-7.785034375E0,-1.419155725E1,4.158323425E0,1.671223238E1
1.648687600E1,-9.612495673E0,-1.330671799E1,3.467101551E0,1.677765210E1
