"Time (s)","Linear Acceleration x (m/s^2)","Linear Acceleration y (m/s^2)","Linear Acceleration z (m/s^2)","Absolute acceleration (m/s^2)"
2.169000043E-3,-2.377005137E0,8.186008358E-1,8.526427406E-1,2.654667661E0
1.215400000E-2,-3.184257112E0,1.011336173E0,1.126408208E0,3.525775044E0
2.214000002E-2,-3.531915013E0,1.128573432E0,1.058492213E0,3.855970360E0
3.212500003E-2,-3.720562854E0,1.217397900E0,8.467002153E-1,4.005189990E0
4.211100005E-2,-3.602263157E0,1.242105895E0,9.053150439E-1,3.916468081E0
5.209600000E-2,-3.369330550E0,1.459708271E0,1.356951057E0,3.914645931E0
6.208200002E-2,-3.440908948E0,1.592200330E0,1.941141111E0,4.259458310E0
7.206700003E-2,-3.745378438E0,1.452623200E0,2.393844241E0,4.676372959E0
8.205300005E-2,-4.194436121E0,1.165126131E0,2.626551729E0,5.084248938E0
9.203900001E-2,-4.701520111E0,8.065444618E-1,2.800123987E0,5.531319885E0
1.020240000E-1,-5.021815674E0,4.964964366E-1,3.078905196E0,5.911412571E0
1.120100000E-1,-4.951695864E0,1.506821626E-1,3.204554259E0,5.900098732E0
1.219950000E-1,-4.864871436E0,-3.269698673E-1,2.894501556E0,5.670275359E0
1.319810000E-1,-4.651406550E0,-7.975087595E-1,2.221791090E0,5.216124879E0
1.419660000E-1,-4.076761199E0,-1.145136255E0,1.421393806E0,4.466730265E0
1.519520000E-1,-3.278175382E0,-1.421172781E0,6.705785716E-1,3.635359890E0
1.619370000E-1,-2.827809676E0,-1.412128893E0,3.226633930E-1,3.177220049E0
1.719230000E-1,-2.628730987E0,-1.509786749E0,4.335271865E-1,3.062291373E0
1.819080000E-1,-2.570670474E0,-1.767995115E0,6.483614910E-1,3.186616707E0
1.918940000E-1,-2.709040155E0,-2.078060682E0,7.909283030E-1,3.504682916E0
2.018790000E-1,-2.575542959E0,-2.461212351E0,8.536215645E-1,3.663285076E0
2.118650000E-1,-2.319087735E0,-2.743989547E0,6.569107050E-1,3.652283975E0
2.218500000E-1,-2.176806706E0,-3.086567388E0,3.519906878E-1,3.793320856E0
2.318360000E-1,-1.756272325E0,-3.560393000E0,-5.709396780E-2,3.970409363E0
2.418210000E-1,-1.362011676E0,-3.727531566E0,-6.002324742E-1,4.013707314E0
2.518070000E-1,-8.748916885E-1,-3.779467705E0,-1.109715577E0,4.035006848E0
2.617920000E-1,-5.321042258E-1,-3.625166116E0,-1.372998741E0,3.912810986E0
2.717780000E-1,-6.415983090E-1,-3.405016692E0,-1.322905059E0,3.708889977E0
2.817630000E-1,-8.358624011E-1,-3.447807201E0,-1.101542339E0,3.714759208E0
2.917490000E-1,-9.061482722E-1,-3.593288265E0,-8.765724707E-1,3.808044714E0
3.017340000E-1,-7.080144927E-1,-3.747928993E0,-7.615442902E-1,3.889499449E0
3.117200000E-1,-4.580036312E-1,-3.759504141E0,-8.685875130E-1,3.885625173E0
3.217050000E-1,-1.110737085E-2,-3.730285605E0,-1.155157213E0,3.905066229E0
3.316910000E-1,4.145719752E-1,-3.851077386E0,-1.379255261E0,4.111570506E0
3.416760000E-1,7.755518800E-1,-3.884900604E0,-1.630017782E0,4.283794042E0
3.516620000E-1,1.362125551E0,-3.730981423E0,-1.780478336E0,4.352667171E0
3.616470000E-1,2.169658777E0,-3.443536980E0,-1.741278602E0,4.426897029E0
3.716330000E-1,2.808596895E0,-3.241120992E0,-1.441244518E0,4.524407979E0
3.816180000E-1,3.390471743E0,-3.148453733E0,-9.833706951E-1,4.730230172E0
3.916040000E-1,4.032075022E0,-2.779978575E0,-5.858921778E-1,4.932461810E0
4.015890000E-1,4.581849242E0,-2.006857383E0,-3.934041774E-1,5.017527865E0
4.115750000E-1,5.211895791E0,-1.226941726E0,-4.227981305E-1,5.371033606E0
4.215600000E-1,6.043133630E0,-5.292139471E-1,-2.706828153E-1,6.072297807E0
4.315460000E-1,7.666189132E0,2.124006933E-1,-9.583644927E-2,7.669729754E0
4.415310000E-1,9.609953889E0,8.898573446E-1,2.715096116E-2,9.651103409E0
4.515179167E-1,1.126470539E1,1.362163850E0,3.137686086E-1,1.135110253E1
4.615029167E-1,1.271102588E1,1.563648376E0,8.792002094E-1,1.283698439E1
4.714889167E-1,1.373774900E1,2.034473197E0,1.385359755E0,1.395650567E1
4.814739167E-1,1.412383948E1,2.364779486E0,1.812875419E0,1.443473384E1
4.914599167E-1,1.411010437E1,2.259661751E0,1.951641541E0,1.442255252E1
5.014449167E-1,1.378209078E1,1.865359442E0,1.888817301E0,1.403542742E1
5.114309167E-1,1.323086440E1,1.316764898E0,1.899146993E0,1.343117277E1
5.214159167E-1,1.272648592E1,6.468651885E-1,1.847439187E0,1.287613723E1
5.314019167E-1,1.206412268E1,-8.940977454E-2,1.801977963E0,1.219828573E1
5.413869167E-1,1.132777112E1,-8.575000226E-1,1.903173385E0,1.151849703E1
5.513729167E-1,1.064902867E1,-1.703823093E0,2.034737492E0,1.097474288E1
5.613579167E-1,9.966657432E0,-2.557018395E0,2.068015750E0,1.049520331E1
5.713439167E-1,8.912992680E0,-3.511831289E0,2.264281052E0,9.843849156E0
5.813289167E-1,7.900839651E0,-4.593515899E0,2.621991486E0,9.507812306E0
5.913149167E-1,7.057666476E0,-5.463551767E0,2.828393228E0,9.362737967E0
6.012999167E-1,6.339726627E0,-6.188636913E0,2.669246052E0,9.252904140E0
6.112859167E-1,5.583710879E0,-6.932431980E0,2.543469519E0,9.257736091E0
6.212709167E-1,4.687043867E0,-7.670326037E0,2.476927913E0,9.324025612E0
6.312569167E-1,3.823749254E0,-8.210188349E0,2.234870726E0,9.328606447E0
6.412419167E-1,3.189840910E0,-8.551237142E0,1.877413769E0,9.317908787E0
6.512279167E-1,2.790677810E0,-9.039776688E0,1.808022230E0,9.631946303E0
6.612129167E-1,2.364162020E0,-9.497917728E0,1.919972728E0,9.974266816E0
6.711989167E-1,2.043213323E0,-9.615062601E0,1.973748109E0,1.002595786E1
6.811839167E-1,1.779801374E0,-9.565654213E0,2.177676479E0,9.970542027E0
6.911699167E-1,1.446996132E0,-9.738282731E0,2.439063391E0,1.014282892E1
7.011549167E-1,8.773773399E-1,-9.939664346E0,2.512256205E0,1.028971086E1
7.111409167E-1,2.518299302E-1,-9.809284301E0,2.434711893E0,1.011005929E1
7.211259167E-1,-2.343107951E-1,-9.726772487E0,2.194366771E0,9.973978649E0
7.311119167E-1,-9.315411218E-1,-9.587865447E0,1.956483327E0,9.829687670E0
7.410969167E-1,-1.829136233E0,-9.251625988E0,1.962635475E0,9.632770152E0
7.510829167E-1,-2.680339097E0,-8.815039539E0,2.128137406E0,9.456114877E0
7.610679167E-1,-3.510005788E0,-8.376811776E0,2.193210777E0,9.343515916E0
7.710539167E-1,-4.343307694E0,-7.712436515E0,1.961312835E0,9.066021551E0
7.810389167E-1,-5.388265357E0,-6.869354557E0,1.457568775E0,8.851324326E0
7.910249167E-1,-6.440801597E0,-6.082283077E0,8.914983657E-1,8.903530871E0
8.010099167E-1,-7.517599688E0,-5.249258915E0,4.630790144E-1,9.180602725E0
8.109959167E-1,-8.770922881E0,-4.453403748E0,2.037076378E-1,9.838871375E0
8.209809167E-1,-1.005935217E1,-3.651307263E0,-7.092964947E-3,1.070152611E1
8.309669167E-1,-1.151358160E1,-2.827810553E0,-1.170866928E-1,1.185633937E1
8.409519167E-1,-1.278159593E1,-2.027829006E0,-3.271596095E-1,1.294559069E1
8.509379167E-1,-1.385147384E1,-1.216306810E0,-7.549787441E-1,1.392525485E1
8.609229167E-1,-1.453900349E1,-6.226951379E-1,-1.150889038E0,1.459777097E1
8.709089167E-1,-1.472361997E1,-2.094344008E-1,-1.554814695E0,1.480696783E1
8.808939167E-1,-1.463419850E1,1.348408860E-1,-1.766276911E0,1.474102038E1
8.908799167E-1,-1.429162650E1,3.793574113E-1,-1.603726362E0,1.438632818E1
9.008649167E-1,-1.383452393E1,4.349784654E-1,-1.012547132E0,1.387834681E1
9.108509167E-1,-1.333760883E1,3.938035423E-1,-2.253069600E-1,1.334532329E1
9.208359167E-1,-1.273978833E1,3.083008772E-1,5.667261744E-1,1.275611362E1
9.308219167E-1,-1.210718392E1,8.419639707E-2,1.343751260E0,1.218181673E1
9.408069167E-1,-1.154973961E1,-2.113441014E-1,2.186862455E0,1.175684987E1
9.507929167E-1,-1.079718542E1,-6.256292707E-1,2.943368784E0,1.120865936E1
9.607779167E-1,-9.967870145E0,-1.106827637E0,3.357386151E0,1.057617816E1
9.707639167E-1,-9.299332836E0,-1.598717637E0,3.412452012E0,1.003385858E1
9.807489167E-1,-8.754654758E0,-2.222355931E0,3.130855953E0,9.559555681E0
9.907349167E-1,-8.333659909E0,-2.839868681E0,2.448362803E0,9.138338034E0
1.000719917E0,-7.887688678E0,-3.633749828E0,1.548799957E0,8.821482404E0
1.010705917E0,-7.463891843E0,-4.342841671E0,6.919402045E-1,8.663067382E0
1.020690917E0,-7.121881768E0,-4.885448665E0,1.012065321E-1,8.637074234E0
1.030676917E0,-6.833452068E0,-5.402239618E0,-2.425565386E-1,8.714303973E0
1.040661917E0,-6.399979845E0,-6.010164689E0,-4.642288694E-1,8.791890016E0
1.050647917E0,-5.921113933E0,-6.644736106E0,-4.741796610E-1,8.912741132E0
1.060632917E0,-5.491850536E0,-7.229790963E0,-2.536946073E-1,9.082657135E0
1.070618917E0,-4.829414797E0,-7.816872464E0,4.058055371E-2,9.188492215E0
1.080603917E0,-3.939700125E0,-8.157527155E0,3.761622003E-1,9.066861881E0
1.090589917E0,-3.123099037E0,-8.440344697E0,8.932060450E-1,9.043836754E0
1.100574917E0,-2.495055743E0,-8.705411847E0,1.592106775E0,9.194797581E0
1.110560917E0,-2.034771405E0,-8.864110542E0,2.127078475E0,9.340086360E0
1.120545917E0,-1.550127275E0,-8.974514160E0,2.294771942E0,9.392059265E0
1.130531917E0,-8.675841308E-1,-9.054139788E0,2.077368371E0,9.329823625E0
1.140516917E0,-2.494518676E-1,-9.131162236E0,1.935655545E0,9.337403944E0
1.150502917E0,4.056216422E-1,-9.248105380E0,2.238064476E0,9.523702779E0
1.160487917E0,1.303754990E0,-9.062079722E0,2.944793458E0,9.617321585E0
1.170473917E0,2.524244167E0,-8.615852383E0,3.701743006E0,9.711211160E0
1.180458917E0,3.774600190E0,-7.863688781E0,4.345858249E0,9.745342055E0
1.190444917E0,4.714501222E0,-7.119702510E0,4.411979733E0,9.611568591E0
1.200429917E0,5.161636049E0,-6.652732174E0,3.847271433E0,9.257582274E0
1.210415917E0,5.131970201E0,-6.424237604E0,3.084141670E0,8.781792344E0
1.220400917E0,5.425424412E0,-6.176432605E0,2.190275182E0,8.507693880E0
1.230386917E0,6.148285278E0,-5.635399096E0,1.182632987E0,8.423642657E0
1.240371917E0,7.021144767E0,-4.856031323E0,2.833835524E-1,8.541535008E0
1.250357917E0,7.783967258E0,-3.888964419E0,1.371522903E-2,8.701400959E0
1.260342917E0,8.123644295E0,-2.919247558E0,3.037809795E-1,8.637585647E0
1.270328917E0,8.280371309E0,-2.333995650E0,9.362900841E-1,8.653827120E0
1.280313917E0,8.525117630E0,-1.815764528E0,1.584888387E0,8.859260840E0
1.290299917E0,8.974574386E0,-1.263533016E0,1.864573576E0,9.252898773E0
1.300284917E0,9.362627776E0,-6.495525688E-1,2.160681547E0,9.630641835E0
1.310270917E0,9.773170727E0,-5.681271672E-2,2.655201332E0,1.012759536E1
1.320255917E0,1.051324930E1,3.789504451E-1,2.928739343E0,1.092014325E1
1.330241917E0,1.167245045E1,7.808880490E-1,2.906243935E0,1.205413371E1
1.340226917E0,1.330545148E1,1.370274523E0,2.376813933E0,1.358535741E1
1.350212917E0,1.544875657E1,1.897624962E0,1.330118477E0,1.562159643E1
1.360197917E0,1.718987496E1,2.144239469E0,5.610400495E-1,1.733217614E1
1.370183917E0,1.792131369E1,2.157087556E0,6.206512436E-1,1.806133215E1
1.380168917E0,1.732481349E1,2.012193552E0,1.438696302E0,1.750051235E1
1.390154917E0,1.613466420E1,1.725418614E0,2.312297802E0,1.639058203E1
1.400139917E0,1.497922749E1,1.241279683E0,2.628931839E0,1.525874549E1
1.410125917E0,1.389075543E1,6.074403369E-1,2.310802669E0,1.409474651E1
1.420110917E0,1.261605072E1,-1.161607862E-1,2.093412547E0,1.278908149E1
1.430096917E0,1.114470182E1,-8.025490594E-1,2.249711252E0,1.139779208E1
1.440081917E0,9.770533633E0,-1.450696542E0,2.546988958E0,1.020073530E1
1.450067500E0,8.733346335E0,-2.208489259E0,2.952128790E0,9.479653338E0
1.460052500E0,7.903715311E0,-3.029987975E0,3.310063465E0,9.088787762E0
1.470038500E0,7.190356756E0,-3.950753701E0,3.591421542E0,8.955891568E0
1.480023500E0,6.553649935E0,-4.769031771E0,3.815979474E0,8.958554060E0
1.490009500E0,5.965651006E0,-5.359280124E0,3.964570672E0,8.945875920E0
1.499994500E0,5.476458911E0,-6.049953822E0,4.138389682E0,9.149853147E0
1.509980500E0,5.004793845E0,-6.952487930E0,4.342822375E0,9.604434186E0
1.519965500E0,4.376256169E0,-7.862705280E0,4.422397717E0,1.002653250E1
1.529951500E0,3.534668759E0,-8.583977457E0,4.308578741E0,1.023437360E1
1.539936500E0,2.392018740E0,-9.093564640E0,4.208682862E0,1.030182911E1
1.549922500E0,1.336615757E0,-9.646183237E0,3.902645150E0,1.049123596E1
1.559907500E0,6.213331752E-1,-1.000288795E1,3.150285081E0,1.050562318E1
1.569893500E0,2.604645867E-1,-1.012048013E1,2.133976289E0,1.034629474E1
1.579878500E0,1.670596107E-1,-1.031423113E1,1.469786532E0,1.041976704E1
1.589864500E0,2.200760044E-1,-1.031638057E1,9.204580168E-1,1.035970002E1
1.599849500E0,3.812082743E-1,-1.014474374E1,4.430813907E-1,1.016156811E1
1.609835500E0,4.633036937E-1,-1.000953974E1,1.308159551E-1,1.002111017E1
1.619820500E0,6.341916409E-1,-9.770765183E0,-7.961861193E-3,9.791328546E0
1.629806500E0,8.368774778E-1,-9.532015767E0,1.543103600E-1,9.569926864E0
1.639791500E0,9.875149092E-1,-9.344996082E0,6.237088989E-1,9.417704087E0
1.649777500E0,9.282919702E-1,-9.273192274E0,1.055072031E0,9.379072338E0
1.659762500E0,5.095056143E-1,-9.119148547E0,1.097189379E0,9.199037489E0
1.669748500E0,3.657170266E-2,-8.747359187E0,1.040697967E0,8.809124956E0
1.679733500E0,-5.928451020E-1,-8.288963792E0,8.647271812E-1,8.355006832E0
1.689719500E0,-1.305269272E0,-7.922877222E0,6.193341583E-1,8.053526317E0
1.699704500E0,-2.050364175E0,-7.315454426E0,4.370428249E-1,7.609919392E0
1.709690500E0,-2.901187263E0,-7.007411411E0,3.022721055E-1,7.590261566E0
1.719675500E0,-4.491173252E0,-6.874800069E0,4.133461064E-1,8.222187554E0
1.729661500E0,-6.764274244E0,-6.212003556E0,1.059797604E0,9.244866965E0
1.739646500E0,-9.070533627E0,-5.418942189E0,2.053086054E0,1.076358105E1
1.749632500E0,-1.130788591E1,-4.679193395E0,2.691828876E0,1.253032631E1
1.759617500E0,-1.335244556E1,-3.481734501E0,2.652947230E0,1.405163359E1
1.769603500E0,-1.494675790E1,-1.914880680E0,2.599489938E0,1.529149070E1
1.779588500E0,-1.607121957E1,-6.847773653E-1,2.301733930E0,1.624964608E1
1.789574500E0,-1.675240148E1,3.245912200E-1,1.272268757E0,1.680377882E1
1.799559500E0,-1.708973905E1,8.684787548E-1,2.470969015E-1,1.711357628E1
1.809545500E0,-1.702144708E1,9.949359030E-1,-7.007420182E-1,1.706489371E1
1.819530500E0,-1.684716146E1,1.213837531E0,-1.182717479E0,1.693219039E1
1.829516500E0,-1.641299283E1,1.053349003E0,-9.923233670E-1,1.647666785E1
1.839501500E0,-1.576897349E1,8.150094759E-1,-2.455900741E-1,1.579193084E1
1.849487500E0,-1.503971694E1,5.504235524E-1,9.938366264E-1,1.508256486E1
1.859472500E0,-1.425583687E1,4.586555958E-3,2.376449651E0,1.445255752E1
1.869458500E0,-1.312918015E1,-7.561788851E-1,3.651323050E0,1.364841888E1
1.879443500E0,-1.183621927E1,-1.472587933E0,4.642782784E0,1.279922004E1
1.889429500E0,-1.058506715E1,-2.109577174E0,5.088412537E0,1.193255649E1
1.899414500E0,-9.494536868E0,-2.764684598E0,4.893931221E0,1.103359751E1
1.909400500E0,-8.472545899E0,-3.344006844E0,4.212786438E0,1.003563577E1
1.919385500E0,-7.548635539E0,-4.010971836E0,3.284878045E0,9.157522446E0
1.929371500E0,-6.747622544E0,-4.655407507E0,2.309681027E0,8.516915844E0
1.939356500E0,-5.992310216E0,-5.283445246E0,1.646861126E0,8.156882183E0
1.949342500E0,-5.511122375E0,-5.969434154E0,1.227991008E0,8.216725373E0
1.959327500E0,-5.334477990E0,-6.706243553E0,9.655437040E-1,8.623377103E0
1.969313500E0,-5.160288266E0,-7.415987359E0,8.236605777E-1,9.072147499E0
1.979298500E0,-4.951712236E0,-8.166261726E0,7.871527559E-1,9.582635030E0
1.989284500E0,-4.742685971E0,-9.014238389E0,9.748805380E-1,1.023229964E1
1.999269500E0,-4.264743919E0,-9.769896287E0,1.440292445E0,1.075701429E1
2.009255500E0,-3.905839191E0,-1.024346345E1,2.005708843E0,1.114481903E1
2.019240500E0,-3.806304963E0,-1.057512805E1,2.238291932E0,1.145998436E1
2.029226500E0,-3.364460989E0,-1.102206933E1,1.934642515E0,1.168539481E1
2.039211500E0,-2.748927229E0,-1.139361428E1,1.210105691E0,1.178284359E1
2.049197500E0,-2.342777729E0,-1.166085659E1,6.828875452E-1,1.191345959E1
2.059182500E0,-2.117776725E0,-1.191502570E1,9.184687941E-1,1.213657285E1
2.069168500E0,-1.638791237E0,-1.220347704E1,1.535198749E0,1.240835701E1
2.079153500E0,-7.572882481E-1,-1.213976227E1,2.037787984E0,1.233287855E1
2.089139500E0,4.275180761E-1,-1.192321882E1,2.427644656E0,1.217535943E1
2.099124500E0,1.455034153E0,-1.163528789E1,2.618497482E0,1.201472337E1
2.109110500E0,2.092437523E0,-1.118098028E1,2.843502434E0,1.172510644E1
2.119095500E0,2.378533161E0,-1.058736861E1,3.844019504E0,1.151200591E1
2.129081500E0,2.962148286E0,-9.681829033E0,4.720346684E0,1.117111493E1
2.139066500E0,4.099675852E0,-8.873518712E0,4.557856362E0,1.078520890E1
2.149052500E0,4.946290113E0,-8.069777990E0,4.166504849E0,1.034151175E1
2.159037500E0,6.104912387E0,-7.289029689E0,4.043660111E0,1.033204221E1
2.169023500E0,8.333131320E0,-6.437917750E0,4.089783240E0,1.129664506E1
2.179008500E0,1.102427958E1,-4.923915743E0,4.000380190E0,1.271938395E1
2.188994500E0,1.322670352E1,-3.089231964E0,4.236913512E0,1.422815787E1
2.198979500E0,1.426519475E1,-1.615856996E0,4.899717625E0,1.516950915E1
2.208965500E0,1.420928367E1,-6.643314064E-1,5.580618871E0,1.528032675E1
2.218950500E0,1.412127606E1,-2.097507352E-1,5.642798163E0,1.520840570E1
2.228936500E0,1.479045481E1,1.485134304E-1,4.981599694E0,1.560756052E1
2.238921500E0,1.559382014E1,6.235821605E-1,4.005553222E0,1.611212394E1
2.248907500E0,1.620401452E1,9.012518138E-1,3.114096079E0,1.652513043E1
2.258892500E0,1.631475493E1,1.014626402E0,2.666764493E0,1.656237689E1
2.268878500E0,1.626236739E1,1.286693838E0,2.272166022E0,1.647066825E1
2.278863500E0,1.625260488E1,1.452930179E0,1.878113388E0,1.642514783E1
2.288849500E0,1.630845280E1,1.351847607E0,1.475186436E0,1.643074252E1
2.298834500E0,1.640082946E1,1.261844925E0,1.171046729E0,1.649093114E1
2.308820500E0,1.598852708E1,1.072982783E0,1.324777923E0,1.607915815E1
2.318805500E0,1.489048196E1,5.916914463E-1,1.827955973E0,1.501392603E1
2.328791500E0,1.371579271E1,-5.177007794E-2,2.258827354E0,1.390064569E1
2.338776500E0,1.249158689E1,-8.173448539E-1,2.430220354E0,1.275201030E1
2.348762500E0,1.109902337E1,-1.577193452E0,2.396735689E0,1.146386501E1
2.358747500E0,9.920678437E0,-2.108198401E0,2.483859787E0,1.044193088E1
2.368733500E0,9.240887577E0,-2.627534062E0,2.727439588E0,9.986834592E0
2.378718500E0,8.916545448E0,-3.144316828E0,3.067330633E0,9.939820333E0
2.388704500E0,8.583959330E0,-3.698683743E0,3.437042769E0,9.958809277E0
2.398689500E0,8.106079259E0,-4.295668674E0,3.763025627E0,9.915727516E0
2.408675500E0,7.396359426E0,-5.069482761E0,4.218744166E0,9.909772478E0
2.418660500E0,7.063171045E0,-5.848817205E0,4.422838305E0,1.018128413E1
2.428646500E0,6.918506836E0,-6.553567489E0,4.579128824E0,1.057276712E1
2.438631500E0,6.594552378E0,-7.350593854E0,4.778565656E0,1.097059893E1
2.448617500E0,6.149418468E0,-8.152442417E0,4.851971017E0,1.130571924E1
2.458602292E0,5.506946293E0,-8.925377668E0,4.705112056E0,1.149464673E1
2.468588292E0,4.713396391E0,-9.538530734E0,4.356481178E0,1.149689534E1
2.478573292E0,3.980668641E0,-1.014746971E1,3.909900375E0,1.158033615E1
2.488559292E0,3.225485829E0,-1.064948007E1,3.450255430E0,1.164986898E1
2.498544292E0,2.486742464E0,-1.102949296E1,3.090413686E0,1.172110318E1
2.508530292E0,1.910011412E0,-1.142656100E1,2.417202990E0,1.183458112E1
2.518515292E0,1.357523792E0,-1.157675726E1,1.572437326E0,1.176166394E1
2.528501292E0,8.049474411E-1,-1.147970284E1,1.174288718E0,1.156764762E1
2.538486292E0,2.050732550E-1,-1.124442842E1,1.269476711E0,1.131772047E1
2.548472292E0,-4.091770416E-1,-1.093713268E1,1.539400558E0,1.105251334E1
2.558457292E0,-1.181156273E0,-1.063469831E1,1.675883050E0,1.083053657E1
2.568443292E0,-2.086534759E0,-1.039985074E1,1.766134823E0,1.075312768E1
2.578428292E0,-2.939740002E0,-1.002710595E1,1.892482044E0,1.061915313E1
2.588414292E0,-3.654517384E0,-9.368084983E0,2.029593111E0,1.025844831E1
2.598399292E0,-4.830112370E0,-8.737492595E0,2.371559040E0,1.026148404E1
2.608385292E0,-6.799753395E0,-8.131439218E0,2.688968418E0,1.093560703E1
2.618370292E0,-8.984285442E0,-7.353412212E0,2.704157145E0,1.192067624E1
2.628356292E0,-1.087648653E1,-6.498474439E0,2.214457804E0,1.286203532E1
2.638341292E0,-1.193877709E1,-5.683314689E0,1.245984645E0,1.328107458E1
2.648327292E0,-1.219627911E1,-4.562071912E0,1.979416984E-1,1.302309123E1
2.658312292E0,-1.210152849E1,-3.237358308E0,-2.769367048E-1,1.253013067E1
2.668298292E0,-1.187833793E1,-2.201832204E0,-1.152837038E-2,1.208069162E1
2.678283292E0,-1.181776896E1,-1.400737347E0,4.655374762E-1,1.190959502E1
2.688269292E0,-1.184788329E1,-6.279067612E-1,7.249395508E-1,1.188663715E1
2.698254292E0,-1.192394621E1,-7.297559023E-2,1.026638337E0,1.196828329E1
2.708240292E0,-1.233234733E1,3.243602550E-1,1.357929004E0,1.241112289E1
2.718225292E0,-1.282015831E1,6.447549284E-1,1.535080927E0,1.292782432E1
2.728211292E0,-1.331717164E1,7.736410099E-1,1.509632675E0,1.342477455E1
2.738196292E0,-1.376082094E1,7.915323204E-1,1.461434661E0,1.386082637E1
2.748182292E0,-1.401906673E1,5.695977420E-1,1.303935815E0,1.409109372E1
2.758167292E0,-1.397919574E1,1.239814371E-1,1.025148759E0,1.401728272E1
2.768153292E0,-1.372440916E1,-3.181546050E-1,7.526164690E-1,1.374871124E1
2.778138292E0,-1.334161768E1,-7.400885171E-1,5.887687156E-1,1.337509409E1
2.788124292E0,-1.285705892E1,-1.184764005E0,7.088711098E-1,1.293097553E1
2.798109292E0,-1.206000391E1,-1.615054758E0,9.511577994E-1,1.220478583E1
2.808095292E0,-1.089591682E1,-2.041966989E0,9.607253060E-1,1.112715713E1
2.818080292E0,-9.764431479E0,-2.451308337E0,8.640287313E-1,1.010443370E1
2.828066292E0,-8.830405437E0,-2.949384692E0,9.867935090E-1,9.362087997E0
2.838051292E0,-8.078338314E0,-3.573547481E0,1.180683818E0,8.912003466E0
2.848037292E0,-7.576416246E0,-4.157189650E0,1.257505122E0,8.733019412E0
2.858022292E0,-7.013094320E0,-4.727664474E0,1.263290796E0,8.551620137E0
2.868008292E0,-6.357532568E0,-5.309377062E0,1.315834606E0,8.386842425E0
2.877993292E0,-5.789141691E0,-5.843265274E0,1.380373103E0,8.340464045E0
2.887979292E0,-5.305143678E0,-6.373605979E0,1.434516712E0,8.415773335E0
2.897964292E0,-4.794090598E0,-6.889287130E0,1.563326195E0,8.537538909E0
2.907950292E0,-4.210095257E0,-7.334165516E0,1.658687996E0,8.617779979E0
2.917935292E0,-3.672796657E0,-7.737428684E0,1.729657115E0,8.737788717E0
2.927921292E0,-3.143982075E0,-8.173379542E0,1.672700118E0,8.915530388E0
2.937906292E0,-2.439457347E0,-8.579244136E0,1.470392742E0,9.039714426E0
2.947892292E0,-1.865698580E0,-8.814948322E0,1.387121082E0,9.116372634E0
2.957877292E0,-1.502827393E0,-9.047380992E0,1.538122357E0,9.299430809E0
2.967863292E0,-1.331495789E0,-9.274440070E0,1.793956899E0,9.539727512E0
2.977848292E0,-1.274510141E0,-9.498241664E0,1.956770718E0,9.781100268E0
2.987834292E0,-1.274543324E0,-9.782661928E0,2.064535926E0,1.007904974E1
2.997819292E0,-1.331707750E0,-1.022126625E1,2.286513774E0,1.055821361E1
3.007805292E0,-1.406301265E0,-1.057567769E1,2.398654014E0,1.093508952E1
3.017790292E0,-1.267642440E0,-1.082608353E1,2.341310224E0,1.114866519E1
3.027776292E0,-1.101630632E0,-1.094297989E1,2.123507581E0,1.120141435E1
3.037761292E0,-4.934960841E-1,-1.109420292E1,1.338067913E0,1.118549519E1
3.047747292E0,4.148931335E-1,-1.093727067E1,3.992277119E-1,1.095241566E1
3.057732292E0,9.197053340E-1,-1.033753112E1,5.999681801E-2,1.037853589E1
3.067718292E0,1.237596522E0,-9.778089990E0,4.532302567E-1,9.866514413E0
3.077703292E0,1.603988317E0,-9.038400253E0,1.295405604E0,9.270573517E0
3.087689292E0,2.300935200E0,-8.340675398E0,2.389986833E0,8.976257904E0
3.097674292E0,3.695065193E0,-7.672793562E0,3.333513723E0,9.145358472E0
3.107660292E0,6.248477318E0,-6.666350339E0,4.075284484E0,1.000458091E1
3.117645292E0,9.092872914E0,-5.218005547E0,4.905894624E0,1.157478820E1
3.127631292E0,1.204081919E1,-3.738645369E0,5.923466268E0,1.393004841E1
3.137616292E0,1.507463417E1,-1.959329460E0,6.382822360E0,1.648708551E1
3.147602292E0,1.791777729E1,-5.276468933E-2,6.324615083E0,1.900132319E1
3.157587292E0,1.970316378E1,1.342307290E0,6.649803303E0,2.083833812E1
3.167573292E0,1.978792268E1,1.898399718E0,7.338932167E0,2.119022725E1
3.177558292E0,1.895960026E1,1.796485088E0,7.458773775E0,2.045304640E1
3.187544292E0,1.826014346E1,1.577399858E0,6.605772015E0,1.948222917E1
3.197529292E0,1.794261158E1,1.385240471E0,5.053808130E0,1.869216890E1
3.207515292E0,1.764409719E1,1.101342949E0,3.537764860E0,1.802894623E1
3.217500292E0,1.730095685E1,7.840022761E-1,2.470822250E0,1.749407700E1
3.227486292E0,1.679168776E1,5.333777493E-1,2.047882032E0,1.692451152E1
3.237471292E0,1.615171468E1,2.890576905E-1,2.053197151E0,1.628425804E1
3.247457292E0,1.538706376E1,-1.131547326E-1,2.186896076E0,1.554210570E1
3.257442292E0,1.425178591E1,-5.927287424E-1,2.181079266E0,1.442989383E1
3.267428292E0,1.276851336E1,-1.183976385E0,2.188094171E0,1.300863135E1
3.277413292E0,1.118763909E1,-1.976123832E0,2.250837718E0,1.158164946E1
3.287399292E0,9.680327468E0,-2.832114689E0,2.196700395E0,1.032255328E1
3.297384292E0,8.323217366E0,-3.593521569E0,2.141794163E0,9.315397299E0
3.307370292E0,7.373559963E0,-3.947521945E0,2.097402394E0,8.622726531E0
3.317355292E0,6.809162149E0,-4.323325419E0,2.228295532E0,8.367863098E0
3.327341292E0,6.644297565E0,-4.744260042E0,2.338696226E0,8.492596394E0
3.337326292E0,6.444780042E0,-5.039234530E0,2.389488942E0,8.522835904E0
3.347312292E0,6.007498358E0,-5.392978213E0,2.718744486E0,8.518557514E0
3.357297292E0,5.490344878E0,-5.908370512E0,3.184731321E0,8.671519046E0
3.367283292E0,5.054515643E0,-6.351221083E0,3.576034594E0,8.869845605E0
3.377268292E0,4.530433213E0,-6.853817335E0,3.893027357E0,9.091495980E0
3.387254292E0,4.035239536E0,-7.763356993E0,3.947757003E0,9.598836141E0
3.397239292E0,3.496540820E0,-8.858724087E0,3.876953654E0,1.028268252E1
3.407225292E0,2.737659644E0,-9.447911171E0,3.569008872E0,1.046401597E1
3.417210292E0,2.028098271E0,-9.645005023E0,3.145765184E0,1.034577900E1
3.427196292E0,1.549496214E0,-1.005225833E1,2.708916779E0,1.052554351E1
3.437181292E0,1.333092371E0,-1.031859550E1,1.724915461E0,1.054636817E1
3.447167292E0,1.223748123E0,-1.034548099E1,6.832839864E-1,1.043999107E1
3.457152250E0,1.265566093E0,-1.036401667E1,-3.992186487E-2,1.044107718E1
3.467138250E0,1.396540216E0,-1.052576118E1,-2.233227074E-1,1.062035056E1
3.477123250E0,1.118673804E0,-1.050326811E1,5.884155437E-2,1.056283742E1
3.487109250E0,6.693342841E-1,-1.053595638E1,9.185738978E-1,1.059708277E1
3.497094250E0,7.744374007E-2,-1.044133323E1,1.770552687E0,1.059067014E1
3.507080250E0,-3.588000628E-1,-1.001837138E1,2.220872785E0,1.026785170E1
3.517065250E0,-4.425064632E-1,-9.607018002E0,2.405688653E0,9.913523327E0
3.527051250E0,-5.920963660E-1,-9.071748093E0,2.480622184E0,9.423411166E0
3.537036250E0,-9.110125709E-1,-8.650232257E0,2.725502113E0,9.115087700E0
3.547022250E0,-1.716607445E0,-8.389958071E0,3.258869630E0,9.162879941E0
3.557007250E0,-3.378299595E0,-8.036357059E0,3.531483196E0,9.405706592E0
3.566993250E0,-5.561870359E0,-7.422627457E0,3.453321710E0,9.897233507E0
3.576978250E0,-7.700042757E0,-6.774070669E0,2.949692548E0,1.067142812E1
3.586964250E0,-9.861768909E0,-6.073557277E0,1.926622182E0,1.174114377E1
3.596949250E0,-1.194142471E1,-5.250261712E0,8.444478679E-1,1.307195335E1
3.606935250E0,-1.341534873E1,-4.235640573E0,-3.472602904E-2,1.406817112E1
3.616920250E0,-1.442284738E1,-3.281224120E0,-5.523741835E-1,1.480169164E1
3.626906250E0,-1.520665494E1,-2.595735149E0,-5.514482769E-1,1.543645978E1
3.636891250E0,-1.594096349E1,-1.767139667E0,-4.297653803E-1,1.604436966E1
3.646877250E0,-1.645942090E1,-1.084519340E0,-3.463878858E-1,1.649874853E1
3.656862250E0,-1.692036392E1,-6.655949897E-1,-2.850622880E-1,1.693584933E1
3.666848250E0,-1.701434973E1,-3.706684488E-1,-2.938702413E-1,1.702092393E1
3.676833250E0,-1.660319574E1,-1.867091972E-1,-2.848129043E-1,1.660668804E1
3.686819250E0,-1.600945894E1,-2.134818435E-1,-1.863481316E-1,1.601196664E1
3.696804250E0,-1.548398253E1,-3.821658289E-1,5.967171282E-2,1.548881295E1
3.706790250E0,-1.500222927E1,-7.425133574E-1,4.417442787E-1,1.502708711E1
3.716775250E0,-1.449051720E1,-1.213667961E0,7.223068419E-1,1.455918287E1
3.726761250E0,-1.396394620E1,-1.696588917E0,9.125913191E-1,1.409620624E1
3.736746250E0,-1.309459387E1,-2.173401287E0,9.280010712E-1,1.330613572E1
3.746732250E0,-1.188052011E1,-2.652406948E0,9.066707209E-1,1.220672243E1
3.756717250E0,-1.057631036E1,-3.171348506E0,9.607071796E-1,1.108326443E1
3.766703250E0,-9.360818063E0,-3.678126102E0,1.039552205E0,1.011109268E1
3.776688250E0,-8.190217184E0,-4.188389223E0,1.230832463E0,9.281013434E0
3.786674250E0,-7.135255519E0,-4.791858716E0,1.418786825E0,8.711299405E0
3.796659250E0,-6.473113310E0,-5.476689876E0,1.475728472E0,8.606573212E0
3.806645250E0,-5.947366177E0,-6.162368297E0,1.507168074E0,8.695832512E0
3.816630250E0,-5.446123556E0,-6.687149470E0,1.480201885E0,8.750384417E0
3.826616250E0,-4.980960009E0,-7.243650618E0,1.462768996E0,8.911797239E0
3.836601250E0,-4.588871748E0,-7.808325589E0,1.432393588E0,9.169484381E0
3.846587250E0,-4.148194001E0,-8.316446291E0,1.365636511E0,9.393388923E0
3.856572250E0,-3.596116271E0,-8.738346289E0,1.236728795E0,9.529965698E0
3.866558250E0,-3.032064906E0,-9.148983965E0,1.087512822E0,9.699485003E0
3.876543250E0,-2.499173352E0,-9.444420968E0,1.036752997E0,9.824347899E0
3.886529250E0,-1.938726795E0,-9.666964241E0,1.228841486E0,9.935739058E0
3.896514250E0,-1.359688578E0,-9.805506415E0,1.669047070E0,1.003904513E1
3.906500250E0,-6.782426633E-1,-9.821534218E0,1.878738456E0,1.002258478E1
3.916485250E0,2.516787797E-2,-9.681568832E0,2.000634630E0,9.886149270E0
3.926471250E0,3.483723943E-1,-9.692390859E0,2.209422475E0,9.947127804E0
3.936456250E0,2.571869117E-1,-9.891561642E0,2.245930443E0,1.014659255E1
3.946442250E0,-3.885014333E-2,-1.013231607E1,2.024349621E0,1.033263421E1
3.956427250E0,-1.049502119E-3,-1.051450295E1,1.619969196E0,1.063856539E1
3.966413250E0,4.344924156E-1,-1.097063488E1,9.113081476E-1,1.101699124E1
3.976398250E0,1.288760536E0,-1.126070356E1,-4.503759384E-2,1.133430089E1
3.986384250E0,2.220047742E0,-1.115757972E1,-5.248355520E-1,1.138839978E1
3.996369250E0,3.453648862E0,-1.069085965E1,-3.047627270E-1,1.123899688E1
4.006355250E0,4.308516468E0,-9.688151627E0,7.534827340E-1,1.062973811E1
4.016340250E0,4.588442562E0,-8.612486141E0,2.419021767E0,1.005387433E1
4.026325250E0,4.895729532E0,-7.739880422E0,3.967859146E0,9.980872847E0
4.036311250E0,5.058368374E0,-6.846310680E0,5.016999323E0,9.880756182E0
4.046296250E0,5.271894071E0,-6.353940039E0,5.544464952E0,9.945175349E0
4.056282250E0,6.284877405E0,-5.938294222E0,5.145455634E0,1.006174617E1
4.066267250E0,7.940069790E0,-5.138851204E0,4.119052063E0,1.031596287E1
4.076253250E0,9.568080223E0,-4.181507635E0,3.052534254E0,1.087893058E1
4.086238250E0,1.080723094E1,-3.391641186E0,2.463254784E0,1.159168213E1
4.096224250E0,1.190335466E1,-2.598980353E0,2.141436898E0,1.237054174E1
4.106209250E0,1.327830169E1,-1.672189656E0,1.891360255E0,1.351616653E1
4.116195250E0,1.473660663E1,-7.546831673E-1,1.980690508E0,1.488825902E1
4.126180250E0,1.569340056E1,8.442736208E-2,2.254957666E0,1.585480316E1
4.136166250E0,1.607010977E1,5.177539891E-1,2.722724978E0,1.630735198E1
4.146151250E0,1.614034302E1,7.668085384E-1,2.943504147E0,1.642445995E1
4.156137250E0,1.605981750E1,6.389778793E-1,2.902521597E0,1.633250325E1
4.166122250E0,1.616289573E1,3.949998826E-1,2.593717275E0,1.637444938E1
4.176108250E0,1.630304764E1,2.772509927E-1,1.999962346E0,1.642760116E1
4.186093250E0,1.612018182E1,-2.681065321E-2,1.621745726E0,1.620157523E1
4.196079250E0,1.548791888E1,-5.572133392E-1,1.768047740E0,1.559846501E1
4.206064250E0,1.461954187E1,-9.710131896E-1,2.117096109E0,1.480391728E1
4.216050250E0,1.354087910E1,-1.502946092E0,2.431369917E0,1.383928515E1
4.226035250E0,1.224598746E1,-2.203536667E0,2.567481403E0,1.270479215E1
4.236021250E0,1.088469953E1,-3.044380311E0,2.453471223E0,1.156565849E1
4.246006250E0,9.702953854E0,-3.905292184E0,2.267551984E0,1.070235547E1
4.255992250E0,8.679825600E0,-4.695253943E0,2.077206988E0,1.008462051E1
4.265977250E0,7.787535814E0,-5.397516822E0,1.939845075E0,9.671706200E0
4.275963250E0,7.056377749E0,-5.856630839E0,1.891775993E0,9.363301134E0
4.285948250E0,6.455548275E0,-6.205090978E0,2.060626331E0,9.188222812E0
4.295934250E0,5.872491996E0,-6.530693766E0,2.362326287E0,9.094872666E0
4.305919250E0,5.305924866E0,-6.832814137E0,2.658186336E0,9.050201230E0
4.315905250E0,4.754282462E0,-7.114631805E0,2.744645897E0,8.986337883E0
4.325890250E0,4.139463816E0,-7.489724842E0,2.800337118E0,9.004056134E0
4.335876250E0,3.457383771E0,-7.876349757E0,2.814840260E0,9.050619522E0
4.345861250E0,2.787441084E0,-8.416446542E0,2.582572774E0,9.234504985E0
4.355847250E0,2.088988689E0,-9.046250725E0,2.153188340E0,9.530726412E0
4.365832250E0,1.443404480E0,-9.377745752E0,1.575804153E0,9.618143824E0
4.375818250E0,1.005890881E0,-9.566245367E0,9.774986288E-1,9.668524730E0
4.385803250E0,6.156004187E-1,-9.597113403E0,5.370138404E-1,9.631818801E0
4.395789250E0,2.462034104E-1,-9.502296708E0,3.559910604E-1,9.512149520E0
4.405774250E0,-4.575797081E-2,-9.416318080E0,2.759251365E-1,9.420471042E0
4.415760250E0,-2.694820896E-1,-9.286647887E0,1.895065051E-1,9.292489563E0
4.425745250E0,-5.370283122E-1,-9.232745329E0,1.021371165E-1,9.248914407E0
4.435731250E0,-9.553718877E-1,-9.349504285E0,1.741482085E-1,9.399802840E0
4.445716250E0,-1.581701362E0,-9.317367988E0,3.844351333E-1,9.458483800E0
4.455701917E0,-2.101589293E0,-9.132355653E0,5.746818960E-1,9.388655740E0
4.465686917E0,-2.828092974E0,-8.917262902E0,7.471519536E-1,9.384770832E0
4.475672917E0,-4.082697584E0,-8.632380123E0,8.648037797E-1,9.588237155E0
4.485657917E0,-5.463666372E0,-8.153565082E0,9.972262573E-1,9.865431262E0
4.495643917E0,-7.185826333E0,-7.421331714E0,9.774571136E-1,1.037630411E1
4.505628917E0,-8.774820051E0,-6.597858979E0,8.148530629E-1,1.100877811E1
4.515614917E0,-9.720142329E0,-5.669045144E0,3.213822681E-1,1.125711003E1
4.525599917E0,-1.042234381E1,-4.749368754E0,-6.002429992E-1,1.146917808E1
4.535585917E0,-1.058805156E1,-3.957018408E0,-1.549711246E0,1.140905060E1
4.545570917E0,-1.055816995E1,-3.085942320E0,-2.278378104E0,1.123338772E1
4.555556917E0,-1.075607248E1,-2.222327864E0,-2.499240011E0,1.126401513E1
4.565541917E0,-1.106461367E1,-1.433061340E0,-2.292728048E0,1.139016868E1
4.575527917E0,-1.161677209E1,-6.846843946E-1,-2.122047531E0,1.182883225E1
4.585512917E0,-1.231517640E1,-1.123179960E-1,-1.904776692E0,1.246211697E1
4.595498917E0,-1.287630094E1,3.908197081E-1,-1.665736669E0,1.298947822E1
4.605483917E0,-1.320128100E1,7.409088814E-1,-1.227246366E0,1.327888925E1
4.615469917E0,-1.344419539E1,9.257381988E-1,-9.634334439E-1,1.351042504E1
4.625454917E0,-1.348095449E1,8.942357397E-1,-9.620435607E-1,1.354478938E1
4.635440917E0,-1.349757228E1,7.762652403E-1,-9.541001183E-1,1.355349963E1
4.645425917E0,-1.325059525E1,6.493847537E-1,-9.490492934E-1,1.330040110E1
4.655411917E0,-1.270447700E1,4.939067048E-1,-8.624423817E-1,1.274329182E1
4.665396917E0,-1.203055031E1,2.267456675E-1,-3.860688454E-1,1.203887883E1
4.675382917E0,-1.140934914E1,-7.379186153E-2,8.687179059E-2,1.140991848E1
4.685367917E0,-1.070908893E1,-3.921376705E-1,3.504674882E-1,1.072199539E1
4.695353917E0,-9.876744797E0,-7.729223871E-1,5.588420811E-1,9.922691232E0
4.705338917E0,-8.998511717E0,-1.253543633E0,6.418205032E-1,9.108046900E0
4.715324917E0,-8.113220463E0,-1.735633115E0,6.654888627E-1,8.323439435E0
4.725309917E0,-7.312581689E0,-2.285934461E0,6.587417606E-1,7.689817165E0
4.735295917E0,-6.607700427E0,-2.917661793E0,7.179430649E-1,7.258780718E0
4.745280917E0,-6.186792117E0,-3.523850825E0,8.053513375E-1,7.165368945E0
4.755266917E0,-5.847051930E0,-4.163853722E0,8.376414165E-1,7.226848361E0
4.765251917E0,-5.515752200E0,-4.874454730E0,7.844466645E-1,7.402647352E0
4.775237917E0,-5.092279301E0,-5.514207950E0,7.116035137E-1,7.539507766E0
4.785222917E0,-4.627438813E0,-6.080224857E0,7.363971698E-1,7.676236387E0
4.795208917E0,-4.457806409E0,-6.597299400E0,7.355538552E-1,7.996088845E0
4.805193917E0,-4.448927412E0,-7.163224506E0,6.352939872E-1,8.456260337E0
4.815179917E0,-4.349116610E0,-7.793140955E0,4.562167221E-1,8.936218156E0
4.825164917E0,-4.142603186E0,-8.316052773E0,4.169614398E-1,9.300094178E0
4.835150917E0,-4.075468379E0,-8.805673469E0,4.646805668E-1,9.714178080E0
4.845135917E0,-3.900084069E0,-9.345334636E0,4.947210757E-1,1.013857407E1
4.855121917E0,-3.425897684E0,-9.761635925E0,4.770257932E-1,1.035634417E1
4.865106917E0,-2.821039185E0,-1.011086731E1,6.214107969E-1,1.051541969E1
4.875092917E0,-2.424779812E0,-1.040790821E1,8.618377796E-1,1.072132803E1
4.885077917E0,-2.162271551E0,-1.064452163E1,1.027583101E0,1.091041640E1
4.895063917E0,-2.006629926E0,-1.075554155E1,1.040809649E0,1.099051966E1
4.905048917E0,-1.724635964E0,-1.095986314E1,8.693207538E-1,1.112873254E1
4.915034917E0,-1.543719019E0,-1.102541862E1,8.777214485E-1,1.116751177E1
4.925019917E0,-1.394508747E0,-1.102336274E1,8.841048539E-1,1.114633671E1
4.935005917E0,-1.152193844E0,-1.095973801E1,8.059883916E-1,1.104957127E1
4.944990917E0,-9.140440598E-1,-1.073728303E1,1.163017040E0,1.083869605E1
4.954976917E0,-5.397228554E-1,-1.054428632E1,1.923505324E0,1.073187531E1
4.964961917E0,1.367587727E-1,-1.035450792E1,3.006745000E0,1.078309106E1
4.974947917E0,1.125543405E0,-9.890696254E0,4.290520785E0,1.083980115E1
4.984932917E0,3.066115581E0,-9.201538739E0,5.398013835E0,1.109990690E1
4.994918917E0,6.268739090E0,-7.994114435E0,5.894476358E0,1.174511843E1
5.004903917E0,9.496878678E0,-6.402784755E0,5.510576245E0,1.271034255E1
5.014889917E0,1.191973856E1,-4.472590801E0,4.598525501E0,1.353627248E1
5.024874917E0,1.381637651E1,-2.867844100E0,3.320831405E0,1.449636889E1
5.034860917E0,1.542869009E1,-1.827967082E0,2.188888515E0,1.569003424E1
5.044845917E0,1.669161617E1,-8.533332968E-1,1.504159681E0,1.678096315E1
5.054831917E0,1.759549747E1,-1.011100531E-2,1.028976054E0,1.762556170E1
5.064816917E0,1.776209634E1,4.512992138E-1,8.889948803E-1,1.779005479E1
5.074802917E0,1.772002913E1,5.242157471E-1,1.282786728E0,1.777413223E1
5.084787917E0,1.801530651E1,7.678879344E-1,2.011503580E0,1.814351309E1
5.094773917E0,1.843962959E1,1.172674302E0,2.941359973E0,1.870953508E1
5.104758917E0,1.857621353E1,1.465711023E0,3.643369083E0,1.898678899E1
5.114744917E0,1.828922283E1,1.426376218E0,3.845411434E0,1.874346313E1
5.124729917E0,1.794684731E1,9.337705189E-1,3.537726561E0,1.831602481E1
5.134715917E0,1.707257864E1,4.813597494E-1,2.893729139E0,1.732276874E1
5.144700917E0,1.563397882E1,-1.670485193E-1,2.386325306E0,1.581593334E1
5.154686917E0,1.387648589E1,-9.910708934E-1,1.939082598E0,1.404632064E1
5.164671917E0,1.207998033E1,-1.765320598E0,1.558254320E0,1.230733270E1
5.174656917E0,1.048307182E1,-2.541118646E0,1.349987901E0,1.087081166E1
5.184642917E0,9.084161147E0,-3.294811880E0,1.259046448E0,9.744894409E0
5.194628917E0,7.825050380E0,-3.984621944E0,1.269976648E0,8.872511830E0
5.204613917E0,6.791435730E0,-4.664287673E0,1.390505012E0,8.355398433E0
5.214598917E0,6.312853993E0,-5.284608257E0,1.654081706E0,8.397332687E0
5.224584917E0,6.200873966E0,-5.745243720E0,1.828859075E0,8.648895239E0
5.234569917E0,5.780759708E0,-6.333290597E0,2.111568736E0,8.830995137E0
5.244555917E0,5.466637343E0,-6.878523576E0,2.438131929E0,9.118261771E0
5.254540917E0,5.156611537E0,-7.383607818E0,2.830241826E0,9.440263542E0
5.264526917E0,4.415377550E0,-7.796910655E0,3.189825708E0,9.511170418E0
5.274511917E0,3.809395801E0,-8.301581499E0,3.323068550E0,9.719595482E0
5.284497917E0,3.221533989E0,-8.969646353E0,3.173595591E0,1.004512548E1
5.294482917E0,2.925170202E0,-9.575217919E0,2.877239991E0,1.041728990E1
5.304468917E0,2.510284232E0,-1.006445562E1,2.641222978E0,1.070377750E1
5.314453917E0,2.027381987E0,-1.040287024E1,2.778350126E0,1.095669733E1
5.324439917E0,1.653396559E0,-1.043636544E1,3.217543264E0,1.104554337E1
5.334424917E0,1.483226211E0,-1.020791940E1,3.946833728E0,1.104441374E1
5.344410917E0,1.503080578E0,-9.889805138E0,4.442843091E0,1.094560878E1
5.354395917E0,1.802354524E0,-9.772636292E0,4.915820857E0,1.108684791E1
5.364381917E0,2.173874035E0,-9.656883641E0,5.516962574E0,1.133216687E1
5.374366917E0,2.354386060E0,-9.416098225E0,5.866387503E0,1.134109967E1
5.384352917E0,2.255916902E0,-9.609957397E0,5.921824955E0,1.151123160E1
5.394337917E0,1.886398601E0,-9.837281939E0,5.612682663E0,1.148184751E1
5.404323917E0,1.406874000E0,-9.926803980E0,5.082246648E0,1.124054993E1
5.414308917E0,9.311848801E-1,-1.021740358E1,4.584906458E0,1.123760688E1
5.424294917E0,3.288234347E-1,-1.055705431E1,4.234295713E0,1.137931372E1
5.434279917E0,-8.263823104E-1,-1.089163666E1,4.078518287E0,1.165954409E1
5.444265917E0,-2.899492739E0,-1.091117104E1,3.924800250E0,1.195260510E1
5.454251500E0,-5.684963604E0,-1.042638073E1,3.101270211E0,1.227379742E1
5.464237500E0,-8.341958277E0,-9.654347119E0,1.473860726E0,1.284394611E1
5.474222500E0,-1.042374480E1,-8.630027204E0,-5.787375247E-1,1.354499031E1
5.484208500E0,-1.196911245E1,-7.623875172E0,-2.409463470E0,1.439404876E1
5.494193500E0,-1.336065388E1,-6.579218055E0,-3.262409534E0,1.524586823E1
5.504179500E0,-1.444964751E1,-5.238062666E0,-3.308124236E0,1.572174607E1
5.514164500E0,-1.509174312E1,-3.843818652E0,-3.031853237E0,1.586593162E1
5.524150500E0,-1.591300327E1,-2.892984204E0,-2.869152122E0,1.642635275E1
5.534135500E0,-1.648142514E1,-2.190858150E0,-3.230767327E0,1.693738739E1
5.544121500E0,-1.653441845E1,-1.619902684E0,-3.608708543E0,1.700099572E1
5.554106500E0,-1.643453982E1,-1.059235979E0,-3.886784577E0,1.692108668E1
5.564092500E0,-1.631673597E1,-6.144090486E-1,-3.928923706E0,1.679433871E1
5.574077500E0,-1.630107128E1,-5.229129875E-1,-3.716393790E0,1.672752061E1
5.584063500E0,-1.649079472E1,-6.389387029E-1,-3.348395764E0,1.683942716E1
5.594048500E0,-1.668662265E1,-8.896977156E-1,-2.867248853E0,1.695452899E1
5.604034500E0,-1.653672576E1,-1.197701554E0,-2.298086875E0,1.673854806E1
5.614019500E0,-1.594618154E1,-1.479631489E0,-1.860750812E0,1.612241944E1
5.624005500E0,-1.495554977E1,-1.801399673E0,-1.488759723E0,1.513703787E1
5.633990500E0,-1.371934080E1,-2.163537619E0,-1.024830378E0,1.392664655E1
5.643976500E0,-1.225940565E1,-2.529742888E0,-6.264240535E-1,1.253335682E1
5.653961500E0,-1.081567665E1,-2.976257910E0,-4.418390036E-1,1.122640612E1
5.663947500E0,-9.501216143E0,-3.470325413E0,-3.708931281E-1,1.012194785E1
5.673932500E0,-8.517233244E0,-3.973092404E0,-1.754239248E-1,9.399973348E0
5.683918500E0,-7.831272987E0,-4.630844523E0,1.646334730E-1,9.099486896E0
5.693903500E0,-7.450846120E0,-5.287497366E0,5.384578103E-1,9.152194989E0
5.703889500E0,-7.300218337E0,-6.134566541E0,7.230164015E-1,9.562889057E0
5.713874500E0,-7.285655261E0,-7.022718837E0,7.867995109E-1,1.014979832E1
5.723860500E0,-7.306919246E0,-7.912113082E0,9.425149568E-1,1.081114872E1
5.733845500E0,-7.221818869E0,-8.845190706E0,1.160302178E0,1.147773355E1
5.743831500E0,-6.792547286E0,-9.859081528E0,1.300968645E0,1.204295257E1
5.753816500E0,-6.200837129E0,-1.070308033E1,1.692778287E0,1.248486315E1
5.763802500E0,-5.617293777E0,-1.132943875E1,2.253856197E0,1.284484486E1
5.773787500E0,-4.681276758E0,-1.194043770E1,2.465766163E0,1.306018405E1
5.783773500E0,-3.575391693E0,-1.226661878E1,2.616614971E0,1.304224045E1
5.793758500E0,-2.575293283E0,-1.255353931E1,3.117177562E0,1.318864211E1
5.803744500E0,-1.647951485E0,-1.293641967E1,3.873258798E0,1.360400058E1
5.813729500E0,-8.329056834E-1,-1.308391335E1,4.571324546E0,1.388450678E1
5.823715500E0,-1.898420622E-1,-1.297217189E1,4.892283475E0,1.386534244E1
5.833700500E0,1.474923603E-1,-1.288440986E1,4.987656825E0,1.381689154E1
5.843686500E0,3.373412199E-1,-1.279525619E1,5.151776474E0,1.379757881E1
5.853671500E0,6.297218831E-1,-1.273085262E1,5.712182978E0,1.396782705E1
5.863657500E0,1.023527618E0,-1.234544626E1,6.618090345E0,1.404481299E1
5.873642500E0,1.472136528E0,-1.179030693E1,7.018153331E0,1.379974636E1
5.883628500E0,1.966119831E0,-1.141242009E1,6.602021027E0,1.333025286E1
5.893613500E0,2.666428863E0,-1.090391231E1,5.315806661E0,1.242026356E1
5.903599500E0,3.534852362E0,-1.029078614E1,3.757651743E0,1.151153366E1
5.913584500E0,4.442221825E0,-9.591125270E0,2.838486692E0,1.094440612E1
5.923569500E0,5.229678344E0,-8.678100087E0,2.784547297E0,1.050774288E1
5.933555500E0,6.234876110E0,-7.737536273E0,3.002461915E0,1.038065148E1
5.943541500E0,7.283613414E0,-6.809242256E0,3.018499658E0,1.041768423E1
5.953526500E0,8.644568644E0,-6.019462346E0,2.755997974E0,1.088843510E1
5.963512500E0,1.066499624E1,-5.024794246E0,2.153735054E0,1.198454325E1
5.973497500E0,1.305357682E1,-3.752331946E0,1.686241100E0,1.368646309E1
5.983482500E0,1.534317924E1,-2.654987909E0,1.496584614E0,1.564294971E1
5.993468500E0,1.714691312E1,-1.522081690E0,1.538757364E0,1.728297245E1
6.003453500E0,1.819172987E1,-2.047782630E-1,2.022125925E0,1.830491636E1
6.013439500E0,1.887558162E1,5.344501287E-1,2.540063809E0,1.905321869E1
6.023424500E0,1.948348155E1,1.254544677E0,2.366621944E0,1.966674439E1
6.033410500E0,1.929539416E1,1.557739180E0,2.175960029E0,1.948008186E1
6.043395500E0,1.864736362E1,1.180037116E0,1.917875624E0,1.878283537E1
6.053381500E0,1.815281899E1,1.059345907E0,1.581998693E0,1.825239082E1
6.063366500E0,1.788040540E1,9.240542006E-1,1.317681157E0,1.795268941E1
6.073352500E0,1.773969917E1,6.554003692E-1,1.202562637E0,1.779248811E1
6.083337500E0,1.748823732E1,2.601835549E-1,1.098090143E0,1.752460961E1
6.093323500E0,1.642542752E1,-3.917938542E-1,1.179256513E0,1.647236527E1
6.103308500E0,1.488286070E1,-1.280607471E0,1.499240711E0,1.501290181E1
6.113294500E0,1.331159106E1,-2.368146898E0,1.660830270E0,1.362222205E1
6.123279500E0,1.190419315E1,-3.200616159E0,1.427805862E0,1.240936694E1
6.133265500E0,1.097949692E1,-3.766814915E0,1.016378227E0,1.165209303E1
6.143250500E0,1.040246445E1,-4.563288133E0,9.327069104E-1,1.139757901E1
6.153236500E0,9.660828173E0,-5.240042533E0,1.447165701E0,1.108530267E1
6.163221500E0,8.997529385E0,-5.733165711E0,2.392215499E0,1.093377424E1
6.173207500E0,8.544880049E0,-6.191085142E0,3.310842314E0,1.105921277E1
6.183192500E0,8.248159583E0,-6.688729972E0,3.880059110E0,1.130602069E1
6.193178500E0,7.928732623E0,-7.433179343E0,4.046679028E0,1.159709305E1
6.203163500E0,7.292632159E0,-8.573911475E0,4.452105666E0,1.210436643E1
6.213149500E0,6.100646843E0,-9.504119870E0,4.909867222E0,1.231474655E1
6.223134500E0,4.889678248E0,-9.834544272E0,4.931906548E0,1.203955633E1
6.233120500E0,3.756539018E0,-1.006807856E1,4.836679378E0,1.178436501E1
6.243105500E0,2.798201715E0,-1.027595760E1,4.398027692E0,1.152249474E1
6.253091500E0,1.992516355E0,-1.034798711E1,3.804362226E0,1.120375520E1
6.263076500E0,1.451930305E0,-1.050057605E1,3.227444354E0,1.108091134E1
6.273062500E0,8.122595304E-1,-1.064042391E1,2.897573683E0,1.105777191E1
6.283047500E0,1.248756225E-1,-1.077529344E1,2.938555648E0,1.116949650E1
6.293033500E0,-5.611738046E-1,-1.077608633E1,2.698264613E0,1.112293057E1
6.303018500E0,-6.263905782E-1,-1.063893754E1,1.873448918E0,1.082077484E1
6.313004500E0,-7.840385288E-2,-1.052496245E1,1.161661071E0,1.058916607E1
6.322989500E0,3.001337788E-1,-1.032194712E1,9.321667738E-1,1.036829820E1
6.332975500E0,5.511012447E-1,-1.015169140E1,1.378427296E0,1.025965948E1
6.342960500E0,4.526218539E-1,-9.585146492E0,1.925629178E0,9.787131732E0
6.352946500E0,1.569720125E-1,-9.081277885E0,2.297086270E0,9.368610013E0
6.362931500E0,-4.323191518E-1,-8.931376326E0,2.706198408E0,9.342370831E0
6.372917500E0,-1.667087376E0,-8.486454086E0,2.927215558E0,9.130590024E0
6.382902500E0,-3.759113547E0,-7.868872923E0,3.271299056E0,9.314048167E0
6.392888500E0,-6.361208128E0,-7.390299371E0,3.532269062E0,1.037103748E1
6.402873500E0,-8.827767758E0,-6.674943992E0,3.695204357E0,1.166785739E1
6.412859500E0,-1.099055518E1,-5.546028498E0,3.868079334E0,1.290398283E1
6.422844500E0,-1.263486940E1,-4.215000486E0,3.726081457E0,1.383075692E1
6.432830500E0,-1.394507373E1,-3.147963152E0,3.015572249E0,1.461055883E1
6.442815500E0,-1.499904253E1,-2.545288296E0,1.841807149E0,1.532455621E1
6.452801042E0,-1.561811649E1,-1.831613406E0,7.132114980E-1,1.574131637E1
6.462786042E0,-1.571664091E1,-1.252656611E0,2.922847688E-2,1.576650894E1
6.472772042E0,-1.526494233E1,-8.317307585E-1,-9.563559741E-2,1.528788365E1
6.482757042E0,-1.498586642E1,-3.788878798E-1,3.682403925E-1,1.499517754E1
6.492743042E0,-1.497602906E1,-3.103298610E-1,1.278622634E0,1.503371634E1
6.502728042E0,-1.512291112E1,-5.100064284E-1,2.299922170E0,1.530529939E1
6.512714042E0,-1.539412252E1,-7.663308209E-1,2.777695530E0,1.566147706E1
6.522699042E0,-1.568309075E1,-1.120478547E0,2.736667372E0,1.595945350E1
6.532685042E0,-1.576238835E1,-1.658886071E0,2.488756538E0,1.604364979E1
6.542670042E0,-1.557136800E1,-2.202729167E0,1.896016101E0,1.584027759E1
6.552656042E0,-1.503471172E1,-2.732165893E0,1.005551523E0,1.531399428E1
6.562641042E0,-1.404839403E1,-3.203971292E0,1.849578099E-1,1.441030937E1
6.572627042E0,-1.289584701E1,-3.503311896E0,-4.039168864E-1,1.336933855E1
6.582612042E0,-1.157881548E1,-3.904193493E0,-7.149642009E-1,1.224021522E1
6.592598042E0,-1.006912287E1,-4.447368836E0,-1.074035867E0,1.105983173E1
6.602583042E0,-8.763509781E0,-4.819064641E0,-1.379783411E0,1.009585509E1
6.612569042E0,-8.065534666E0,-5.125914239E0,-1.175988796E0,9.628644550E0
6.622554042E0,-7.832197432E0,-5.625405035E0,-7.495702158E-1,9.672143192E0
6.632539042E0,-7.483380613E0,-6.220041724E0,-2.733639099E-1,9.734712747E0
6.642525042E0,-7.132143046E0,-6.875346783E0,3.622595680E-1,9.913076708E0
6.652510042E0,-6.827041765E0,-7.450405240E0,1.115265900E0,1.016665410E1
6.662496042E0,-6.638341591E0,-7.931068001E0,2.125878042E0,1.055882456E1
6.672481042E0,-6.185012809E0,-8.617223555E0,2.934926282E0,1.100566752E1
6.682467042E0,-5.337194021E0,-9.468899167E0,2.976745568E0,1.126972518E1
6.692452042E0,-4.346747611E0,-1.006035906E1,2.229012986E0,1.118362813E1
6.702438042E0,-3.586295288E0,-1.048423308E1,1.458315903E0,1.117619535E1
6.712423042E0,-2.801420315E0,-1.078128216E1,9.893056190E-1,1.118314475E1
6.722409042E0,-1.995816670E0,-1.074043702E1,7.322778064E-1,1.094881283E1
6.732394042E0,-1.450529312E0,-1.059507056E1,1.071904557E0,1.074748970E1
6.742380042E0,-1.108285275E0,-1.081979543E1,1.528151538E0,1.098323798E1
6.752365042E0,-1.163336152E0,-1.114693078E1,1.543103453E0,1.131320401E1
6.762351042E0,-1.534677177E0,-1.165974562E1,1.359700857E0,1.183865231E1
6.772336042E0,-2.068909058E0,-1.235337860E1,1.503269735E0,1.261531479E1
6.782322042E0,-2.640281869E0,-1.295246677E1,1.605681379E0,1.331599401E1
6.792307042E0,-2.913058280E0,-1.350071340E1,1.718639352E0,1.391793419E1
6.802293042E0,-1.984849632E0,-1.404990027E1,2.053659081E0,1.433725362E1
6.812278042E0,-4.831513363E-1,-1.402072266E1,2.526227542E0,1.425468080E1
6.822264042E0,1.309549142E0,-1.399783432E1,3.017615266E0,1.437916154E1
6.832249042E0,3.396233590E0,-1.369013045E1,3.712204844E0,1.458542214E1
6.842235042E0,6.781329988E0,-1.247654084E1,4.547198057E0,1.491065115E1
6.852220042E0,1.121928422E1,-1.009936935E1,5.121172732E0,1.594038926E1
6.862206042E0,1.461962490E1,-7.646810875E0,5.403114946E0,1.736089859E1
6.872191042E0,1.580653249E1,-5.950321360E0,5.726656006E0,1.783388299E1
6.882177042E0,1.605988065E1,-4.827979306E0,5.819686961E0,1.775099735E1
6.892162042E0,1.640357765E1,-3.773479571E0,5.139465162E0,1.759916503E1
6.902148042E0,1.646047339E1,-3.258915238E0,4.203407797E0,1.729844935E1
6.912133042E0,1.721653475E1,-3.148076003E0,2.960300859E0,1.775057274E1
6.922119042E0,1.865615550E1,-2.636199051E0,1.208408099E0,1.888019951E1
6.932104042E0,1.992865814E1,-2.063336223E0,-4.424488682E-1,2.004007317E1
6.942090042E0,2.018092340E1,-1.419069538E0,-1.226245322E0,2.026788359E1
6.952075042E0,1.961817567E1,-9.699220991E-1,-7.508976799E-1,1.965648526E1
6.962061042E0,1.927115278E1,-7.757419145E-1,4.893920696E-1,1.929296787E1
6.972046042E0,1.924312824E1,-5.293846858E-1,1.514079775E0,1.930985940E1
6.982032042E0,1.855050917E1,-4.901633173E-1,2.264336016E0,1.869462137E1
6.992017042E0,1.740306093E1,-9.398241413E-1,2.932276908E0,1.767337113E1
7.002003042E0,1.615400913E1,-1.451016970E0,3.365375494E0,1.656451670E1
7.011988042E0,1.467395489E1,-1.917473921E0,3.439107129E0,1.519306144E1
7.021974042E0,1.332212540E1,-2.502309507E0,3.419032468E0,1.397964095E1
7.031959042E0,1.218013495E1,-3.333087169E0,3.319146822E0,1.305687149E1
7.041945042E0,1.108496198E1,-4.142484487E0,2.977168906E0,1.220246265E1
7.051930042E0,9.973226194E0,-4.901547804E0,2.642184845E0,1.142241447E1
7.061916042E0,8.766375502E0,-5.736921962E0,2.541881708E0,1.078066675E1
7.071901042E0,7.660683394E0,-6.530447599E0,2.971761401E0,1.049591262E1
7.081887042E0,7.121264302E0,-6.856301233E0,3.474051259E0,1.047808685E1
7.091872042E0,7.008463326E0,-7.236118820E0,3.847124375E0,1.078333621E1
7.101858042E0,6.757838799E0,-8.164426285E0,4.481427698E0,1.150692991E1
7.111843042E0,6.182594401E0,-8.962134435E0,5.290640829E0,1.210517276E1
7.121829042E0,5.696580852E0,-9.475403609E0,5.737395587E0,1.245600317E1
7.131814042E0,4.970912154E0,-1.011378273E1,6.037415053E0,1.278471546E1
7.141800042E0,4.050582045E0,-1.062821258E1,5.835413632E0,1.278351164E1
7.151785042E0,3.420643961E0,-1.100396986E1,5.229183669E0,1.265434786E1
7.161771042E0,3.284006810E0,-1.132095327E1,4.404518686E0,1.258365879E1
7.171756042E0,3.434443097E0,-1.144423362E1,3.547378852E0,1.246393916E1
7.181742042E0,3.201230702E0,-1.153888718E1,3.084344276E0,1.236555599E1
7.191727042E0,2.536594363E0,-1.170294836E1,3.149343095E0,1.238190911E1
7.201712042E0,2.134230205E0,-1.172164659E1,3.289514887E0,1.236013129E1
7.211698042E0,2.133610400E0,-1.176703735E1,3.163100424E0,1.237015221E1
7.221683042E0,1.322467395E0,-1.167525595E1,3.245204687E0,1.218982670E1
7.231669042E0,2.129216802E-1,-1.162026054E1,3.371756560E0,1.210142690E1
7.241655042E0,-9.642596555E-1,-1.150908509E1,3.467730419E0,1.205877235E1
7.251640042E0,-2.075245832E0,-1.112923242E1,3.417349640E0,1.182559674E1
7.261625042E0,-3.033984547E0,-1.071660143E1,3.367446578E0,1.163573397E1
7.271611042E0,-4.289310411E0,-1.028708368E1,3.237965249E0,1.160632127E1
7.281596042E0,-5.970563251E0,-9.658649501E0,2.982733701E0,1.174026559E1
7.291582042E0,-7.737841498E0,-9.055151356E0,2.414622322E0,1.215320361E1
7.301567042E0,-9.265752861E0,-8.425795071E0,1.886043967E0,1.266512379E1
7.311553042E0,-1.072915190E1,-7.641438453E0,1.275539689E0,1.323379324E1
7.321538042E0,-1.191299789E1,-7.001226227E0,3.149129087E-1,1.382157218E1
7.331524042E0,-1.248845512E1,-6.326051744E0,-8.855355944E-1,1.402728111E1
7.341509042E0,-1.241965445E1,-5.408513680E0,-2.094038199E0,1.370710884E1
7.351495042E0,-1.208819333E1,-4.763970421E0,-2.658830114E0,1.326232294E1
7.361480042E0,-1.230853864E1,-4.302264917E0,-2.698843780E0,1.331515545E1
7.371466042E0,-1.307696568E1,-3.790682080E0,-2.679446227E0,1.387644530E1
7.381451042E0,-1.420771194E1,-3.626499866E0,-2.549158568E0,1.488317135E1
7.391437042E0,-1.535996192E1,-3.716801341E0,-2.728778601E0,1.603712178E1
7.401422042E0,-1.626169145E1,-3.834832651E0,-3.161145700E0,1.700415809E1
7.411408042E0,-1.703880161E1,-3.876414540E0,-3.531858587E0,1.782754541E1
7.421393042E0,-1.762476747E1,-3.934818285E0,-3.570487048E0,1.840824818E1
7.431379042E0,-1.784655353E1,-4.137175215E0,-3.254629229E0,1.860667361E1
7.441364042E0,-1.759952270E1,-4.366731055E0,-2.951265741E0,1.837175846E1
7.451350042E0,-1.696860579E1,-4.503524326E0,-2.739826915E0,1.776856678E1
7.461335167E0,-1.608151769E1,-4.677130498E0,-2.403737730E0,1.691947741E1
7.471321167E0,-1.490204073E1,-4.919485892E0,-1.952720352E0,1.581408474E1
7.481306167E0,-1.348178831E1,-5.170874650E0,-1.552203621E0,1.452259951E1
7.491292167E0,-1.200500850E1,-5.434956543E0,-1.181138073E0,1.323080001E1
7.501277167E0,-1.070895795E1,-5.825441791E0,-5.996419054E-1,1.220561850E1
7.511263167E0,-9.644577007E0,-6.352883447E0,9.134052515E-2,1.154925698E1
7.521248167E0,-8.855077178E0,-6.816620858E0,6.001646465E-1,1.119101914E1
7.531234167E0,-8.184210339E0,-7.492949581E0,9.879116428E-1,1.114008805E1
7.541219167E0,-7.876262634E0,-8.272446578E0,1.354540835E0,1.150233308E1
7.551205167E0,-7.614248316E0,-9.087180065E0,1.726951754E0,1.198065029E1
7.561190167E0,-7.010253158E0,-9.851845014E0,2.068412776E0,1.226706285E1
7.571176167E0,-6.286397097E0,-1.049771910E1,2.395466259E0,1.246832600E1
7.581161167E0,-5.698980550E0,-1.114098533E1,2.835460466E0,1.283120296E1
7.591147167E0,-5.020802352E0,-1.189921249E1,3.339266506E0,1.333980566E1
7.601132167E0,-4.282353394E0,-1.256184236E1,3.621256083E0,1.375688663E1
7.611118167E0,-3.656400772E0,-1.294463618E1,3.767326546E0,1.396873730E1
7.621103167E0,-3.135082905E0,-1.332366907E1,3.986987143E0,1.425640097E1
7.631089167E0,-2.745126831E0,-1.373107499E1,4.311252088E0,1.465145168E1
7.641074167E0,-2.338546245E0,-1.412515393E1,4.955574322E0,1.515079170E1
7.651060167E0,-1.924718182E0,-1.434113137E1,5.499460688E0,1.547955610E1
7.661045167E0,-1.529189127E0,-1.440482392E1,5.618829256E0,1.553732969E1
7.671031167E0,-1.648546732E0,-1.463200930E1,5.501227716E0,1.571868025E1
7.681016167E0,-1.885394049E0,-1.515169696E1,5.307442219E0,1.616470150E1
7.691002167E0,-1.157075392E0,-1.549356846E1,5.199763404E0,1.638374275E1
7.700987167E0,5.924767274E-1,-1.512647675E1,5.140316516E0,1.598700039E1
7.710973167E0,3.003066224E0,-1.429360988E1,4.591935981E0,1.531050509E1
7.720958167E0,5.232337072E0,-1.279340379E1,3.977503543E0,1.438294359E1
7.730944167E0,7.009471970E0,-1.127723247E1,3.360390158E0,1.369674748E1
7.740929167E0,8.563927354E0,-9.932632484E0,3.337601804E0,1.353283509E1
7.750915167E0,9.653167736E0,-8.510645771E0,4.067777244E0,1.349672369E1
7.760900167E0,1.033206280E1,-7.394094214E0,5.321917001E0,1.377486666E1
7.770886167E0,1.163052592E1,-6.373788412E0,5.853523629E0,1.449682899E1
7.780871167E0,1.301907591E1,-4.765631615E0,4.767697436E0,1.466078174E1
7.790857167E0,1.424440907E1,-3.526740519E0,3.186455665E0,1.501647722E1
7.800842167E0,1.543870286E1,-2.377747441E0,1.670885434E0,1.570984046E1
7.810827167E0,1.627044590E1,-1.185572675E0,1.098344204E0,1.635051536E1
7.820813167E0,1.720844454E1,-6.888297781E-1,1.377140616E0,1.727719787E1
7.830798167E0,1.858080945E1,3.373165154E-1,1.490634195E0,1.864355793E1
7.840784167E0,1.903916216E1,1.278063347E0,2.210975787E0,1.920967349E1
7.850769167E0,1.871986091E1,1.103249141E0,3.741126927E0,1.912188228E1
7.860755167E0,1.875012844E1,8.547003758E-1,4.236748620E0,1.924182601E1
7.870740167E0,1.913137275E1,2.892579576E-1,3.782429320E0,1.950384231E1
7.880726167E0,1.920611770E1,-3.996285385E-1,2.824028282E0,1.941674010E1
7.890711167E0,1.898092857E1,-6.567522454E-1,1.837372913E0,1.908095679E1
7.900697167E0,1.836803862E1,-1.191855508E0,1.102932807E0,1.843968067E1
7.910682167E0,1.701048355E1,-1.931928822E0,7.123692065E-1,1.713465405E1
7.920668167E0,1.524283517E1,-2.707358496E0,5.384776908E-1,1.549076410E1
7.930653167E0,1.346966235E1,-3.523503501E0,5.262988177E-1,1.393283428E1
7.940639167E0,1.176125329E1,-4.283202994E0,8.015228730E-1,1.254254144E1
7.950624167E0,1.042009848E1,-5.159890655E0,1.101585608E0,1.167974378E1
7.960610167E0,9.173686697E0,-6.041886418E0,1.220924648E0,1.105222042E1
7.970595167E0,8.037984340E0,-6.467505831E0,1.219203813E0,1.038866122E1
7.980581167E0,7.203610055E0,-6.832990723E0,1.406626078E0,1.002797871E1
7.990566167E0,6.589706790E0,-7.385544416E0,1.705876342E0,1.004392931E1
8.000552167E0,6.142082552E0,-7.868136758E0,1.953054228E0,1.017089843E1
8.010537167E0,6.029387410E0,-8.016768887E0,2.021815145E0,1.023278224E1
8.020523167E0,5.930427378E0,-8.137173582E0,2.518607451E0,1.037915923E1
8.030508167E0,5.646589497E0,-8.359606344E0,3.348152228E0,1.062906932E1
8.040494167E0,5.092243048E0,-8.521258467E0,4.322734850E0,1.082722595E1
8.050479167E0,4.579067429E0,-8.714236465E0,5.445608416E0,1.124990785E1
8.060465167E0,4.526494528E0,-8.872555091E0,6.278209825E0,1.177400973E1
8.070450167E0,4.518938171E0,-9.266372082E0,6.619094312E0,1.225148412E1
8.080436167E0,4.065411753E0,-9.703423385E0,6.486736153E0,1.235968220E1
8.090421167E0,3.711593810E0,-1.006207230E1,6.440420358E0,1.251000567E1
8.100407167E0,3.832264262E0,-1.038330546E1,5.885523686E0,1.253549643E1
8.110392167E0,3.625694996E0,-1.070533736E1,5.506360987E0,1.257258619E1
8.120378167E0,3.165791605E0,-1.129482089E1,5.941007330E0,1.314879400E1
8.130363167E0,2.115671142E0,-1.220265024E1,6.669574494E0,1.406641252E1
8.140349167E0,7.732619642E-1,-1.188702456E1,6.441617868E0,1.354229403E1
8.150334167E0,-1.393198532E-1,-1.132606607E1,5.887764339E0,1.276577266E1
8.160320167E0,-1.188737480E0,-1.149182762E1,5.339701307E0,1.272743528E1
8.170305167E0,-2.621306485E0,-1.151568192E1,4.582251238E0,1.266803869E1
8.180291167E0,-4.062937504E0,-1.095531635E1,4.103721541E0,1.238414099E1
8.190276167E0,-4.659975936E0,-1.030849385E1,3.433855745E0,1.182251185E1
8.200262167E0,-5.008992730E0,-9.572684321E0,2.699388741E0,1.113611211E1
8.210247167E0,-5.190498490E0,-8.791756511E0,1.998386521E0,1.040335551E1
8.220233167E0,-5.413521820E0,-8.164312849E0,1.146993331E0,9.862951713E0
8.230218167E0,-5.421783351E0,-7.733940235E0,2.148716901E-1,9.447525396E0
8.240204167E0,-5.324192153E0,-7.446579992E0,-3.973892011E-2,9.154242450E0
8.250189167E0,-5.894105060E0,-6.961055270E0,1.039266568E-1,9.121818113E0
8.260175167E0,-6.791553844E0,-6.243793699E0,3.093989843E-1,9.230703716E0
8.270160167E0,-7.831848353E0,-5.775269172E0,6.921121126E-1,9.755542108E0
8.280146167E0,-9.174401811E0,-5.596830862E0,5.455306023E-1,1.076065834E1
8.290131167E0,-1.082262081E1,-5.507028739E0,6.506196856E-2,1.214334055E1
8.300116167E0,-1.260120815E1,-5.309461847E0,-2.976676425E-1,1.367733300E1
8.310102167E0,-1.443383547E1,-5.040526180E0,-6.159994912E-1,1.530104460E1
8.320087167E0,-1.619172367E1,-4.962230208E0,-1.023598442E0,1.696594818E1
8.330073167E0,-1.755096157E1,-5.081189471E0,-1.682966659E0,1.834903581E1
8.340058167E0,-1.806252161E1,-5.144049963E0,-2.754799880E0,1.898169800E1
8.350044167E0,-1.799585399E1,-4.900302347E0,-3.860507190E0,1.904644953E1
8.360029167E0,-1.781910903E1,-4.860349492E0,-4.259481425E0,1.895486286E1
8.370015167E0,-1.725221563E1,-5.083168754E0,-4.005484809E0,1.842610803E1
8.380000167E0,-1.619501214E1,-5.075582576E0,-3.457115384E0,1.732026569E1
8.389986167E0,-1.485983085E1,-5.138306243E0,-2.829191666E0,1.597564050E1
8.399971167E0,-1.355344593E1,-5.365448937E0,-2.141120564E0,1.473323916E1
8.409957167E0,-1.240134798E1,-5.614696444E0,-1.385281402E0,1.368346639E1
8.419942167E0,-1.134492919E1,-5.852048376E0,-5.463235579E-1,1.277702461E1
8.429928167E0,-1.048499673E1,-6.269076474E0,1.548489251E-1,1.221721959E1
8.439913167E0,-9.854429483E0,-6.697272754E0,6.018404585E-1,1.193002325E1
8.449899167E0,-9.205831180E0,-6.907863734E0,6.241528487E-1,1.152629498E1
8.459884250E0,-8.449564002E0,-7.237519813E0,5.876709008E-1,1.114101351E1
8.469870250E0,-7.905675298E0,-7.821050885E0,6.036566037E-1,1.113700768E1
8.479855250E0,-7.393682570E0,-8.466702776E0,6.732086492E-1,1.126076408E1
8.489841250E0,-6.638491865E0,-9.059099981E0,9.408374637E-1,1.127040558E1
8.499826250E0,-5.764837155E0,-9.616444883E0,1.444151169E0,1.130464206E1
8.509812250E0,-5.246461022E0,-1.008314215E1,1.842769893E0,1.151481263E1
8.519797250E0,-4.860096892E0,-1.054466289E1,2.099069728E0,1.179900635E1
8.529783250E0,-4.295975652E0,-1.114091516E1,2.407496320E0,1.218078142E1
8.539768250E0,-3.931488003E0,-1.187397591E1,2.699936625E0,1.279599780E1
8.549754250E0,-3.684942786E0,-1.246083288E1,2.969306740E0,1.332921385E1
8.559739250E0,-3.137412728E0,-1.285706126E1,3.337318214E0,1.364862908E1
8.569725250E0,-2.441696831E0,-1.314392917E1,4.113743668E0,1.398741021E1
8.579710250E0,-1.886761567E0,-1.352847598E1,5.238245099E0,1.462937946E1
8.589696250E0,-1.385759412E0,-1.369735760E1,6.253501831E0,1.512098607E1
8.599681250E0,-1.009968583E0,-1.367536740E1,6.667703385E0,1.524775322E1
8.609667250E0,-1.528665362E-1,-1.364366847E1,6.889054411E0,1.528502954E1
8.619652250E0,9.540419385E-1,-1.351518409E1,6.874018881E0,1.519284478E1
8.629638250E0,1.852569534E0,-1.321040265E1,6.860405393E0,1.500039714E1
8.639623250E0,2.652827655E0,-1.277524000E1,6.818162184E0,1.472180652E1
8.649609250E0,3.619444323E0,-1.221220459E1,6.329646027E0,1.422331667E1
8.659594250E0,5.964390931E0,-1.160099280E1,5.192989989E0,1.404009039E1
8.669580250E0,9.630605670E0,-1.038634367E1,3.117107687E0,1.450313969E1
8.679565250E0,1.217985312E1,-8.338983799E0,1.845961304E0,1.487598890E1
8.689551250E0,1.347531076E1,-6.858512065E0,2.544654458E0,1.533292060E1
8.699536250E0,1.419264601E1,-5.478922927E0,3.583908747E0,1.562991360E1
8.709521250E0,1.466702360E1,-3.919482207E0,3.769826816E0,1.564274644E1
8.719507250E0,1.421352291E1,-2.994133433E0,3.621132706E0,1.497002573E1
8.729492250E0,1.307862629E1,-2.771098993E0,3.393397982E0,1.379291866E1
8.739478250E0,1.255363404E1,-2.663461109E0,2.744593273E0,1.312328255E1
8.749463250E0,1.308270531E1,-2.113652099E0,1.846396629E0,1.338035440E1
8.759449250E0,1.351255518E1,-1.342851666E0,1.624540696E0,1.367594716E1
8.769434250E0,1.374308751E1,-8.200854439E-1,2.233390504E0,1.394750973E1
8.779420250E0,1.445537310E1,-5.116822404E-1,2.622093812E0,1.470017028E1
8.789405250E0,1.590712565E1,-2.115171790E-2,2.118537155E0,1.604759463E1
8.799391250E0,1.693502991E1,4.562705165E-1,1.464398030E0,1.700434893E1
8.809376250E0,1.680055213E1,3.318318272E-1,1.351655234E0,1.685810299E1
8.819362250E0,1.605970991E1,-7.632487535E-2,1.514647832E0,1.613115823E1
8.829347250E0,1.520534166E1,-3.765525019E-1,1.412753960E0,1.527547317E1
8.839333250E0,1.439089118E1,-6.723882848E-1,9.943532279E-1,1.444086539E1
8.849318250E0,1.338751131E1,-1.105399162E0,4.985523176E-1,1.344231828E1
8.859304250E0,1.223831592E1,-1.645514658E0,2.239521602E-1,1.235047568E1
8.869289250E0,1.121600043E1,-2.087344891E0,3.912158570E-1,1.141528467E1
8.879275250E0,1.032467309E1,-2.446297858E0,9.127275592E-1,1.064970982E1
8.889260250E0,9.568978356E0,-3.034637681E0,1.457581931E0,1.014391038E1
8.899246250E0,9.002995947E0,-3.597950251E0,1.728493665E0,9.848191325E0
8.909231250E0,8.577675328E0,-4.089290028E0,1.850670066E0,9.681104619E0
8.919217250E0,8.012005160E0,-4.736365716E0,2.207360162E0,9.565449585E0
8.929202250E0,7.604170055E0,-5.501775016E0,2.701557473E0,9.766849201E0
8.939188250E0,7.078207744E0,-6.282633829E0,3.240930957E0,1.000380658E1
8.949173250E0,6.294432925E0,-7.046306505E0,3.626386722E0,1.012032617E1
8.959159250E0,5.704473424E0,-7.787056927E0,3.744195546E0,1.035365988E1
8.969144250E0,5.589074530E0,-8.368948440E0,3.416407653E0,1.062774169E1
8.979130250E0,5.211308731E0,-9.019309679E0,3.296049443E0,1.092564084E1
8.989115250E0,4.617318452E0,-9.796795818E0,3.419793191E0,1.135745673E1
8.999101250E0,4.189591118E0,-1.034713809E1,3.409346263E0,1.167217128E1
9.009086250E0,4.044140460E0,-1.099573815E1,2.945051613E0,1.208034182E1
9.019072250E0,3.673133457E0,-1.168475182E1,2.486171776E0,1.249825527E1
9.029057250E0,3.197804526E0,-1.214805362E1,2.276194754E0,1.276644912E1
9.039043250E0,2.809172846E0,-1.244624758E1,2.502488431E0,1.300242206E1
9.049028250E0,2.619678035E0,-1.277741750E1,2.973521413E0,1.337785262E1
9.059014250E0,2.627572361E0,-1.292339909E1,3.946838406E0,1.376575149E1
9.068999250E0,2.358434672E0,-1.272131464E1,4.460503437E0,1.368539920E1
9.078985250E0,2.372758889E0,-1.252040080E1,4.501073758E0,1.351480988E1
9.088970250E0,2.571488207E0,-1.243341879E1,4.078172132E0,1.333543934E1
9.098956250E0,2.067808759E0,-1.238896124E1,3.108352359E0,1.293924449E1
9.108941250E0,8.520381385E-1,-1.209530589E1,2.107695686E0,1.230710261E1
9.118926250E0,-7.911849958E-1,-1.175097622E1,1.318125545E0,1.185111264E1
9.128912250E0,-2.677090384E0,-1.148876602E1,9.541825640E-1,1.183507592E1
9.138897250E0,-5.334207848E0,-1.082254830E1,4.902252978E-1,1.207566337E1
9.148883250E0,-8.173441522E0,-9.917897501E0,2.379867934E-2,1.285186382E1
9.158868250E0,-1.080605214E1,-8.937179688E0,-2.864663507E-1,1.402590484E1
9.168854250E0,-1.277880329E1,-8.120688527E0,-4.600292529E-1,1.514777286E1
9.178839250E0,-1.421708971E1,-7.364616061E0,-4.142454813E-1,1.601670405E1
9.188825250E0,-1.528042575E1,-6.483150056E0,-3.833652391E-1,1.660330132E1
9.198810250E0,-1.597365059E1,-5.764775174E0,-5.119728470E-1,1.698976934E1
9.208796250E0,-1.700477667E1,-4.967012646E0,-1.025386448E0,1.774500103E1
9.218781250E0,-1.783189573E1,-4.458343475E0,-1.512957841E0,1.844294914E1
9.228767250E0,-1.824224630E1,-4.528049303E0,-1.909715250E0,1.889258566E1
9.238752250E0,-1.858695487E1,-4.242725059E0,-2.768048501E0,1.926493446E1
9.248738250E0,-1.831070317E1,-3.681257871E0,-3.643629869E0,1.902917624E1
9.258723250E0,-1.776563742E1,-3.451993223E0,-4.130608792E0,1.856329871E1
9.268709250E0,-1.719437614E1,-3.370188922E0,-4.153139284E0,1.800703502E1
9.278694250E0,-1.637262249E1,-3.328215854E0,-3.654147840E0,1.710241458E1
9.288680250E0,-1.516521222E1,-3.407094793E0,-2.977913257E0,1.582592569E1
9.298665250E0,-1.393274780E1,-3.583636851E0,-2.200059328E0,1.455349358E1
9.308651250E0,-1.265011193E1,-3.832359279E0,-1.283321748E0,1.328003103E1
9.318636250E0,-1.126173735E1,-3.982089515E0,-5.472023213E-1,1.195755808E1
9.328622250E0,-1.013657635E1,-4.187132657E0,-4.140830018E-2,1.096740510E1
9.338607250E0,-9.142725105E0,-4.582076991E0,2.315303709E-1,1.022929412E1
9.348593250E0,-8.308908645E0,-5.024995390E0,1.146738392E-1,9.710905809E0
9.358578250E0,-7.488026226E0,-5.372526991E0,-1.460459054E-2,9.216007613E0
9.368564250E0,-6.744895402E0,-5.746807850E0,-2.490276521E-1,8.864616699E0
9.378549250E0,-6.022418114E0,-6.381344769E0,-5.197448929E-1,8.789835934E0
9.388535250E0,-5.519958687E0,-7.006739566E0,-7.649146984E-1,8.952621837E0
9.398520250E0,-5.195592000E0,-7.569116582E0,-6.171386019E-1,9.201443480E0
9.408506250E0,-4.837381629E0,-8.027324281E0,9.227081716E-2,9.372657576E0
9.418491250E0,-4.397649377E0,-8.443769996E0,1.007746495E0,9.573511623E0
9.428477250E0,-3.967960595E0,-8.940571657E0,1.702448997E0,9.928588290E0
9.438462250E0,-3.672780870E0,-9.394941829E0,2.078730188E0,1.029928980E1
9.448448250E0,-3.556060505E0,-9.965009687E0,2.290891730E0,1.082567177E1
9.458433542E0,-3.557437524E0,-1.050503280E1,2.390697269E0,1.134577054E1
9.468419542E0,-3.414374284E0,-1.104220247E1,2.345488352E0,1.179362127E1
9.478404542E0,-3.010192226E0,-1.144305249E1,2.319099283E0,1.205748435E1
9.488390542E0,-2.502793656E0,-1.156844486E1,2.256926424E0,1.204934062E1
9.498375542E0,-1.941840876E0,-1.168343386E1,2.331486171E0,1.207100661E1
9.508360542E0,-1.313333606E0,-1.182803550E1,2.547833004E0,1.217040353E1
9.518346542E0,-5.553265158E-1,-1.204187988E1,2.845135853E0,1.238588134E1
9.528331542E0,-9.975642264E-3,-1.215713084E1,3.177234898E0,1.256545866E1
9.538317542E0,3.980322486E-1,-1.193236854E1,3.910994974E0,1.256326910E1
9.548302542E0,8.899479765E-1,-1.160571735E1,4.387940075E0,1.243940114E1
9.558288542E0,1.298845375E0,-1.143255323E1,4.443390391E0,1.233426085E1
9.568273542E0,1.309652053E0,-1.119861899E1,4.336556206E0,1.208014799E1
9.578259542E0,1.703622825E0,-1.091150550E1,4.388079824E0,1.188354020E1
9.588244542E0,2.802498834E0,-1.037318978E1,4.305164844E0,1.157547019E1
9.598230542E0,4.567988417E0,-9.499975948E0,4.164244023E0,1.133388678E1
9.608215542E0,6.017793551E0,-8.241410726E0,4.215142281E0,1.104092906E1
9.618201542E0,7.545201470E0,-7.123399120E0,4.321308422E0,1.124039976E1
9.628186542E0,9.411184224E0,-5.746172842E0,4.069986615E0,1.175387944E1
9.638172542E0,1.039919469E1,-4.447040808E0,3.854771364E0,1.194900349E1
9.648157542E0,1.039143426E1,-3.775465286E0,4.072737145E0,1.178232710E1
9.658143542E0,1.084290831E1,-3.170263848E0,4.160792412E0,1.203874690E1
9.668128542E0,1.242007194E1,-2.139127833E0,3.797427428E0,1.316261790E1
9.678114542E0,1.401654073E1,-1.067433191E0,3.145011477E0,1.440464942E1
9.688099542E0,1.478980694E1,-5.252033418E-1,2.475115276E0,1.500468005E1
9.698085542E0,1.521818799E1,-1.833277524E-2,2.178119406E0,1.537328156E1
9.708070542E0,1.559800675E1,5.488272625E-1,2.090112963E0,1.574698695E1
9.718056542E0,1.631325922E1,8.510365105E-1,1.947101178E0,1.645107572E1
9.728041542E0,1.722273514E1,1.068965746E0,1.584435228E0,1.732846584E1
9.738027542E0,1.761981955E1,1.254749914E0,1.441351815E0,1.772314683E1
9.748012542E0,1.742297538E1,1.241976086E0,1.824652003E0,1.756223023E1
9.757998542E0,1.678847646E1,1.164260159E0,2.267324528E0,1.698084816E1
9.767983542E0,1.599133959E1,7.347710592E-1,2.227695608E0,1.616247067E1
9.777969542E0,1.531057400E1,9.986635029E-2,1.764357562E0,1.541222265E1
9.787954542E0,1.468506927E1,-4.523324168E-1,1.345673825E0,1.475353186E1
9.797940542E0,1.394986961E1,-9.987260681E-1,1.505559505E0,1.406637926E1
9.807925542E0,1.302189193E1,-1.644489056E0,1.957406310E0,1.327047298E1
9.817911542E0,1.185895090E1,-2.325696112E0,2.317482528E0,1.230505198E1
9.827896542E0,1.087666662E1,-2.903336114E0,2.357658162E0,1.150172984E1
9.837882542E0,9.968765938E0,-3.421565482E0,2.142065474E0,1.075508481E1
9.847867542E0,9.091308784E0,-3.930166240E0,2.103633479E0,1.012538275E1
9.857853542E0,8.238963082E0,-4.432191219E0,2.317792431E0,9.638308639E0
9.867838542E0,7.629372724E0,-4.957739546E0,2.679784196E0,9.485133257E0
9.877824542E0,6.904473519E0,-5.558573114E0,3.100468558E0,9.390548169E0
9.887809542E0,6.092639666E0,-6.090824105E0,3.602430387E0,9.337874548E0
9.897794542E0,5.453717920E0,-6.624391889E0,3.885956027E0,9.419461836E0
9.907780542E0,5.019677932E0,-7.412900029E0,3.889481898E0,9.760959114E0
9.917765542E0,4.407942815E0,-8.166174603E0,3.586695530E0,9.948907092E0
9.927751542E0,3.515745707E0,-8.741992612E0,3.501465930E0,1.005202300E1
9.937736542E0,2.892108583E0,-9.289324157E0,3.517188508E0,1.034535888E1
9.947722542E0,2.582356719E0,-9.738814827E0,3.308991963E0,1.060483419E1
9.957707542E0,2.204877434E0,-1.016163985E1,3.045340424E0,1.083487459E1
9.967693542E0,1.715922882E0,-1.039867194E1,2.779597337E0,1.089967572E1
9.977678542E0,1.488889532E0,-1.049575327E1,2.397047930E0,1.086846205E1
9.987664542E0,1.495496301E0,-1.056485917E1,2.025978070E0,1.086081698E1
9.997649542E0,1.487552273E0,-1.064873631E1,1.746074196E0,1.089298728E1
1.000763554E1,1.383339103E0,-1.071983845E1,1.745779788E0,1.094880407E1
1.001762054E1,1.254935271E0,-1.075779390E1,1.888850338E0,1.099421428E1
1.002760654E1,1.177388619E0,-1.068273436E1,1.834176825E0,1.090280982E1
1.003759154E1,1.372273101E0,-1.045137290E1,1.456220992E0,1.064118924E1
1.004757754E1,1.974674308E0,-1.026986480E1,9.246085167E-1,1.049877910E1
1.005756254E1,2.713678751E0,-1.024752727E1,4.681523511E-1,1.061108072E1
1.006754854E1,2.682008477E0,-1.022251639E1,2.738827041E-1,1.057203966E1
1.007753354E1,1.279136896E0,-1.019018713E1,1.497150332E-2,1.027016695E1
1.008751954E1,-7.449610019E-1,-1.016326304E1,3.058222425E-1,1.019511696E1
1.009750454E1,-3.582489628E0,-9.839858222E0,1.024866338E0,1.052175806E1
1.010749054E1,-6.764853703E0,-9.070923051E0,1.732912698E0,1.144761447E1
1.011747554E1,-9.560921477E0,-8.082516149E0,2.490123909E0,1.276475632E1
1.012746154E1,-1.170567550E1,-6.942818390E0,3.045745344E0,1.394640207E1
1.013744654E1,-1.311273544E1,-5.865155495E0,2.773299885E0,1.462993753E1
1.014743254E1,-1.378470916E1,-4.962889189E0,2.035457576E0,1.479160449E1
1.015741754E1,-1.431968846E1,-4.134974324E0,1.029274262E0,1.494024417E1
1.016740354E1,-1.464831134E1,-3.651733525E0,1.772463557E-1,1.509766866E1
1.017738854E1,-1.492365906E1,-3.052883332E0,-2.414096072E-1,1.523463078E1
1.018737454E1,-1.520837168E1,-2.433592443E0,-1.649879605E-1,1.540273231E1
1.019735954E1,-1.589156504E1,-2.091889932E0,1.953905582E-1,1.602984780E1
1.020734554E1,-1.670219729E1,-1.944976299E0,5.783293891E-1,1.682500496E1
1.021733054E1,-1.764707693E1,-1.789986493E0,8.094704086E-1,1.775608680E1
1.022731654E1,-1.830679489E1,-1.625949875E0,1.091428995E0,1.841123758E1
1.023730154E1,-1.823343104E1,-1.665988684E0,1.149490384E0,1.834543142E1
1.024728754E1,-1.782830554E1,-1.670112725E0,1.042540424E0,1.793668435E1
1.025727254E1,-1.698763380E1,-1.807671397E0,9.445937151E-1,1.710963574E1
1.026725854E1,-1.554847031E1,-2.176085159E0,8.565785015E-1,1.572335849E1
1.027724354E1,-1.398708246E1,-2.455322451E0,5.651322234E-1,1.421219401E1
1.028722954E1,-1.281401172E1,-2.733644069E0,1.257601601E-1,1.310295852E1
1.029721454E1,-1.174842449E1,-3.073514063E0,-2.312377909E-1,1.214600501E1
1.030719954E1,-1.069550000E1,-3.440351416E0,-3.113329509E-1,1.123951362E1
1.031718554E1,-9.668074628E0,-3.826540715E0,-4.056973636E-2,1.039787126E1
1.032717054E1,-8.579806053E0,-4.104940100E0,5.883708125E-1,9.529416842E0
1.033715654E1,-7.477438672E0,-4.561041632E0,9.775445294E-1,8.813102925E0
1.034714154E1,-6.640675800E0,-5.204859837E0,1.224389416E0,8.525741636E0
1.035712754E1,-6.239503596E0,-5.722149557E0,1.424250755E0,8.585038782E0
1.036711254E1,-5.967556613E0,-6.330945278E0,1.574653275E0,8.841500607E0
1.037709854E1,-5.960721803E0,-6.984820694E0,1.479760128E0,9.300946972E0
1.038708354E1,-5.883132175E0,-7.723348004E0,1.012241322E0,9.761453840E0
1.039706954E1,-5.444110944E0,-8.493989393E0,3.008287203E-1,1.009339872E1
1.040705454E1,-4.812816891E0,-9.109898837E0,-3.510527945E-1,1.030905919E1
1.041704054E1,-4.152335292E0,-9.580421941E0,-7.082447268E-1,1.046556179E1
1.042702554E1,-3.427994496E0,-1.018094736E1,-7.679838288E-1,1.076998768E1
1.043701154E1,-2.628750575E0,-1.073439334E1,-7.559802260E-1,1.107741107E1
1.044699654E1,-1.889080134E0,-1.108482048E1,-6.559215023E-1,1.126375168E1
1.045698304E1,-1.310983171E0,-1.116664993E1,-1.262092263E-1,1.124405070E1
1.046696804E1,-9.833183625E-1,-1.111936466E1,5.326784223E-1,1.117546114E1
1.047695404E1,-5.439356281E-1,-1.112339573E1,1.112698826E0,1.119213551E1
1.048693904E1,-1.380718381E-1,-1.104678902E1,1.645545064E0,1.116953133E1
1.049692504E1,-5.035909913E-2,-1.093969961E1,2.053620197E0,1.113089931E1
1.050691004E1,2.812671527E-2,-1.096772531E1,2.338429009E0,1.121427839E1
1.051689604E1,1.402662981E-1,-1.096631730E1,2.472006896E0,1.124235775E1
1.052688104E1,-4.941145733E-2,-1.103189265E1,2.416747492E0,1.129361614E1
1.053686704E1,-1.668413816E-1,-1.126915863E1,2.139476034E0,1.147166640E1
1.054685204E1,7.553360090E-2,-1.103974313E1,1.602199362E0,1.115565670E1
1.055683804E1,5.470725131E-1,-1.103101206E1,1.392049262E0,1.113195026E1
1.056682304E1,1.525288595E0,-1.115856206E1,1.480378763E0,1.135920480E1
1.057680904E1,2.776563509E0,-1.085761171E1,1.886833341E0,1.136473392E1
1.058679404E1,4.743487332E0,-1.012979358E1,2.393779337E0,1.143868740E1
1.059678004E1,7.184649289E0,-9.033297973E0,3.170297762E0,1.196956330E1
1.060676504E1,9.689934443E0,-7.843249839E0,4.163592936E0,1.314332164E1
1.061675104E1,1.212458406E1,-6.464978664E0,4.816795921E0,1.456032317E1
1.062673604E1,1.441590439E1,-5.213178086E0,5.131296601E0,1.616557237E1
1.063672104E1,1.644502037E1,-4.006825576E0,4.957471159E0,1.763717286E1
1.064670704E1,1.781809747E1,-2.873541627E0,4.389733416E0,1.857448783E1
1.065669204E1,1.869548270E1,-2.132163799E0,3.980126604E0,1.923300818E1
1.066667804E1,1.946044586E1,-1.687445626E0,3.498765393E0,1.984433886E1
1.067666304E1,1.967032815E1,-1.553157302E0,3.142665867E0,1.998025165E1
1.068664904E1,1.966449965E1,-1.298737348E0,2.876471082E0,1.991615804E1
1.069663404E1,1.977172589E1,-9.567494917E-1,2.464157009E0,1.994764608E1
1.070662004E1,1.970390053E1,-8.434602731E-1,2.129876953E0,1.983662010E1
1.071660504E1,1.891216882E1,-7.184175664E-1,2.025650918E0,1.903390435E1
1.072659104E1,1.794395644E1,-8.957314575E-1,2.269548224E0,1.810907940E1
1.073657604E1,1.685873661E1,-1.242831534E0,2.589969502E0,1.710174179E1
1.074656204E1,1.545937043E1,-1.256438005E0,2.555006368E0,1.571937747E1
1.075654704E1,1.378505414E1,-1.475416816E0,2.968366800E0,1.417800317E1
1.076653304E1,1.209935333E1,-1.960020601E0,3.673319106E0,1.279567524E1
1.077651804E1,1.087999369E1,-2.330889609E0,4.164401313E0,1.188063750E1
1.078650404E1,9.904963460E0,-2.700360548E0,4.644389891E0,1.126812343E1
1.079648904E1,9.124905716E0,-3.130222700E0,5.102122504E0,1.091301299E1
1.080647504E1,8.702881756E0,-3.419682679E0,5.161030862E0,1.068038483E1
1.081646004E1,8.569023787E0,-3.804219553E0,5.108076138E0,1.067673625E1
1.082644604E1,8.225975246E0,-4.315002492E0,5.192887078E0,1.064199189E1
1.083643104E1,7.490727054E0,-5.036614977E0,5.524393215E0,1.058288253E1
1.084641704E1,6.526289059E0,-5.893327965E0,5.839667482E0,1.055582681E1
1.085640204E1,5.561680909E0,-6.922621522E0,5.763443179E0,1.058641868E1
1.086638804E1,4.688791892E0,-8.094053290E0,5.484688867E0,1.084344410E1
1.087637304E1,3.737275074E0,-9.400237067E0,5.094214729E0,1.132619555E1
1.088635904E1,2.762700345E0,-1.021006533E1,4.489182860E0,1.149046169E1
1.089634404E1,2.217782823E0,-1.068357168E1,3.835700670E0,1.156589227E1
1.090633004E1,1.837963775E0,-1.120100700E1,3.206739948E0,1.179507735E1
1.091631504E1,1.551274499E0,-1.160841993E1,2.555744287E0,1.198723049E1
1.092630104E1,1.374615203E0,-1.183868679E1,1.901572564E0,1.206897055E1
1.093628604E1,1.415824918E0,-1.199922444E1,1.288513930E0,1.215097591E1
1.094627204E1,1.797555421E0,-1.218756910E1,8.233516985E-1,1.234690059E1
1.095625704E1,1.871262060E0,-1.231461039E1,7.532470912E-1,1.247872717E1
1.096624204E1,1.439216996E0,-1.222552221E1,9.591240460E-1,1.234725305E1
1.097622804E1,1.031707288E0,-1.211875673E1,1.287261018E0,1.223052433E1
1.098621304E1,6.211842173E-1,-1.224084659E1,1.515028194E0,1.234987877E1
1.099619904E1,-6.319056720E-2,-1.213985231E1,1.532174569E0,1.223632159E1
1.100618404E1,-9.872310269E-1,-1.175867232E1,1.315533475E0,1.187314736E1
1.101617004E1,-2.119215724E0,-1.110549156E1,1.084517586E0,1.135778132E1
1.102615504E1,-3.865719398E0,-1.018387915E1,8.019696003E-1,1.092237778E1
1.103614104E1,-5.558721049E0,-9.237473972E0,6.581777966E-1,1.080108805E1
1.104612604E1,-6.781979029E0,-8.191410601E0,5.027032560E-1,1.064646222E1
1.105611204E1,-7.555176235E0,-7.173251896E0,-2.309357822E-2,1.041809791E1
1.106609704E1,-8.170116795E0,-6.322869104E0,-3.032202133E-1,1.033544506E1
1.107608304E1,-8.765079759E0,-5.623826287E0,-3.016911846E-1,1.041849619E1
1.108606804E1,-9.581369190E0,-5.054929041E0,-5.482805479E-1,1.084691453E1
1.109605404E1,-1.099898453E1,-4.558311567E0,-9.215866756E-1,1.194174137E1
1.110603904E1,-1.249275984E1,-4.105617208E0,-1.587896195E0,1.324562401E1
1.111602504E1,-1.349344064E1,-3.717491312E0,-2.405376704E0,1.420135624E1
1.112601004E1,-1.380331851E1,-3.457512410E0,-2.935820906E0,1.452945416E1
1.113599604E1,-1.417846300E1,-3.318577303E0,-2.953494700E0,1.485815935E1
1.114598104E1,-1.473294160E1,-3.186119742E0,-2.707659042E0,1.531477537E1
1.115596704E1,-1.522553794E1,-3.276862097E0,-2.278726598E0,1.573999446E1
1.116595204E1,-1.576904950E1,-3.608193403E0,-2.198825566E0,1.632534274E1
1.117593804E1,-1.624727690E1,-3.979552408E0,-2.363435796E0,1.689368736E1
1.118592304E1,-1.643634661E1,-4.255027016E0,-2.431448269E0,1.715140477E1
1.119590904E1,-1.608020323E1,-4.540399792E0,-2.416667678E0,1.688278558E1
1.120589404E1,-1.526924588E1,-4.771775869E0,-2.445736526E0,1.618336621E1
1.121588004E1,-1.405874945E1,-4.956069582E0,-2.539618835E0,1.512153185E1
1.122586504E1,-1.268630151E1,-5.181805435E0,-2.571278585E0,1.394291315E1
1.123585104E1,-1.124649716E1,-5.482570421E0,-2.473267556E0,1.275379666E1
1.124583604E1,-9.765252428E0,-5.834725415E0,-2.188019326E0,1.158410999E1
1.125582204E1,-8.520927515E0,-6.110578923E0,-1.826867806E0,1.064344054E1
1.126580704E1,-7.505280774E0,-6.438141114E0,-1.519551600E0,1.000439591E1
1.127579304E1,-6.727571856E0,-6.772131733E0,-1.199181485E0,9.620812207E0
1.128577804E1,-6.234988376E0,-7.199714640E0,-7.317492181E-1,9.552299611E0
1.129576404E1,-5.617299040E0,-7.619295632E0,-2.110382555E-1,9.468487291E0
1.130574904E1,-5.030334483E0,-7.900053200E0,2.576487869E-1,9.369177577E0
1.131573404E1,-4.707228748E0,-8.345105249E0,6.736892903E-1,9.604823859E0
1.132572004E1,-4.556554771E0,-8.813804022E0,9.659074008E-1,9.968867028E0
1.133570504E1,-4.399414359E0,-9.328914485E0,1.253876925E0,1.039017322E1
1.134569104E1,-4.365030977E0,-9.801402254E0,1.607832277E0,1.084924450E1
1.135567604E1,-4.195574282E0,-1.015033368E1,1.945465711E0,1.115423481E1
1.136566204E1,-3.893297791E0,-1.059713580E1,2.166871701E0,1.149575521E1
1.137564704E1,-3.646771578E0,-1.107659579E1,2.343947026E0,1.189470491E1
1.138563304E1,-3.433865100E0,-1.150892722E1,2.721768374E0,1.231482271E1
1.139561804E1,-3.080324900E0,-1.185925028E1,3.417774147E0,1.272051095E1
1.140560404E1,-2.523860005E0,-1.204307622E1,4.115155186E0,1.297459272E1
1.141558904E1,-1.789871303E0,-1.211234116E1,4.930528359E0,1.319933929E1
1.142557504E1,-8.550898004E-1,-1.203845809E1,5.730323964E0,1.336009971E1
1.143556004E1,-1.897275299E-3,-1.194192757E1,6.249122851E0,1.347817399E1
1.144554604E1,8.049334078E-1,-1.165549820E1,6.715716627E0,1.347588238E1
1.145553104E1,1.501864649E0,-1.125302616E1,7.335572941E0,1.351653897E1
1.146551613E1,1.840052108E0,-1.089523270E1,7.663667228E0,1.344706967E1
1.147550113E1,1.632448178E0,-1.048791917E1,7.404805144E0,1.294188837E1
1.148548712E1,1.517814099E0,-1.026374043E1,7.117038519E0,1.258174727E1
1.149547213E1,1.834200214E0,-9.846355648E0,6.888508281E0,1.215592680E1
1.150545813E1,2.657385852E0,-9.392388934E0,6.599868082E0,1.178290831E1
1.151544313E1,4.565086151E0,-8.925522678E0,6.029417231E0,1.169866825E1
1.152542913E1,6.927629662E0,-8.000418903E0,5.134489766E0,1.176272675E1
1.153541413E1,9.370294061E0,-7.027592492E0,4.492926832E0,1.254495351E1
1.154540013E1,1.125657426E1,-6.040980100E0,4.474055529E0,1.353591805E1
1.155538513E1,1.320710132E1,-5.182103643E0,4.912578576E0,1.501383201E1
1.156537113E1,1.511569332E1,-3.687854115E0,5.214973181E0,1.640976531E1
1.157535613E1,1.655683083E1,-2.361814948E0,5.259677483E0,1.753200001E1
1.158534213E1,1.732110402E1,-1.789499420E0,4.940271574E0,1.810053137E1
1.159532713E1,1.772262764E1,-1.308392855E0,4.193400287E0,1.825891640E1
1.160531213E1,1.835043500E1,-9.618418318E-1,3.325629630E0,1.867413764E1
1.161529813E1,1.929349733E1,-4.335540837E-1,2.556503840E0,1.946696484E1
1.162528313E1,1.984882962E1,3.379105926E-3,2.192413509E0,1.996954495E1
1.163526912E1,1.968827443E1,2.666564226E-2,2.097523724E0,1.979970876E1
1.164525413E1,1.936678048E1,-2.922087550E-2,1.919849644E0,1.946172815E1
1.165524013E1,1.869294735E1,-1.055094981E-1,1.849552079E0,1.878452170E1
1.166522513E1,1.757315059E1,-3.798111552E-1,2.161643706E0,1.770967480E1
1.167521112E1,1.622741040E1,-4.867713475E-1,2.655848619E0,1.645051143E1
1.168519613E1,1.470722671E1,-7.986220694E-1,3.191252428E0,1.507064719E1
1.169518213E1,1.334020499E1,-1.500414248E0,3.678288655E0,1.391912783E1
1.170516713E1,1.190625371E1,-2.141330479E0,3.825490847E0,1.268773241E1
1.171515312E1,1.052817257E1,-2.700222554E0,3.618210268E0,1.145535093E1
1.172513813E1,9.411229833E0,-3.284306772E0,3.407297691E0,1.053411579E1
1.173512413E1,8.296915421E0,-3.895117444E0,3.536290484E0,9.824260573E0
1.174510913E1,7.427332712E0,-4.315787773E0,3.727835037E0,9.364189734E0
1.175509513E1,6.897635785E0,-4.744195722E0,4.018374411E0,9.286124347E0
1.176508013E1,6.594572843E0,-5.324780383E0,4.366887175E0,9.534745970E0
1.177506613E1,6.225070914E0,-6.056525508E0,4.783174431E0,9.915229032E0
1.178505113E1,5.649240625E0,-6.859139471E0,5.150917518E0,1.027101091E1
1.179503713E1,5.016090081E0,-7.528245129E0,5.286075908E0,1.047751082E1
1.180502213E1,4.187633763E0,-8.455307722E0,5.656868902E0,1.100130315E1
1.181500813E1,3.173200612E0,-9.207839699E0,5.653927753E0,1.126145697E1
1.182499313E1,2.214983761E0,-9.806591073E0,5.517924441E0,1.146834215E1
1.183497913E1,1.514759660E0,-1.034874491E1,5.151299341E0,1.165876936E1
1.184496413E1,9.762406003E-1,-1.079245268E1,4.451981412E0,1.171538387E1
1.185495013E1,5.815347596E-1,-1.117052546E1,3.635654851E0,1.176166689E1
1.186493513E1,6.206967057E-1,-1.151367750E1,2.972339106E0,1.190734369E1
1.187492113E1,6.615751751E-1,-1.158720156E1,2.297040955E0,1.183120107E1
1.188490613E1,6.851227896E-1,-1.176697420E1,1.803992767E0,1.192415469E1
1.189489113E1,8.746155538E-1,-1.182587204E1,1.517594390E0,1.195488580E1
1.190487712E1,1.142320821E0,-1.159775461E1,1.357661933E0,1.173269171E1
1.191486213E1,1.402712244E0,-1.155063424E1,1.418022301E0,1.172158437E1
1.192484813E1,1.517412396E0,-1.133110637E1,1.622482329E0,1.154681605E1
1.193483313E1,1.817229255E0,-1.081959195E1,1.754990323E0,1.111062029E1
1.194481912E1,2.175275905E0,-1.039247156E1,2.133007991E0,1.082982056E1
1.195480413E1,2.169840333E0,-1.021430339E1,2.407820110E0,1.071623994E1
1.196479013E1,1.188835714E0,-1.013580920E1,2.620084709E0,1.053626130E1
1.197477513E1,-5.114670628E-1,-9.933994886E0,3.154980103E0,1.043550442E1
1.198476113E1,-2.746579279E0,-9.512141080E0,3.358313811E0,1.045479781E1
1.199474613E1,-5.716888232E0,-9.189179479E0,3.079190540E0,1.125189962E1
1.200473213E1,-9.166694012E0,-8.765107241E0,2.472121502E0,1.292156216E1
1.201471713E1,-1.273916502E1,-7.981820664E0,1.587355620E0,1.511672863E1
1.202470313E1,-1.525664279E1,-6.957783169E0,3.977188379E-1,1.677301631E1
1.203468813E1,-1.613563718E1,-5.853641158E0,-9.735778514E-1,1.719220043E1
1.204467413E1,-1.581665051E1,-4.911524908E0,-1.985315071E0,1.668025738E1
1.205465913E1,-1.550707787E1,-4.068870381E0,-2.323615673E0,1.619951727E1
1.206464513E1,-1.562312171E1,-3.337863759E0,-2.141454586E0,1.611859467E1
1.207463013E1,-1.587232536E1,-2.852385816E0,-1.936493013E0,1.624243893E1
1.208461613E1,-1.635379679E1,-2.378738544E0,-1.839553340E0,1.662795908E1
1.209460113E1,-1.689584538E1,-2.079121951E0,-1.840614171E0,1.712250565E1
1.210458713E1,-1.717220584E1,-1.920394020E0,-1.974402705E0,1.739168861E1
1.211457213E1,-1.715386312E1,-1.737897157E0,-2.393133219E0,1.740696393E1
1.212455813E1,-1.687535439E1,-1.758816156E0,-2.878067372E0,1.720913397E1
1.213454312E1,-1.626634233E1,-1.886508821E0,-3.254867211E0,1.669571708E1
1.214452913E1,-1.544075875E1,-2.093952829E0,-3.289239483E0,1.592547536E1
1.215451413E1,-1.439792888E1,-2.358348134E0,-2.869925124E0,1.486938574E1
1.216450013E1,-1.287921519E1,-2.651179617E0,-2.446130774E0,1.337484553E1
1.217448512E1,-1.132736883E1,-2.839595032E0,-2.393689290E0,1.192066831E1
1.218447013E1,-9.875967118E0,-2.922782199E0,-1.985401025E0,1.048900374E1
1.219445613E1,-8.459563910E0,-3.148278902E0,-1.133872252E0,9.097337406E0
1.220444113E1,-7.357004741E0,-3.532507628E0,-3.650090019E-1,8.169293756E0
1.221442712E1,-6.563393151E0,-3.935629293E0,2.246845239E-1,7.656225618E0
1.222441213E1,-6.031249748E0,-4.330816287E0,5.743911432E-1,7.447272549E0
1.223439813E1,-5.686985571E0,-4.831421562E0,7.074353260E-1,7.495659006E0
1.224438313E1,-5.713717872E0,-5.625498006E0,7.278362614E-1,8.051244957E0
1.225436913E1,-5.801359448E0,-6.258506463E0,8.643593913E-1,8.577400058E0
1.226435413E1,-5.855666049E0,-6.922249639E0,1.168339176E0,9.141738422E0
1.227434013E1,-6.021760887E0,-7.567152502E0,1.327382857E0,9.761421332E0
1.228432513E1,-5.896879563E0,-8.193631373E0,1.332921340E0,1.018260590E1
1.229431113E1,-5.400704724E0,-8.772716222E0,1.302563181E0,1.038387366E1
1.230429613E1,-5.072418063E0,-9.300361362E0,1.402937654E0,1.068617708E1
1.231428213E1,-4.801694610E0,-9.907744396E0,1.694175187E0,1.113956461E1
1.232426713E1,-4.306692429E0,-1.042769518E1,2.191169806E0,1.149285220E1
1.233425313E1,-3.980442646E0,-1.063024273E1,2.830188031E0,1.169854472E1
1.234423813E1,-3.722582483E0,-1.087605500E1,3.275321356E0,1.195298803E1
1.235422413E1,-3.430071134E0,-1.124831565E1,3.528593502E0,1.227766122E1
1.236420912E1,-3.075198061E0,-1.154695517E1,3.747042555E0,1.252315235E1
1.237419513E1,-2.785925486E0,-1.184867150E1,3.898865510E0,1.278098390E1
1.238418013E1,-2.570956695E0,-1.218452036E1,3.938731241E0,1.306085597E1
1.239416613E1,-2.005969337E0,-1.247051470E1,3.779233232E0,1.318409093E1
1.240415112E1,-1.024394906E0,-1.251093884E1,3.530285102E0,1.303978100E1
1.241413713E1,-1.199123597E-1,-1.239732510E1,3.425343368E0,1.286238803E1
1.242412213E1,8.520518795E-1,-1.216315347E1,3.415318902E0,1.266225485E1
1.243410813E1,1.663565598E0,-1.143650711E1,3.757027261E0,1.215221788E1
1.244409312E1,2.086318120E0,-1.075251503E1,4.762663568E0,1.194371245E1
1.245407913E1,2.882018335E0,-1.018567542E1,5.698299934E0,1.202183994E1
1.246406413E1,3.940250640E0,-9.522768980E0,5.985092998E0,1.191763577E1
1.247404913E1,5.350787044E0,-8.909683741E0,5.653538913E0,1.183114063E1
1.248403513E1,7.087725257E0,-7.978847355E0,5.000734123E0,1.178580486E1
1.249402013E1,9.214992598E0,-6.761642413E0,4.282092608E0,1.220541740E1
1.250400613E1,1.153493330E1,-5.375998483E0,3.554856271E0,1.321336630E1
1.251399113E1,1.300444969E1,-3.927536162E0,3.073292454E0,1.392789928E1
1.252397713E1,1.343252785E1,-2.985806413E0,3.285655725E0,1.414720389E1
1.253396213E1,1.314842451E1,-2.343631861E0,3.884727527E0,1.390916192E1
1.254394813E1,1.271308995E1,-1.745224888E0,4.196471537E0,1.350106808E1
1.255393313E1,1.232171241E1,-1.599523383E0,3.901402909E0,1.302321068E1
1.256391913E1,1.209624261E1,-1.780143290E0,3.219337775E0,1.264326426E1
1.257390413E1,1.223820599E1,-1.902700930E0,2.574489291E0,1.264997833E1
1.258389013E1,1.267727341E1,-1.912067585E0,2.241578068E0,1.301514256E1
1.259387512E1,1.362082457E1,-1.450199529E0,2.136093712E0,1.386336312E1
1.260386113E1,1.482724315E1,-9.291962421E-1,1.920036170E0,1.497988932E1
1.261384613E1,1.606471981E1,-5.962856036E-1,1.798885955E0,1.617611726E1
1.262383213E1,1.665703924E1,-2.706196654E-1,1.817984131E0,1.675814004E1
1.263381712E1,1.650953855E1,-2.201149249E-1,2.151622748E0,1.665060942E1
1.264380313E1,1.572147187E1,-5.162237728E-1,2.462061367E0,1.592146071E1
1.265378813E1,1.469181462E1,-9.912457252E-1,2.503063213E0,1.493644236E1
1.266377413E1,1.351862576E1,-1.510857959E0,2.352291880E0,1.380468078E1
1.267375912E1,1.227539077E1,-2.229890653E0,2.066762692E0,1.264630930E1
1.268374513E1,1.075218759E1,-2.908938332E0,1.798039278E0,1.128292539E1
1.269373013E1,9.446452875E0,-3.504550336E0,1.566433405E0,1.019661996E1
1.270371613E1,8.481871623E0,-3.980227761E0,1.508118539E0,9.489930494E0
1.271370113E1,7.752443749E0,-4.435046414E0,1.606711366E0,9.074775049E0
1.272368713E1,7.329781859E0,-4.763416105E0,1.764585603E0,8.917936838E0
1.273367213E1,7.176936811E0,-5.104068457E0,2.176348869E0,9.071738048E0
1.274365713E1,6.740826910E0,-5.725005922E0,2.877041770E0,9.300097289E0
1.275364313E1,6.398228019E0,-6.298839971E0,3.547988716E0,9.654062912E0
1.276362813E1,6.316200355E0,-6.671867772E0,4.114544737E0,1.006666205E1
1.277361413E1,6.163592119E0,-7.184929370E0,4.674316525E0,1.055757135E1
1.278359913E1,5.580434099E0,-7.947830215E0,5.033259845E0,1.093814219E1
1.279358513E1,4.673683564E0,-8.737882020E0,5.111822450E0,1.115009547E1
1.280357013E1,3.755873020E0,-9.490329212E0,5.169494122E0,1.144100521E1
1.281355613E1,3.116669146E0,-9.956397908E0,4.607025306E0,1.140474323E1
1.282354112E1,2.805327132E0,-1.038989177E1,3.812582826E0,1.141733327E1
1.283352713E1,2.380787116E0,-1.077525836E1,3.246647195E0,1.150282826E1
1.284351213E1,1.788709900E0,-1.096792412E1,3.034203817E0,1.151960222E1
1.285349813E1,1.292941588E0,-1.119392836E1,3.118438806E0,1.169189423E1
1.286348312E1,1.047667409E0,-1.143685210E1,3.421416086E0,1.198354209E1
1.287346913E1,9.122932573E-1,-1.156406295E1,3.624615016E0,1.215309282E1
1.288345413E1,7.716506908E-1,-1.164880197E1,3.853422119E0,1.229385595E1
1.289344013E1,6.430921264E-1,-1.181018746E1,3.887935309E0,1.245030668E1
1.290342512E1,3.660044172E-1,-1.184092511E1,3.713830078E0,1.241507150E1
1.291341113E1,4.222958547E-1,-1.160647281E1,3.242301837E0,1.205823644E1
1.292339613E1,5.435223761E-1,-1.125267650E1,2.603845822E0,1.156279197E1
1.293338213E1,5.823253763E-1,-1.102322474E1,2.250535271E0,1.126567777E1
1.294336713E1,3.748246497E-1,-1.080011137E1,2.159396621E0,1.102024922E1
1.295335313E1,1.187481791E-2,-1.058305103E1,2.394624698E0,1.085059157E1
1.296333813E1,-4.680269283E-1,-1.022369519E1,2.816573374E0,1.061489887E1
1.297332412E1,-1.142057696E0,-9.666184223E0,3.129691772E0,1.022420578E1
1.298330913E1,-2.245354784E0,-9.150054005E0,3.196207359E0,9.948911895E0
1.299329513E1,-3.783813940E0,-8.733978419E0,2.638699905E0,9.877366255E0
1.300328013E1,-5.530826322E0,-8.337431363E0,2.154205171E0,1.023442238E1
1.301326612E1,-7.812157270E0,-7.664360123E0,1.422367660E0,1.103609293E1
1.302325113E1,-1.040597278E1,-7.074115278E0,1.064686169E0,1.262778417E1
1.303323613E1,-1.344159338E1,-6.505165992E0,8.622818756E-1,1.495784567E1
1.304322213E1,-1.667233322E1,-5.673817057E0,3.722998220E-1,1.761526333E1
1.305320713E1,-1.923818150E1,-4.826318697E0,-2.849082139E-1,1.983638455E1
1.306319313E1,-2.054494064E1,-4.231353394E0,-8.584668598E-1,2.099371103E1
1.307317813E1,-2.059234519E1,-3.859485682E0,-1.012185774E0,2.097533861E1
1.308316413E1,-2.022285729E1,-3.391162884E0,-7.970251948E-1,2.052070154E1
1.309314912E1,-1.941054689E1,-3.138656723E0,-3.530928880E-1,1.966583767E1
1.310313513E1,-1.828534262E1,-3.008391868E0,-9.785870880E-2,1.853142609E1
1.311312013E1,-1.732814640E1,-2.922551819E0,1.275923851E-1,1.757333909E1
1.312310613E1,-1.648923702E1,-3.128734583E0,3.699518725E-1,1.678751863E1
1.313309112E1,-1.570632759E1,-3.433089175E0,3.323823425E-1,1.608058785E1
1.314307713E1,-1.507720227E1,-3.518588331E0,-5.600550860E-2,1.548242967E1
1.315306213E1,-1.445297106E1,-3.814358041E0,-4.367346767E-1,1.495421135E1
1.316304813E1,-1.391769005E1,-4.306641558E0,-8.113429794E-1,1.459135138E1
1.317303313E1,-1.335068554E1,-4.690656277E0,-1.188133317E0,1.420051836E1
1.318301913E1,-1.258559375E1,-5.092412032E0,-1.520988261E0,1.366174350E1
1.319300413E1,-1.173202072E1,-5.618315286E0,-1.694067744E0,1.311776057E1
1.320299012E1,-1.072101959E1,-6.213049623E0,-1.597019313E0,1.249370711E1
1.321297513E1,-9.723868759E0,-6.598495156E0,-1.440100949E0,1.183924207E1
1.322296113E1,-8.716484134E0,-6.957827607E0,-1.076107535E0,1.120475203E1
1.323294613E1,-7.881939695E0,-7.395347273E0,-6.444689995E-1,1.082734847E1
1.324293212E1,-7.127091052E0,-7.963279728E0,-5.167710721E-2,1.068699777E1
1.325291713E1,-6.344147122E0,-8.432342198E0,5.456263505E-1,1.056647083E1
1.326290313E1,-5.645018935E0,-8.897826172E0,1.103126203E0,1.059501943E1
1.327288813E1,-5.066185516E0,-9.518481216E0,1.541725265E0,1.089241191E1
1.328287313E1,-4.673717770E0,-1.001059341E1,1.820673850E0,1.119689562E1
1.329285913E1,-4.196494634E0,-1.032725405E1,1.912087466E0,1.131012033E1
1.330284413E1,-3.531846893E0,-1.075998309E1,2.031427383E0,1.150555848E1
1.331283013E1,-2.761929682E0,-1.123400283E1,2.253141375E0,1.178591198E1
1.332281512E1,-1.838257743E0,-1.163148954E1,2.565693324E0,1.205211693E1
1.333280113E1,-9.831033312E-1,-1.172975550E1,2.925105298E0,1.212888690E1
1.334278613E1,-1.394166977E-1,-1.167060741E1,3.388983042E0,1.215350651E1
1.335277213E1,3.335265695E-1,-1.164344358E1,3.809241435E0,1.225525760E1
1.336275712E1,3.370701284E-1,-1.165449482E1,4.120439315E0,1.236603760E1
1.337274313E1,7.710299358E-2,-1.168028806E1,4.352422333E0,1.246509744E1
1.338272813E1,-3.753595237E-1,-1.192639620E1,4.298086497E0,1.268279814E1
1.339271413E1,-2.553110701E-1,-1.222644607E1,3.794517853E0,1.280427792E1
1.340269912E1,1.630823529E-1,-1.216922522E1,3.321131659E0,1.261533011E1
1.341268513E1,4.660385826E-1,-1.219369698E1,3.499556229E0,1.269450006E1
1.342267013E1,4.079248604E-1,-1.232767774E1,3.874884324E0,1.292875747E1
1.343265613E1,8.457880497E-1,-1.237131317E1,4.175269825E0,1.308425104E1
1.344264113E1,1.810126058E0,-1.215515331E1,4.542477600E0,1.310184762E1
1.345262713E1,3.072232061E0,-1.164419671E1,4.838447869E0,1.297830900E1
1.346261275E1,4.814620757E0,-1.094218818E1,4.439740559E0,1.275238611E1
1.347259875E1,6.909122640E0,-9.994252782E0,3.830041443E0,1.273932030E1
1.348258375E1,8.509888557E0,-8.962295233E0,3.670280893E0,1.289231945E1
1.349256975E1,9.296333215E0,-7.962106192E0,3.511516709E0,1.273372278E1
1.350255475E1,9.483488554E0,-7.265255495E0,3.349054161E0,1.240712119E1
1.351254075E1,1.002239543E1,-6.762790806E0,3.107063340E0,1.248349279E1
1.352252575E1,1.120853236E1,-5.655522873E0,2.756746418E0,1.285362935E1
1.353251075E1,1.245308415E1,-4.458420074E0,2.782149062E0,1.351655162E1
1.354249675E1,1.332342582E1,-3.370254995E0,3.246036746E0,1.412122689E1
1.355248175E1,1.364003150E1,-2.433017955E0,3.455514416E0,1.427972744E1
1.356246775E1,1.407331954E1,-1.789707581E0,3.480237613E0,1.460730741E1
1.357245275E1,1.458912348E1,-1.141614769E0,3.337959069E0,1.500958957E1
1.358243875E1,1.511417889E1,-5.339721188E-1,3.206121898E0,1.545971369E1
1.359242375E1,1.568840470E1,-1.734246156E-1,3.022501785E0,1.597784827E1
1.360240975E1,1.605929827E1,-8.184640110E-3,2.784753996E0,1.629895649E1
1.361239475E1,1.580307562E1,2.403416133E-1,2.926367127E0,1.607353687E1
1.362238075E1,1.493191533E1,1.680673966E-1,3.286864344E0,1.529031783E1
1.363236575E1,1.401932635E1,-1.490811950E-1,3.519639661E0,1.445515824E1
1.364235175E1,1.316517912E1,-3.974983978E-1,3.375909837E0,1.359693765E1
1.365233675E1,1.252824192E1,-7.313223714E-1,2.925832692E0,1.288612335E1
1.366232275E1,1.189099598E1,-1.178271549E0,2.458661211E0,1.219955427E1
1.367230775E1,1.094394819E1,-1.683840818E0,2.274804286E0,1.130398410E1
1.368229375E1,9.861398195E0,-2.211030459E0,2.237218968E0,1.035089266E1
1.369227875E1,8.838821919E0,-2.925719256E0,2.124175625E0,9.549697805E0
1.370226475E1,7.779629794E0,-3.661119475E0,1.939475239E0,8.814079631E0
1.371224975E1,7.014073729E0,-4.299103913E0,1.728043429E0,8.406286863E0
1.372223575E1,6.528388209E0,-4.901494594E0,1.655999885E0,8.329876199E0
1.373222075E1,6.229698985E0,-5.564608610E0,1.644834042E0,8.513489147E0
1.374220675E1,5.877663859E0,-6.223237812E0,1.552697711E0,8.699798359E0
1.375219175E1,5.403447068E0,-6.808049424E0,1.520495925E0,8.823756855E0
1.376217775E1,4.870055870E0,-7.447305046E0,1.445980178E0,9.015023866E0
1.377216275E1,4.549478763E0,-8.103707044E0,1.544677670E0,9.420926386E0
1.378214875E1,4.657407255E0,-8.569336029E0,1.731278694E0,9.905669499E0
1.379213375E1,4.668195367E0,-8.962022168E0,2.067834779E0,1.031435068E1
1.380211875E1,4.583117795E0,-9.580388027E0,2.848621671E0,1.099561044E1
1.381210475E1,4.297943825E0,-1.031932991E1,3.597821904E0,1.174330504E1
1.382208975E1,3.919653238E0,-1.083244647E1,3.816213947E0,1.213544671E1
1.383207575E1,3.603636668E0,-1.114879253E1,3.758045846E0,1.230466093E1
1.384206075E1,3.175978624E0,-1.170878973E1,3.502481299E0,1.262735017E1
1.385204675E1,2.735001208E0,-1.210240324E1,3.270673989E0,1.283143422E1
1.386203175E1,2.214550336E0,-1.223844689E1,3.299270382E0,1.286736184E1
1.387201775E1,1.986090558E0,-1.193355904E1,3.458308800E0,1.258230053E1
1.388200275E1,1.953177896E0,-1.158563450E1,3.392125921E0,1.222899624E1
1.389198875E1,2.042153223E0,-1.154390292E1,3.117061787E0,1.213046408E1
1.390197375E1,2.366800722E0,-1.149813092E1,2.914247019E0,1.209551967E1
1.391195975E1,2.407309355E0,-1.134254938E1,2.838242571E0,1.193751170E1
1.392194475E1,2.096009003E0,-1.131794078E1,3.068469378E0,1.191236927E1
1.393193075E1,1.675705294E0,-1.151103456E1,3.547735240E0,1.216134574E1
1.394191575E1,1.022506694E0,-1.177577543E1,3.978616853E0,1.247171997E1
1.395190175E1,-2.508747876E-2,-1.197492458E1,4.196893414E0,1.268910408E1
1.396188675E1,-1.379399688E0,-1.174798595E1,3.792034248E0,1.242165211E1
1.397187275E1,-2.615603403E0,-1.119757819E1,3.245828877E0,1.194832806E1
1.398185775E1,-4.519574933E0,-1.054909508E1,2.712544391E0,1.179270374E1
1.399184375E1,-7.448797256E0,-9.712242156E0,2.234502352E0,1.244207495E1
1.400182875E1,-1.056432122E1,-8.649612452E0,1.559557080E0,1.374237595E1
1.401181475E1,-1.303340861E1,-7.492135064E0,7.784129226E-1,1.505349642E1
1.402179975E1,-1.461284914E1,-6.347109906E0,-2.673627663E-1,1.593400913E1
1.403178475E1,-1.493162297E1,-5.592467085E0,-1.118513882E0,1.598374568E1
1.404177075E1,-1.454286499E1,-5.105928456E0,-1.391008165E0,1.547579824E1
1.405175575E1,-1.411156501E1,-4.528234075E0,-1.417111305E0,1.488789358E1
1.406174175E1,-1.382850714E1,-3.898004215E0,-1.062623856E0,1.440663792E1
1.407172675E1,-1.361553401E1,-3.674513692E0,-3.133709979E-1,1.410613408E1
1.408171275E1,-1.387867976E1,-3.689367374E0,3.104087985E-1,1.436403624E1
1.409169775E1,-1.445327629E1,-3.375512812E0,3.819082591E-1,1.484712552E1
1.410168375E1,-1.463939784E1,-3.120412241E0,1.003168783E-1,1.496860064E1
1.411166875E1,-1.450938851E1,-3.101450306E0,-5.245246263E-1,1.484642970E1
1.412165475E1,-1.442016468E1,-3.055504054E0,-1.435455336E0,1.481005693E1
1.413163975E1,-1.411177901E1,-3.030216016E0,-2.079277487E0,1.458245216E1
1.414162575E1,-1.343719393E1,-3.067180359E0,-2.424564489E0,1.399443779E1
1.415161075E1,-1.265411844E1,-3.155462206E0,-2.721754341E0,1.332259741E1
1.416159675E1,-1.174576752E1,-3.377493263E0,-2.765886785E0,1.253078789E1
1.417158175E1,-1.075747347E1,-3.640624400E0,-2.483123038E0,1.162511426E1
1.418156775E1,-9.688364466E0,-3.858253673E0,-1.966305334E0,1.061211026E1
1.419155275E1,-8.622921667E0,-4.009770234E0,-1.357275724E0,9.605999833E0
1.420153875E1,-7.720831363E0,-4.008894905E0,-7.829585481E-1,8.734729497E0
1.421152375E1,-7.093640301E0,-4.243094603E0,-4.265438569E-1,8.276806400E0
1.422150975E1,-6.513435709E0,-4.640497692E0,-2.140034151E-1,8.000303809E0
1.423149475E1,-5.945019105E0,-4.747000047E0,-2.244633530E-1,7.611021311E0
1.424148075E1,-5.493812862E0,-4.829838721E0,-2.997101480E-1,7.321143900E0
1.425146575E1,-5.296247140E0,-4.986775650E0,-2.800664270E-1,7.279876534E0
1.426145075E1,-5.314674055E0,-5.225732058E0,9.431456521E-2,7.454054674E0
1.427143675E1,-5.428030517E0,-5.581846202E0,7.698859280E-1,7.823889484E0
1.428142175E1,-5.464870899E0,-5.931151264E0,1.119672142E0,8.142299120E0
1.429140775E1,-5.157763438E0,-6.235681272E0,1.118634262E0,8.169307634E0
1.430139275E1,-4.616979021E0,-6.593496371E0,1.070075548E0,8.120083211E0
1.431137875E1,-3.924716050E0,-7.010131536E0,1.019598801E0,8.098451824E0
1.432136375E1,-3.273413117E0,-7.405727250E0,1.144340961E0,8.177380129E0
1.433134975E1,-2.729858581E0,-7.764189636E0,1.373585801E0,8.343950295E0
1.434133475E1,-2.312736051E0,-8.136706975E0,1.467555234E0,8.585363521E0
1.435132075E1,-1.895457399E0,-8.494468279E0,1.351313757E0,8.807655702E0
1.436130575E1,-1.476519893E0,-8.924609343E0,1.096663349E0,9.112158549E0
1.437129175E1,-1.184162911E0,-9.594548814E0,1.069642269E0,9.726342752E0
1.438127675E1,-9.952620314E-1,-1.033490806E1,1.517579334E0,1.049304141E1
1.439126275E1,-7.801106617E-1,-1.048770399E1,2.321656124E0,1.076989298E1
1.440124775E1,-3.186900273E-1,-1.032059057E1,3.064769552E0,1.077074581E1
1.441123375E1,1.537744626E-1,-1.023215845E1,3.671727494E0,1.087208792E1
1.442121875E1,1.101058920E0,-1.040292053E1,3.429224750E0,1.100875418E1
1.443120475E1,2.536899880E0,-1.044356102E1,2.149523597E0,1.096012224E1
1.444118975E1,4.507536978E0,-1.010300281E1,3.625792645E-1,1.106887614E1
1.445117575E1,6.679095515E0,-9.199921984E0,-1.075578509E0,1.141953373E1
1.446116100E1,8.209412423E0,-7.963102557E0,-1.225803273E0,1.150252356E1
1.447114700E1,8.208737070E0,-6.756195731E0,1.350762364E-1,1.063239346E1
1.448113200E1,7.451982819E0,-5.894756439E0,2.449505641E0,9.812251490E0
1.449111700E1,6.513232811E0,-5.060411975E0,4.231956827E0,9.270352183E0
1.450110300E1,6.321905483E0,-4.412218300E0,4.530021569E0,8.941770220E0
1.451108800E1,7.174224873E0,-4.042143928E0,3.038179632E0,8.777184374E0
1.452107400E1,8.504273475E0,-3.872730210E0,6.479878539E-1,9.366994976E0
1.453105900E1,9.872572224E0,-3.605198459E0,-1.555723353E0,1.062475475E1
1.454104500E1,1.112088962E1,-2.887421163E0,-2.782128889E0,1.182165927E1
1.455103000E1,1.158834293E1,-2.041889221E0,-2.946290053E0,1.213011247E1
1.456101600E1,1.109224528E1,-1.385616447E0,-2.016350045E0,1.135885143E1
1.457100100E1,9.693712914E0,-9.798734754E-1,-7.621252111E-1,9.772873524E0
1.458098700E1,7.905588174E0,-8.581455553E-1,3.083663660E-1,7.958004021E0
1.459097200E1,6.437824194E0,-9.144864017E-1,8.540498731E-1,6.558297563E0
1.460095800E1,5.082436098E0,-1.026739494E0,7.605812538E-1,5.240594863E0
1.461094300E1,3.857739995E0,-1.030900372E0,4.825245148E-1,4.022156556E0
1.462092900E1,3.217882110E0,-9.307404917E-1,2.318906325E-1,3.357799339E0
1.463091400E1,3.268433044E0,-5.554486495E-1,8.075209469E-2,3.316277833E0
1.464090000E1,3.354079843E0,-6.355455637E-2,1.799743742E-1,3.359506146E0
1.465088500E1,3.097003498E0,1.674192327E-1,7.158939081E-1,3.183074607E0
1.466087100E1,2.457365761E0,2.864878392E-1,1.264113353E0,2.778255627E0
1.467085600E1,1.918211839E0,3.352226275E-1,1.462269351E0,2.435188396E0
1.468084200E1,1.596058031E0,3.550207150E-1,1.212436245E0,2.035544791E0
1.469082700E1,1.114855572E0,3.238468695E-1,8.336363661E-1,1.429240823E0
1.470081300E1,4.673375416E-1,3.393162632E-1,8.396449649E-1,1.019089580E0
1.471079800E1,2.330197299E-1,3.608772862E-1,1.291473352E0,1.361041523E0
1.472078400E1,3.513884246E-2,6.339375794E-1,1.900118215E0,2.003387338E0
1.473076900E1,-1.485724872E-1,7.954885465E-1,2.336616372E0,2.472782215E0
1.474075400E1,-2.890571058E-1,7.904593563E-1,2.271280754E0,2.422208964E0
1.475074000E1,-1.850851330E-1,7.185438663E-1,1.703976874E0,1.858520644E0
1.476072500E1,2.737792084E-1,7.105647558E-1,1.156974528E0,1.385080281E0
1.477071100E1,5.831688371E-1,8.609101188E-1,1.120562747E0,1.528696502E0
1.478069600E1,7.024529135E-1,7.887747735E-1,1.141437306E0,1.555147859E0
1.479068200E1,5.630456445E-1,8.091885728E-1,1.041025411E0,1.433715610E0
1.480066700E1,8.069537669E-2,6.689337498E-1,7.860669279E-1,1.035318946E0
1.481065300E1,-3.585231972E-1,4.307760715E-1,5.662057722E-1,7.966780298E-1
1.482063800E1,-7.051756695E-1,5.057981873E-1,2.356299269E-1,8.992363391E-1
1.483062400E1,-7.829816446E-1,4.971682817E-1,5.376573265E-2,9.290464520E-1
1.484060900E1,-7.888025478E-1,5.132036859E-1,2.398446000E-1,9.711400078E-1
1.485059500E1,-6.890812084E-1,6.477416861E-1,4.742261463E-1,1.057966276E0
1.486058000E1,-4.023621118E-1,6.341065639E-1,5.481045467E-1,9.297338315E-1
1.487056600E1,1.288267323E-1,4.682584780E-1,2.943938595E-1,5.679173124E-1
1.488055100E1,3.582907704E-1,4.461431390E-1,2.261071515E-1,6.152563860E-1
1.489053700E1,1.465671846E-1,3.888702464E-1,4.955795932E-1,6.467620438E-1
1.490052200E1,-2.344218922E-1,2.647917455E-1,6.804170966E-1,7.668348697E-1
1.491050800E1,-4.190810555E-1,1.748533827E-1,6.196610177E-1,7.682333066E-1
1.492049300E1,-4.738042697E-1,1.167770827E-1,2.570459390E-1,5.515432783E-1
1.493047900E1,-4.902226666E-1,1.337188053E-1,-1.769911247E-1,5.380751248E-1
1.494046400E1,-3.964900455E-1,2.342166549E-1,-2.065037763E-1,5.046836705E-1
1.495045000E1,-2.741832510E-1,2.976788253E-1,1.461178261E-1,4.302784647E-1
1.496043500E1,4.723392498E-1,5.768593991E-1,1.674000539E0,1.832525289E0
1.497042000E1,7.225699666E-1,7.703730011E-1,1.207457049E0,1.604223938E0
1.498040600E1,8.222173387E-1,3.745118237E-1,1.040756439E0,1.378214215E0
1.499039100E1,6.897670868E-1,2.711710578E-1,7.163558382E-1,1.030765766E0
1.500037700E1,8.923260391E-2,3.408254296E-1,7.087760925E-2,3.593717665E-1
1.501036200E1,-3.994858664E-1,2.358743405E-1,-4.269777203E-1,6.305042709E-1
1.502034800E1,-5.301582724E-1,1.321786487E-1,-5.446769089E-1,7.714997887E-1
1.503033300E1,-6.428382111E-1,1.494139016E-1,-5.864774841E-1,8.829050453E-1
1.504031900E1,-4.603998202E-1,1.060421795E-1,-6.195592761E-1,7.791448100E-1
1.505030400E1,-3.386178133E-1,1.139037609E-2,-5.712928498E-1,6.642042490E-1
1.506029000E1,-2.759479406E-1,-1.098691821E-2,-3.913079506E-1,4.789466469E-1
1.507027500E1,-8.141224533E-2,-1.794101179E-2,-3.033167106E-1,3.145645570E-1
1.508026100E1,1.505017760E-1,6.403695166E-2,-2.840524739E-1,3.277763318E-1
1.509024600E1,2.451239048E-1,1.071636754E-1,-3.013877141E-1,4.029942137E-1
1.510023200E1,1.812476054E-1,2.574236691E-2,-4.134425855E-1,4.521594137E-1
1.511021700E1,9.285378456E-4,-6.975845218E-2,-5.493798244E-1,5.537917436E-1
1.512020300E1,4.186372519E-2,-3.660415471E-2,-6.344731843E-1,6.369055325E-1
1.513018800E1,-2.537796843E-1,-1.348420554E-1,-1.412006101E0,1.440953760E0
1.514017400E1,6.016638726E-2,-1.947970659E-1,-9.136099041E-2,2.234115520E-1
1.515015900E1,3.923595724E-1,1.572088248E-1,7.781620771E-1,8.855489071E-1
1.516014500E1,-4.353895247E-2,6.914507926E-2,8.004551715E-1,8.046149165E-1
1.517013000E1,2.680436745E-2,-9.347709775E-2,1.022122532E0,1.026737996E0
1.518011500E1,-2.018950009E-1,2.986523867E-2,1.086650065E0,1.105649984E0
1.519010100E1,-4.339169034E-1,6.898778915E-2,1.181746257E0,1.260780477E0
1.520008600E1,-6.460668974E-1,-1.967588067E-3,1.230988584E0,1.390229909E0
1.521007200E1,-6.412599014E-1,7.575360239E-2,1.123258313E0,1.295631933E0
1.522005700E1,-4.750450489E-1,-4.385879517E-2,6.022024012E-1,7.682702157E-1
1.523004300E1,-2.292946149E-1,-1.394514155E-1,-6.541630983E-2,2.762281871E-1
1.524002800E1,3.743406464E-1,-2.956118345E-2,-9.660331160E-1,1.036448148E0