"Time (s)","Linear Acceleration x (m/s^2)","Linear Acceleration y (m/s^2)","Linear Acceleration z (m/s^2)","Absolute acceleration (m/s^2)"
4.277708300E-3,-3.589868814E-2,2.135140032E-1,1.050423056E-1,2.406466940E-1
1.426270831E-2,2.240687756E-2,2.419390726E-1,6.571393311E-2,2.517040008E-1
2.424870833E-2,5.010071158E-2,2.480669546E-1,-6.538064182E-2,2.613846277E-1
3.423370834E-2,5.948222192E-2,2.925215811E-1,-1.449606621E-1,3.318442461E-1
4.421970830E-2,7.855781738E-2,3.543395144E-1,-1.266740799E-1,3.844140276E-1
5.420470831E-2,2.469097358E-2,3.730424184E-1,-1.014737499E-1,3.873850952E-1
6.419070833E-2,2.069730702E-2,3.691358936E-1,-8.454021335E-2,3.792581365E-1
7.417570835E-2,6.691809865E-2,3.593862462E-1,-1.030723786E-1,3.798162992E-1
8.416170831E-2,1.413073675E-1,3.638529342E-1,-1.310080361E-1,4.117278657E-1
9.414670832E-2,2.711849267E-1,3.680173212E-1,-1.247035682E-1,4.738449041E-1
1.041327083E-1,4.538587593E-1,4.283231646E-1,-1.010761392E-1,6.321905509E-1
1.141177083E-1,6.481419280E-1,5.024103105E-1,-1.104889870E-1,8.274731991E-1
1.241037917E-1,7.753522707E-1,5.491114372E-1,-1.046347547E-1,9.558467168E-1
1.340887917E-1,8.013932110E-1,5.875855315E-1,-6.319202900E-2,9.957314236E-1
1.440747916E-1,7.589715884E-1,6.443239886E-1,-2.442615410E-2,9.958854910E-1
1.540597916E-1,7.433538947E-1,6.408905035E-1,4.708294988E-2,9.826151100E-1
1.640457917E-1,7.250735982E-1,6.783302253E-1,2.249634361E-1,1.018072770E0
1.740307917E-1,6.928968090E-1,8.059047765E-1,4.139056849E-1,1.140572844E0
1.840167916E-1,6.765446319E-1,9.255867559E-1,5.339876139E-1,1.264739599E0
1.940017916E-1,7.005317377E-1,1.068535391E0,5.542049468E-1,1.392715233E0
2.039877917E-1,7.300948215E-1,1.282820057E0,4.923028135E-1,1.555965234E0
2.139727917E-1,7.516370603E-1,1.505887826E0,3.660064638E-1,1.722387049E0
2.239587916E-1,8.494125925E-1,1.650619862E0,2.457233906E-1,1.872545771E0
2.339447917E-1,9.961169674E-1,1.816732827E0,2.081047440E-1,2.082324365E0
2.439297917E-1,1.202885257E0,1.940216081E0,2.558741752E-1,2.297137997E0
2.539157916E-1,1.410428522E0,2.006324117E0,3.743983877E-1,2.480890814E0
2.639007916E-1,1.738340376E0,2.132260278E0,5.612356389E-1,2.807729794E0
2.738867917E-1,2.270283950E0,2.297420731E0,7.852588427E-1,3.323997996E0
2.838717917E-1,3.003621125E0,2.399741158E0,9.813230002E-1,3.967806991E0
2.938577916E-1,3.622441021E0,2.494450264E0,1.100621402E0,4.533842580E0
3.038427916E-1,3.898762306E0,2.531612828E0,1.174850636E0,4.794755994E0
3.138287917E-1,3.932885195E0,2.477796224E0,1.291281563E0,4.824361943E0
3.238137917E-1,3.911147878E0,2.267447904E0,1.398641120E0,4.732292754E0
3.337997916E-1,3.848501102E0,1.916177593E0,1.183395756E0,4.459049542E0
3.437847917E-1,3.509735062E0,1.529112382E0,6.945136372E-1,3.890857756E0
3.537707917E-1,2.961111867E0,1.265798813E0,3.228152744E-1,3.236454824E0
3.637557917E-1,2.639711181E0,1.125455697E0,2.993445508E-1,2.885191987E0
3.737417916E-1,2.290810162E0,1.035481081E0,7.161785214E-1,2.613990042E0
3.837267917E-1,1.722609027E0,9.673879158E-1,1.399742736E0,2.421260202E0
3.937127917E-1,1.152855091E0,6.928377521E-1,1.847213777E0,2.285015919E0
4.036977916E-1,1.005345189E0,3.790235353E-1,2.389666844E0,2.620092635E0
4.136837916E-1,6.708018621E-1,2.367859215E-1,2.797995601E0,2.887009195E0
4.236687917E-1,8.073294505E-2,-9.686322033E-2,2.787138491E0,2.789989473E0
4.336547917E-1,-4.903811261E-1,-3.696492791E-1,2.695822231E0,2.764881868E0
4.436397916E-1,-1.210523475E0,-5.240596265E-1,2.380887688E0,2.721880188E0
4.536257916E-1,-1.983439138E0,-9.335945177E-1,2.115409333E0,3.046405453E0
4.636107917E-1,-2.872174548E0,-1.485951160E0,1.946959090E0,3.774663850E0
4.735967917E-1,-3.945163471E0,-1.944507353E0,1.836133011E0,4.766215280E0
4.835817916E-1,-4.893171667E0,-2.257890630E0,1.776753367E0,5.674332700E0
4.935677917E-1,-5.837424490E0,-2.595968453E0,1.778376846E0,6.631530826E0
5.035527917E-1,-7.102885333E0,-3.062627717E0,1.773293277E0,7.935693898E0
5.135387916E-1,-8.587101624E0,-3.576785669E0,1.753092609E0,9.465994069E0
5.235237916E-1,-9.952171540E0,-4.162925768E0,1.646112244E0,1.091262365E1
5.335097917E-1,-1.131861789E1,-4.914763681E0,1.230958470E0,1.240085770E1
5.434947917E-1,-1.251582945E1,-5.689771770E0,5.089931059E-1,1.375785461E1
5.534807916E-1,-1.357469588E1,-6.447085015E0,-3.343861833E-1,1.503160296E1
5.634667916E-1,-1.456475462E1,-7.176570191E0,-9.077577183E-1,1.626220345E1
5.734517917E-1,-1.516681786E1,-7.750587843E0,-8.321728081E-1,1.705275601E1
5.834377917E-1,-1.556002323E1,-8.244528462E0,-2.212165403E-1,1.761066465E1
5.934227916E-1,-1.569222293E1,-8.813295899E0,6.303868577E-1,1.800881542E1
6.034087916E-1,-1.539003415E1,-9.438739228E0,1.380511536E0,1.810659442E1
6.133937917E-1,-1.454533953E1,-1.014910459E1,1.915368923E0,1.783927869E1
6.233797917E-1,-1.320673528E1,-1.093914646E1,2.481311570E0,1.732742592E1
6.333647916E-1,-1.182160006E1,-1.170323955E1,3.090422749E0,1.691941951E1
6.433507917E-1,-1.075615083E1,-1.242991046E1,3.809041752E0,1.687324076E1
6.533357917E-1,-1.006879893E1,-1.318028832E1,4.670543902E0,1.723121274E1
6.633217916E-1,-9.521446339E0,-1.402548230E1,5.593552328E0,1.785104820E1
6.733067916E-1,-8.978130078E0,-1.453384390E1,6.452701850E0,1.826134714E1
6.832927917E-1,-8.418503593E0,-1.487010090E1,7.362617483E0,1.860643007E1
6.932777917E-1,-7.718401845E0,-1.534274304E1,8.446587185E0,1.913944425E1
7.032637916E-1,-6.690628563E0,-1.564367584E1,9.219687327E0,1.935178903E1
7.132487916E-1,-5.201472545E0,-1.579076957E1,9.693631053E0,1.924500463E1
7.232347917E-1,-3.001888595E0,-1.548848372E1,9.822523566E0,1.858457512E1
7.332197917E-1,-6.175016409E-1,-1.502513164E1,9.689623371E0,1.788923392E1
7.432057916E-1,1.319703709E0,-1.456082062E1,9.828743834E0,1.761713144E1
7.531907916E-1,3.730989025E0,-1.385343032E1,9.890319693E0,1.742573483E1
7.631767917E-1,6.767711238E0,-1.256830002E1,9.220275557E0,1.699345645E1
7.731617917E-1,8.766415848E0,-1.147246866E1,9.052663951E0,1.704166390E1
7.831477916E-1,9.727349607E0,-1.051354517E1,9.325755819E0,1.709168465E1
7.931327916E-1,1.153745461E1,-9.187493727E0,8.623459611E0,1.708469946E1
8.031187917E-1,1.406310094E1,-8.022650017E0,6.988388080E0,1.763437806E1
8.131037917E-1,1.660438740E1,-6.819873079E0,5.084522384E0,1.865659985E1
8.230897916E-1,1.856087746E1,-5.269406081E0,3.579760147E0,1.962364633E1
8.330747916E-1,1.896880027E1,-4.321175105E0,3.047695683E0,1.969203867E1
8.430607917E-1,1.802171973E1,-4.199782523E0,2.948297694E0,1.873800989E1
8.530467916E-1,1.734815791E1,-4.045562795E0,2.473103834E0,1.798447675E1
8.630317916E-1,1.787303907E1,-3.847076428E0,1.620469864E0,1.835405801E1
8.730177917E-1,1.926610312E1,-3.861950283E0,6.935806409E-1,1.966159819E1
8.830027917E-1,2.157259347E1,-3.322915060E0,-4.251001793E-1,2.183115351E1
8.929887916E-1,2.386266249E1,-2.655901828E0,-1.119085155E0,2.403607346E1
9.029737916E-1,2.533560652E1,-2.123514744E0,-1.173350532E0,2.545150338E1
9.129597917E-1,2.559261504E1,-1.911695702E0,-8.317225724E-1,2.567738864E1
9.229447917E-1,2.486553015E1,-2.332948267E0,-3.556677094E-1,2.497726439E1
9.329307916E-1,2.362522344E1,-2.913325498E0,-4.430607793E-1,2.380829584E1
9.429157916E-1,2.228256941E1,-3.600728555E0,-8.587179977E-1,2.258795126E1
9.529017917E-1,2.045400240E1,-4.569787897E0,-1.125054139E0,2.098844736E1
9.628867917E-1,1.804781118E1,-5.514198595E0,-9.697232938E-1,1.889630223E1
9.728727916E-1,1.586566655E1,-6.322539321E0,-2.022366245E-1,1.708024526E1
9.828577916E-1,1.434674353E1,-6.804610092E0,9.416244259E-1,1.590655289E1
9.928437917E-1,1.330677529E1,-7.154632022E0,2.529010232E0,1.531845034E1
1.002828792E0,1.274998237E1,-7.500304209E0,4.345109805E0,1.541741200E1
1.012814792E0,1.241915392E1,-7.942033285E0,5.818188320E0,1.584811005E1
1.022799792E0,1.185698390E1,-8.516735646E0,7.070947257E0,1.622100947E1
1.032785792E0,1.113248114E1,-9.156414607E0,8.447263123E0,1.670713377E1
1.042770792E0,1.048702688E1,-9.897352724E0,9.737155387E0,1.739964134E1
1.052756792E0,9.947539376E0,-1.069637007E1,1.076848495E1,1.814734527E1
1.062741792E0,9.244523376E0,-1.157261977E1,1.179329135E1,1.893326336E1
1.072727792E0,8.441299548E0,-1.243263994E1,1.296492719E1,1.984730236E1
1.082712792E0,7.657075077E0,-1.331233015E1,1.398804725E1,2.077292465E1
1.092698792E0,6.714023273E0,-1.427335512E1,1.448381630E1,2.141466109E1
1.102683792E0,5.577159659E0,-1.526675847E1,1.456088845E1,2.182196362E1
1.112669792E0,4.440780194E0,-1.618313411E1,1.443560133E1,2.213596494E1
1.122654208E0,3.569019105E0,-1.698634624E1,1.431017972E1,2.249566846E1
1.132640208E0,2.441077464E0,-1.756206777E1,1.437499260E1,2.282598291E1
1.142625208E0,8.764179580E-1,-1.771125480E1,1.436127035E1,2.281891192E1
1.152611208E0,-6.481308183E-1,-1.752543848E1,1.397752811E1,2.242615347E1
1.162597208E0,-1.058928854E0,-1.699675896E1,1.318455796E1,2.153703123E1
1.172582208E0,-1.055546971E0,-1.640484649E1,1.227113283E1,2.051374829E1
1.182568208E0,-1.283063009E0,-1.558798579E1,1.133785523E1,1.931782889E1
1.192553208E0,-8.550399528E-1,-1.475667895E1,1.024388796E1,1.798410152E1
1.202539208E0,-5.800940788E-1,-1.425605087E1,9.073356662E0,1.690849777E1
1.212524208E0,-1.082436562E0,-1.405410559E1,7.742329820E0,1.608207772E1
1.222510208E0,-2.373000087E0,-1.442401214E1,6.342606965E0,1.593461386E1
1.232495208E0,-4.456887519E0,-1.531050383E1,4.629095913E0,1.660433386E1
1.242481208E0,-7.712170467E0,-1.557862089E1,2.020794806E0,1.750013182E1
1.252466208E0,-1.153429127E1,-1.497866148E1,-6.373769116E-1,1.891577184E1
1.262452208E0,-1.510741483E1,-1.411496107E1,-2.037168179E0,2.077537395E1
1.272437208E0,-1.860257512E1,-1.330819266E1,-2.224396609E0,2.298068174E1
1.282423208E0,-2.182067212E1,-1.245102944E1,-1.845072527E0,2.519075541E1
1.292408208E0,-2.285264019E1,-1.146319615E1,-1.543277262E0,2.561307741E1
1.302394208E0,-2.086220354E1,-1.070271780E1,-1.412515393E0,2.348988942E1
1.312379208E0,-1.745633140E1,-9.791235116E0,-1.639758951E0,2.008184754E1
1.322365208E0,-1.397591194E1,-8.743339811E0,-2.109201491E0,1.661989280E1
1.332350208E0,-1.109709145E1,-7.677380118E0,-2.563642121E0,1.373535092E1
1.342336208E0,-9.012174321E0,-6.646320117E0,-2.862996758E0,1.155809706E1
1.352321208E0,-7.492658390E0,-5.419381315E0,-2.873451580E0,9.683302513E0
1.362307208E0,-6.175426884E0,-4.060327014E0,-2.598869841E0,7.834301316E0
1.372292208E0,-4.750127138E0,-2.894199255E0,-2.017126848E0,5.916831743E0
1.382278208E0,-3.399662982E0,-2.038020703E0,-1.101547601E0,4.113957206E0
1.392263208E0,-2.473263463E0,-1.286128997E0,2.725796521E-2,2.787813292E0
1.402249208E0,-1.811915891E0,-5.386262101E-1,1.060991606E0,2.167685534E0
1.412234208E0,-1.139917030E0,4.607781351E-2,1.869925532E0,2.190469241E0
1.422220208E0,-5.234842604E-1,4.961315703E-1,2.310356819E0,2.420316288E0
1.432205208E0,-8.368593514E-2,7.436699367E-1,2.340011558E0,2.456766656E0
1.442191208E0,1.976253641E-1,7.453112501E-1,1.934003999E0,2.082046136E0
1.452177208E0,2.125720167E-1,6.249299437E-1,1.136985236E0,1.314708989E0
1.462162208E0,-2.203113914E-1,4.232238078E-1,2.162057689E-1,5.238324495E-1
1.472148208E0,-6.798271126E-1,6.316045403E-2,-5.203010362E-1,8.584097589E-1
1.482133208E0,-1.037451008E0,-2.694882292E-1,-1.067611239E0,1.512852358E0
1.492119208E0,-1.460639148E0,-6.115602851E-1,-1.412048786E0,2.121639572E0
1.502104208E0,-2.114861888E0,-1.000146942E0,-1.516791421E0,2.788116017E0
1.512090208E0,-2.982368250E0,-1.385438107E0,-1.515339850E0,3.620802949E0
1.522075208E0,-3.988264174E0,-1.858460897E0,-1.425877158E0,4.625284175E0
1.532061208E0,-5.166388666E0,-2.514060656E0,-1.269716739E0,5.884237710E0
1.542046208E0,-6.477555440E0,-3.345648158E0,-1.215694606E0,7.391210960E0
1.552032208E0,-7.861530574E0,-4.179206756E0,-1.263626572E0,8.992562715E0
1.562017208E0,-9.346498232E0,-4.855262414E0,-1.411745608E0,1.062655297E1
1.572003208E0,-1.086761162E1,-5.335333437E0,-1.598366512E0,1.221169688E1
1.581988208E0,-1.209627068E1,-5.604227005E0,-1.800466458E0,1.345246461E1
1.591974208E0,-1.250291763E1,-5.991495114E0,-1.768492128E0,1.397671375E1
1.601959208E0,-1.215961941E1,-6.462439803E0,-1.163233387E0,1.381928306E1
1.611945208E0,-1.145856632E1,-6.912825682E0,1.344918072E-2,1.338230480E1
1.621930208E0,-1.063874108E1,-7.325770084E0,1.269805617E0,1.297929603E1
1.631916208E0,-9.891687942E0,-7.773544596E0,2.482704670E0,1.282331113E1
1.641901208E0,-9.488796072E0,-8.398438872E0,3.734006188E0,1.321036822E1
1.651887208E0,-9.321320121E0,-9.058510582E0,4.819521016E0,1.386259015E1
1.661872208E0,-9.202936808E0,-9.694524508E0,5.618368496E0,1.449979020E1
1.671858208E0,-9.193662540E0,-1.050490650E1,6.237879825E0,1.529011563E1
1.681843208E0,-9.140996084E0,-1.145851019E1,6.815649050E0,1.616503440E1
1.691829208E0,-9.034447535E0,-1.216338034E1,7.390929701E0,1.685808131E1
1.701814208E0,-8.305074041E0,-1.271048560E1,8.161935371E0,1.723797807E1
1.711800208E0,-7.069089012E0,-1.353028628E1,9.010620131E0,1.772658855E1
1.721785208E0,-5.897156137E0,-1.439498657E1,9.701090931E0,1.833311905E1
1.731771208E0,-4.386273619E0,-1.527694783E1,1.042640178E1,1.900879758E1
1.741756208E0,-2.901667904E0,-1.625817727E1,1.121926200E1,1.996546631E1
1.751742208E0,-1.514758345E0,-1.713358615E1,1.173797669E1,2.082388926E1
1.761728208E0,-4.578021947E-1,-1.747268022E1,1.142653527E1,2.088228544E1
1.771713208E0,-8.845726311E-2,-1.783013221E1,1.085945827E1,2.087700345E1
1.781699208E0,-4.264286667E-1,-1.789241207E1,1.069669868E1,2.085041040E1
1.791684208E0,-6.274325520E-1,-1.783305347E1,1.025740672E1,2.058217337E1
1.801670208E0,4.994235528E-1,-1.823444261E1,9.583440274E0,2.060550045E1
1.811655208E0,2.715663881E0,-1.815081690E1,8.187928584E0,2.009649619E1
1.821641208E0,6.275567468E0,-1.713052922E1,6.276673762E0,1.929337742E1
1.831626208E0,9.808197303E0,-1.528546488E1,3.988713241E0,1.859451544E1
1.841612208E0,1.185281834E1,-1.325190970E1,2.793407875E0,1.799737595E1
1.851597208E0,1.290008507E1,-1.169795484E1,3.667466043E0,1.779619761E1
1.861583208E0,1.426261379E1,-1.016069962E1,4.875417767E0,1.817777949E1
1.871568208E0,1.566827040E1,-9.051944743E0,5.294515194E0,1.885376069E1
1.881554208E0,1.727016775E1,-8.458139529E0,4.492283054E0,1.974789674E1
1.891539208E0,2.042059609E1,-7.390212833E0,2.426366454E0,2.185184762E1
1.901525208E0,2.377559278E1,-6.194618030E0,5.227176905E-2,2.456938820E1
1.911510208E0,2.573924684E1,-5.209594912E0,-1.688095252E0,2.631536381E1
1.921496208E0,2.608124814E1,-4.148567638E0,-2.225370609E0,2.650272424E1
1.931481208E0,2.519783443E1,-3.423150370E0,-1.831862059E0,2.549518654E1
1.941467208E0,2.371795794E1,-3.288966126E0,-1.601014716E0,2.399837651E1
1.951452208E0,2.256172484E1,-3.444669293E0,-2.041472899E0,2.291429217E1
1.961438208E0,2.245742455E1,-3.483363827E0,-2.698459033E0,2.288561605E1
1.971423208E0,2.277628491E1,-3.528945504E0,-2.754917409E0,2.321211280E1
1.981409208E0,2.226575282E1,-3.759397722E0,-1.772574069E0,2.265036067E1
1.991394208E0,2.115406380E1,-3.892285053E0,-3.250853828E-1,2.151162427E1
2.001380208E0,1.974711847E1,-4.158460250E0,1.016322021E0,2.020580090E1
2.011365208E0,1.818121657E1,-4.684706735E0,2.143724329E0,1.889705446E1
2.021351208E0,1.637333351E1,-5.311349913E0,3.073514648E0,1.748550772E1
2.031337208E0,1.464858031E1,-6.049181405E0,4.020870588E0,1.635056271E1
2.041322208E0,1.321471322E1,-6.892109581E0,5.024979603E0,1.572832604E1
2.051308208E0,1.203903579E1,-7.620546936E0,5.975821652E0,1.545061691E1
2.061293208E0,1.101475330E1,-8.397989806E0,7.151080424E0,1.558810361E1
2.071279208E0,9.900889120E0,-9.258854316E0,8.444496220E0,1.597070772E1
2.081264208E0,8.916538432E0,-1.014094305E1,9.487929515E0,1.650345994E1
2.091250208E0,8.066757903E0,-1.094761089E1,1.026713532E1,1.703927331E1
2.101235208E0,7.274550814E0,-1.161858122E1,1.083921404E1,1.747567109E1
2.111221208E0,6.384634997E0,-1.220893015E1,1.135050510E1,1.785092450E1
2.121206708E0,5.652086465E0,-1.276080440E1,1.186679085E1,1.831952334E1
2.131192708E0,5.115227283E0,-1.334013015E1,1.223695001E1,1.881136805E1
2.141177708E0,4.352089627E0,-1.430771804E1,1.254702084E1,1.952125025E1
2.151163708E0,3.246019204E0,-1.517057177E1,1.251431268E1,1.993215770E1
2.161148708E0,2.387896746E0,-1.553836047E1,1.197774644E1,1.976383330E1
2.171134708E0,1.723029442E0,-1.604200454E1,1.131229939E1,1.970489426E1
2.181119708E0,8.883822383E-1,-1.627521021E1,1.059328833E1,1.943937880E1
2.191105708E0,-1.727496276E-1,-1.599922631E1,1.018521583E1,1.896691083E1
2.201090708E0,-1.013375975E0,-1.593849830E1,1.003341042E1,1.886085850E1
2.211076708E0,-1.746154303E0,-1.605407670E1,9.337266648E0,1.865387311E1
2.221061708E0,-3.167060158E0,-1.617744009E1,8.114172975E0,1.837334050E1
2.231047708E0,-5.399221285E0,-1.617536082E1,6.717138669E0,1.832795242E1
2.241032708E0,-7.258368645E0,-1.556943608E1,5.113613452E0,1.792317767E1
2.251018708E0,-8.541495681E0,-1.432730621E1,3.508218294E0,1.704512973E1
2.261003708E0,-9.507371507E0,-1.306570161E1,2.072830932E0,1.629108037E1
2.270989708E0,-1.015764855E1,-1.217876319E1,6.478159457E-1,1.587198042E1
2.280974708E0,-1.048844542E1,-1.129156516E1,-7.573073977E-1,1.542985566E1
2.290960708E0,-1.083937542E1,-1.054367120E1,-1.814983632E0,1.523007641E1
2.300946708E0,-1.171944920E1,-1.012512516E1,-2.465511224E0,1.568255065E1
2.310931708E0,-1.322112294E1,-9.724056455E0,-2.895150012E0,1.666545107E1
2.320917708E0,-1.439632207E1,-8.775275549E0,-3.228148359E0,1.716626028E1
2.330902708E0,-1.451866921E1,-7.601154646E0,-3.328300638E0,1.672264610E1
2.340888708E0,-1.370180032E1,-6.727711020E0,-3.095936966E0,1.557518068E1
2.350873708E0,-1.229359783E1,-5.966945579E0,-2.810001104E0,1.395109649E1
2.360859708E0,-1.053079095E1,-5.197798154E0,-2.578254898E0,1.202339644E1
2.370844708E0,-8.694861131E0,-4.428468297E0,-2.235897498E0,1.001055339E1
2.380830708E0,-7.057199868E0,-3.588342690E0,-1.819208830E0,8.123410245E0
2.390815708E0,-5.554452581E0,-2.828861883E0,-1.202350968E0,6.348232107E0
2.400801708E0,-4.120483754E0,-2.205458062E0,-3.575861809E-1,4.687248607E0
2.410786708E0,-3.127186241E0,-1.486365727E0,4.802671972E-1,3.495602014E0
2.420772708E0,-2.464669810E0,-9.605624610E-1,1.108873870E0,2.868253610E0
2.430757708E0,-2.005459898E0,-7.439079183E-1,1.548974496E0,2.640944979E0
2.440743708E0,-1.900635694E0,-5.701327622E-1,1.789046553E0,2.671732579E0
2.450728708E0,-2.014082202E0,-3.529741895E-1,1.779029103E0,2.710362051E0
2.460714708E0,-2.276575407E0,-3.215126610E-1,1.455192759E0,2.720983635E0
2.470699708E0,-2.620013958E0,-3.408669448E-1,8.432974282E-1,2.773411972E0
2.480685708E0,-2.895561072E0,-3.906782055E-1,2.982293406E-1,2.936978740E0
2.490670708E0,-3.061055401E0,-4.864596909E-1,-2.206943840E-2,3.099546783E0
2.500656708E0,-3.048664566E0,-5.432057494E-1,-1.318275234E-1,3.099484896E0
2.510641708E0,-2.960047674E0,-6.555711079E-1,-1.261267805E-1,3.034396756E0
2.520627708E0,-3.045824574E0,-9.342926753E-1,-1.141668856E-1,3.187943571E0
2.530612708E0,-3.259699935E0,-1.344092445E0,-1.770966670E-1,3.530381197E0
2.540598708E0,-3.670781999E0,-2.037729512E0,-3.117320234E-1,4.210006996E0
2.550583708E0,-4.417498920E0,-2.860361418E0,-5.429803392E-1,5.290632457E0
2.560569708E0,-5.563525121E0,-3.608059502E0,-8.589135870E-1,6.686451801E0
2.570555708E0,-7.137109671E0,-4.332930055E0,-1.259443181E0,8.443862531E0
2.580540708E0,-8.947836823E0,-4.990801458E0,-1.893833043E0,1.041914040E1
2.590526708E0,-1.069247582E1,-5.557529386E0,-2.433586304E0,1.229379983E1
2.600511708E0,-1.198965371E1,-6.108191505E0,-2.670935312E0,1.371844361E1
2.610497708E0,-1.255476957E1,-6.666393608E0,-2.471538242E0,1.442815109E1
2.620482708E0,-1.236278560E1,-7.135751948E0,-1.826319629E0,1.439072156E1
2.630468708E0,-1.159934155E1,-7.472889538E0,-6.548685649E-1,1.381367638E1
2.640453708E0,-1.084098574E1,-7.920762284E0,6.853346050E-1,1.344377665E1
2.650439708E0,-1.019937077E1,-8.472868080E0,1.891191856E0,1.339377707E1
2.660424708E0,-9.564073711E0,-8.899566888E0,2.986137366E0,1.340114969E1
2.670410708E0,-9.128377208E0,-9.387024114E0,3.880860178E0,1.365666752E1
2.680395708E0,-9.098906071E0,-1.002250887E1,4.679693625E0,1.432272000E1
2.690381708E0,-9.350293660E0,-1.068172396E1,5.508256069E0,1.522721587E1
2.700366708E0,-9.369671917E0,-1.142365610E1,6.376748857E0,1.609203519E1
2.710352708E0,-9.208529670E0,-1.205651195E1,7.021446483E0,1.671697370E1
2.720337708E0,-8.972129665E0,-1.281256629E1,7.599941933E0,1.739022953E1
2.730323708E0,-8.535383002E0,-1.369587592E1,8.119768760E0,1.806544837E1
2.740308708E0,-7.729040853E0,-1.449843550E1,8.831525763E0,1.865311105E1
2.750294708E0,-6.475964413E0,-1.527388506E1,9.809312367E0,1.927309754E1
2.760279708E0,-4.457717531E0,-1.588554475E1,1.068576088E1,1.965724454E1
2.770265708E0,-1.787508151E0,-1.607855432E1,1.115142845E1,1.964865010E1
2.780250708E0,1.064299668E0,-1.619161257E1,1.109930871E1,1.965949403E1
2.790236708E0,3.931681253E0,-1.592785286E1,1.051074202E1,1.948410408E1
2.800221708E0,6.439895863E0,-1.494299229E1,9.416487064E0,1.879988048E1
2.810207708E0,7.483712735E0,-1.406143916E1,7.964107693E0,1.780890336E1
2.820193708E0,7.043374711E0,-1.322133110E1,6.872561755E0,1.648165127E1
2.830178708E0,5.824115642E0,-1.246821323E1,6.367779229E0,1.516328713E1
2.840164708E0,5.099697078E0,-1.246962709E1,5.925097057E0,1.471751627E1
2.850149708E0,4.123582778E0,-1.266329623E1,5.725374881E0,1.449630725E1
2.860135708E0,3.318493688E0,-1.232125165E1,6.008035718E0,1.410397589E1
2.870120708E0,3.683810180E0,-1.219044359E1,5.428256804E0,1.384353078E1
2.880106708E0,4.519349231E0,-1.229746986E1,4.284946049E0,1.378452194E1
2.890091708E0,6.046772352E0,-1.215824882E1,3.543816728E0,1.403371324E1
2.900077708E0,9.550937941E0,-1.113489253E1,2.412890376E0,1.486702012E1
2.910062708E0,1.396997000E1,-9.655020134E0,1.348018266E0,1.703515861E1
2.920048708E0,1.813772615E1,-8.086616802E0,1.501547876E0,1.991544946E1
2.930033708E0,2.050210628E1,-6.287447256E0,2.324461472E0,2.157015243E1
2.940019708E0,2.069737053E1,-4.757209578E0,3.963654413E0,2.160376695E1
2.950004708E0,1.979600119E1,-4.380772851E0,5.430634282E0,2.098963131E1
2.959990708E0,1.902977737E1,-4.143780815E0,4.339228968E0,1.995325172E1
2.969975708E0,1.872546021E1,-4.189832024E0,1.882517511E0,1.928059710E1
2.979961708E0,1.864926631E1,-4.253564920E0,8.236738801E-2,1.912837507E1
2.989946708E0,1.870983177E1,-4.121873929E0,-8.207531959E-1,1.917606021E1
2.999932708E0,1.905553085E1,-3.765743413E0,-1.041808353E0,1.945197790E1
3.009917708E0,1.933303269E1,-3.323557669E0,-6.241353071E-1,1.962655684E1
3.019903708E0,1.926707610E1,-2.983261413E0,2.052887249E-1,1.949774893E1
3.029888708E0,1.873281834E1,-2.925276914E0,9.096992862E-1,1.898165643E1
3.039874708E0,1.780992891E1,-2.985056216E0,1.133782716E0,1.809391034E1
3.049859708E0,1.648509017E1,-3.636145725E0,1.243935781E0,1.692711227E1
3.059845708E0,1.522771895E1,-4.516224478E0,1.285521471E0,1.593525254E1
3.069831708E0,1.456228359E1,-4.926032435E0,1.016563584E0,1.540646944E1
3.079816708E0,1.413303364E1,-5.273909606E0,8.244805035E-1,1.510749915E1
3.089802708E0,1.370897953E1,-5.497687812E0,1.115968882E0,1.481236232E1
3.099787708E0,1.317148359E1,-5.692056277E0,1.941500130E0,1.447953408E1
3.109773708E0,1.238617563E1,-6.042569958E0,3.191343645E0,1.414618933E1
3.119758333E0,1.171945271E1,-6.562040690E0,4.590363665E0,1.419427308E1
3.129744333E0,1.152788038E1,-7.172081283E0,5.646978337E0,1.470439188E1
3.139729333E0,1.150149892E1,-7.610839974E0,6.359796610E0,1.518737553E1
3.149715333E0,1.102418369E1,-8.253615035E0,7.644272599E0,1.575086317E1
3.159700333E0,9.888309420E0,-9.047169907E0,9.386367472E0,1.636257440E1
3.169686333E0,8.358221723E0,-9.952822920E0,1.084916249E1,1.692994038E1
3.179671333E0,6.737799221E0,-1.116402686E1,1.165491465E1,1.748915292E1
3.189657333E0,5.278406115E0,-1.232057104E1,1.180696682E1,1.786232088E1
3.199642333E0,3.825759526E0,-1.333554242E1,1.140766631E1,1.796129111E1
3.209628333E0,2.435824910E0,-1.389365331E1,1.080777473E1,1.777005458E1
3.219613333E0,1.717160007E0,-1.423933018E1,1.069190279E1,1.788921317E1
3.229599333E0,1.195796531E0,-1.469961831E1,1.081890198E1,1.829090889E1
3.239584333E0,7.732480770E-1,-1.501918853E1,1.085462847E1,1.854715331E1
3.249570333E0,5.499256620E-1,-1.519140774E1,1.090641959E1,1.870912280E1
3.259555333E0,1.293959588E-1,-1.534268457E1,1.092326893E1,1.883434409E1
3.269541333E0,-1.904604784E-1,-1.557555812E1,1.086104520E1,1.898938094E1
3.279526333E0,-3.496598415E-1,-1.632196572E1,1.078292757E1,1.956528441E1
3.289512333E0,-1.284225728E0,-1.672753211E1,1.019161385E1,1.962978754E1
3.299497333E0,-1.868912795E0,-1.642210397E1,8.816878488E0,1.873274352E1
3.309483333E0,-1.972079313E0,-1.614915360E1,7.323845766E0,1.784160799E1
3.319469333E0,-3.502896451E0,-1.571564805E1,6.390667570E0,1.732317838E1
3.329454333E0,-5.945514949E0,-1.511698555E1,5.760482733E0,1.723529987E1
3.339440333E0,-7.888865138E0,-1.416291525E1,4.760438995E0,1.689627595E1
3.349425333E0,-9.435121556E0,-1.282784389E1,3.571936573E0,1.631973739E1
3.359411333E0,-1.070298327E1,-1.173819771E1,2.886104954E0,1.614523887E1
3.369396333E0,-1.202116670E1,-1.065596347E1,2.570927167E0,1.626861004E1
3.379382333E0,-1.289642238E1,-9.793231940E0,2.359552660E0,1.636436955E1
3.389367333E0,-1.387969718E1,-9.525148796E0,1.896075158E0,1.694017575E1
3.399353333E0,-1.472675524E1,-8.927564526E0,2.950086942E-1,1.722398788E1
3.409338333E0,-1.491299374E1,-7.833147604E0,-1.806566273E0,1.694164294E1
3.419324333E0,-1.459054085E1,-7.000236293E0,-3.142233758E0,1.648516980E1
3.429309333E0,-1.399104921E1,-6.420656185E0,-3.293418781E0,1.574232801E1
3.439295333E0,-1.308172298E1,-5.549205290E0,-2.599483799E0,1.444584617E1
3.449280333E0,-1.180644174E1,-4.713118356E0,-1.611849314E0,1.281419562E1
3.459266333E0,-1.027314626E1,-3.958853264E0,-8.238653764E-1,1.104032642E1
3.469251333E0,-8.656111633E0,-3.208898740E0,-2.765227219E-1,9.235895438E0
3.479237333E0,-7.343009430E0,-2.472874623E0,3.906992555E-2,7.748317421E0
3.489222333E0,-6.234414180E0,-1.809301600E0,1.636761376E-1,6.493710983E0
3.499208333E0,-5.132912187E0,-1.334731053E0,2.005498490E-1,5.307401883E0
3.509193333E0,-4.272991417E0,-9.122539347E-1,2.140972629E-1,4.374528607E0
3.519179333E0,-3.652149262E0,-4.702722591E-1,3.119173801E-1,3.695489505E0
3.529164333E0,-2.977279419E0,-6.245761871E-2,5.145541003E-1,3.022062146E0
3.539150333E0,-2.235015153E0,2.606776446E-1,7.119490841E-1,2.360109545E0
3.549135333E0,-1.654231687E0,5.208664620E-1,7.580763066E-1,1.892739822E0
3.559121333E0,-1.230530162E0,7.023383081E-1,6.400792024E-1,1.554729868E0
3.569107333E0,-9.612012693E-1,8.878669524E-1,4.910406920E-1,1.397618176E0
3.579092333E0,-6.700263020E-1,1.012893287E0,3.934053469E-1,1.276579736E0
3.589078333E0,-3.481037512E-1,1.008695571E0,3.775491598E-1,1.131895024E0
3.599063333E0,-1.740388656E-1,9.659951091E-1,3.158513868E-1,1.031115016E0
3.609049333E0,2.577160299E-2,9.030586034E-1,2.190179873E-1,9.295955548E-1
3.619034333E0,1.801839969E-1,7.578313082E-1,1.269354504E-1,7.892320147E-1
3.629020333E0,1.114473456E-1,5.518444258E-1,1.102743942E-1,5.736839052E-1
3.639005333E0,-2.354436931E-1,2.409017766E-1,6.227196962E-2,3.425568519E-1
3.648991333E0,-7.845767650E-1,-1.687085438E-1,-7.565653861E-2,8.060689702E-1
3.658976333E0,-1.453432162E0,-5.806062949E-1,-1.770919892E-1,1.575096915E0
3.668962333E0,-2.203226472E0,-9.915182054E-1,-2.133988130E-1,2.425459605E0
3.678947333E0,-2.961571459E0,-1.504631259E0,-2.595459160E-1,3.331994120E0
3.688933333E0,-3.761828117E0,-2.009457055E0,-3.354699647E-1,4.278061306E0
3.698918333E0,-4.536401466E0,-2.510962801E0,-4.136162478E-1,5.201437383E0
3.708904333E0,-5.435404440E0,-3.118934650E0,-4.692229763E-1,6.284229864E0
3.718889333E0,-6.618068710E0,-3.829685347E0,-4.842228386E-1,7.661579150E0
3.728875333E0,-7.968400134E0,-4.497097067E0,-5.989264986E-1,9.169405416E0
3.738860333E0,-9.335738186E0,-5.060472202E0,-7.923725653E-1,1.064857928E1
3.748846333E0,-1.050681971E1,-5.681999651E0,-9.176050141E-1,1.197999914E1
3.758831333E0,-1.135062906E1,-6.321125464E0,-8.699335420E-1,1.302114402E1
3.768817333E0,-1.171926560E1,-7.028230423E0,-5.414322889E-1,1.367590428E1
3.778802333E0,-1.166481399E1,-7.745047022E0,1.618070751E-2,1.400192489E1
3.788788333E0,-1.122230957E1,-8.300823700E0,6.748487931E-1,1.397495356E1
3.798773333E0,-1.060096456E1,-8.895336428E0,1.341662927E0,1.390350744E1
3.808759333E0,-9.839879272E0,-9.657963037E0,1.917410917E0,1.392034262E1
3.818744333E0,-9.120577022E0,-1.041368175E1,2.434046626E0,1.405540023E1
3.828730333E0,-8.668294891E0,-1.114793533E1,3.003035234E0,1.443724416E1
3.838715333E0,-8.320704818E0,-1.195938502E1,3.502036326E0,1.498416755E1
3.848701333E0,-8.009135347E0,-1.279672267E1,3.879321191E0,1.558690133E1
3.858687333E0,-7.700695306E0,-1.351847958E1,4.314279191E0,1.614506127E1
3.868672333E0,-7.381026272E0,-1.433588993E1,4.925852340E0,1.686005071E1
3.878658333E0,-7.132400908E0,-1.516861763E1,5.632321122E0,1.768279234E1
3.888643333E0,-6.735415311E0,-1.587693297E1,6.439633323E0,1.840955451E1
3.898629333E0,-6.087127495E0,-1.660600358E1,7.372326200E0,1.916151532E1
3.908614333E0,-5.232395545E0,-1.725193847E1,8.278852787E0,1.983801269E1
3.918600333E0,-4.452273481E0,-1.757124089E1,8.693583514E0,2.010347332E1
3.928585333E0,-3.578846228E0,-1.765950344E1,9.146861426E0,2.020720851E1
3.938571333E0,-2.505249487E0,-1.781740633E1,1.005866454E1,2.061341737E1
3.948556333E0,-1.245549905E0,-1.814193615E1,1.063699510E1,2.106719978E1
3.958542333E0,1.909957910E-1,-1.824762574E1,1.068775946E1,2.114806201E1
3.968527333E0,3.607702237E0,-1.795477262E1,9.628242810E0,2.069039475E1
3.978513333E0,1.033486245E1,-1.659853200E1,6.583315199E0,2.063154588E1
3.988498333E0,1.696356549E1,-1.377118806E1,2.613910049E0,2.200546978E1
3.998484333E0,2.105126741E1,-1.036313023E1,6.665901858E-1,2.347327566E1
4.008469333E0,2.190679459E1,-7.540276945E0,2.949589929E0,2.335516016E1
4.018455333E0,2.023156496E1,-6.551857764E0,7.165179230E0,2.244065183E1
4.028440333E0,1.863976692E1,-5.782896280E0,8.895334674E0,2.144783857E1
4.038426333E0,1.942304707E1,-5.250099159E0,7.079109970E0,2.132913726E1
4.048411333E0,2.108939360E1,-5.440179861E0,3.340970385E0,2.203452206E1
4.058397333E0,2.232733569E1,-5.322756661E0,-6.876501024E-2,2.295313456E1
4.068382333E0,2.310973525E1,-4.853557074E0,-2.233639303E0,2.371931753E1
4.078368333E0,2.297610532E1,-4.293884396E0,-2.789390253E0,2.353974420E1
4.088354333E0,2.188888807E1,-3.873030757E0,-2.107227763E0,2.232855117E1
4.098339333E0,2.093735664E1,-3.361095624E0,-9.420913991E-1,2.122633748E1
4.108325333E0,2.055628891E1,-3.162339409E0,7.628248304E-2,2.079825049E1
4.118310333E0,2.076160805E1,-2.943119400E0,5.173280194E-1,2.097555598E1
4.128295917E0,2.084547349E1,-2.741226738E0,7.316793439E-1,2.103766726E1
4.138280917E0,2.006945442E1,-3.051283827E0,9.845439389E-1,2.032394303E1
4.148266917E0,1.851401085E1,-3.665643466E0,1.203825051E0,1.891176181E1
4.158251917E0,1.656723654E1,-4.365498462E0,1.382332066E0,1.718841893E1
4.168237917E0,1.492049455E1,-4.997481317E0,1.488993466E0,1.580547622E1
4.178222917E0,1.393523169E1,-5.601094067E0,1.638314397E0,1.510784601E1
4.188208917E0,1.333570732E1,-6.273827922E0,2.061925290E0,1.488131521E1
4.198193917E0,1.297860850E1,-7.081836526E0,2.638609858E0,1.501862008E1
4.208179917E0,1.316185556E1,-7.751881247E0,3.119664967E0,1.559033079E1
4.218164917E0,1.359969507E1,-8.343306645E0,3.965575808E0,1.644044596E1
4.228150917E0,1.333533894E1,-9.240606326E0,5.419835059E0,1.710539921E1
4.238135917E0,1.265612286E1,-1.021212121E1,7.203462705E0,1.778636389E1
4.248121917E0,1.202458147E1,-1.151034225E1,8.985235029E0,1.891594530E1
4.258106917E0,1.114870131E1,-1.276502959E1,1.004761798E1,1.970264319E1
4.268092917E0,1.013933156E1,-1.377633361E1,1.052471569E1,2.008390033E1
4.278077917E0,8.980397043E0,-1.489591753E1,1.094273665E1,2.054943735E1
4.288063917E0,8.052547415E0,-1.594831110E1,1.125799747E1,2.111716491E1
4.298048917E0,7.134695941E0,-1.707553499E1,1.163511013E1,2.185986206E1
4.308034917E0,5.442459106E0,-1.841299436E1,1.204736456E1,2.266710646E1
4.318019917E0,2.673771504E0,-1.953077968E1,1.252677193E1,2.335637865E1
4.328005917E0,-2.242977306E-1,-2.005344708E1,1.271306656E1,2.374474912E1
4.337991917E0,-2.391427440E0,-2.019732835E1,1.253750157E1,2.389225697E1
4.347976917E0,-4.400019546E0,-2.000712778E1,1.203131162E1,2.375705775E1
4.357962917E0,-6.476153278E0,-1.986399495E1,1.141886606E1,2.380985844E1
4.367947917E0,-8.649574445E0,-1.926622006E1,1.038746868E1,2.353512012E1
4.377933917E0,-1.002915364E1,-1.742642991E1,8.276130323E0,2.174301532E1
4.387918917E0,-1.089938305E1,-1.556346374E1,6.249571917E0,2.000187750E1
4.397904917E0,-1.156799813E1,-1.417220297E1,4.376248275E0,1.881014266E1
4.407889917E0,-1.164955509E1,-1.299504853E1,2.446418896E0,1.762295054E1
4.417875917E0,-1.148445545E1,-1.187728543E1,7.810666814E-1,1.654003299E1
4.427860917E0,-1.167971971E1,-1.091055124E1,-8.752930999E-2,1.598323003E1
4.437846917E0,-1.236730783E1,-1.011298751E1,-1.353876007E-1,1.597626831E1
4.447831917E0,-1.293495553E1,-9.384643128E0,-1.431284371E-1,1.598139815E1
4.457817917E0,-1.336442533E1,-8.598486738E0,-4.855197510E-1,1.589898009E1
4.467802917E0,-1.399027972E1,-8.147167643E0,-7.520592293E-1,1.620709290E1
4.477788917E0,-1.461889750E1,-7.466405561E0,-1.218522027E0,1.646038189E1
4.487773917E0,-1.448957580E1,-6.248487259E0,-1.877207362E0,1.589073024E1
4.497759917E0,-1.337638289E1,-5.227640004E0,-2.320840292E0,1.454792558E1
4.507744917E0,-1.140663837E1,-4.719197121E0,-2.474047282E0,1.258980263E1
4.517730917E0,-9.266894238E0,-4.327091026E0,-2.316681167E0,1.048647020E1
4.527715917E0,-7.638363987E0,-3.801308810E0,-1.710046284E0,8.701655668E0
4.537701917E0,-6.298892596E0,-3.151784307E0,-9.482628429E-1,7.106968037E0
4.547686917E0,-5.160315163E0,-2.460470340E0,-2.283586219E-1,5.721443396E0
4.557672917E0,-4.176452717E0,-1.765114192E0,6.009139672E-1,4.573782134E0
4.567657917E0,-3.070512980E0,-9.891728872E-1,1.425221101E0,3.526722012E0
4.577643917E0,-1.973848681E0,-3.338356680E-1,1.980025387E0,2.815674946E0
4.587629917E0,-9.008208740E-1,1.245573878E-1,2.170175378E0,2.353009554E0
4.597614917E0,-9.643812776E-3,4.171222383E-1,1.922957147E0,1.967701236E0
4.607600917E0,3.390931919E-1,7.059121263E-1,1.274631032E0,1.495988098E0
4.617585917E0,4.144000670E-1,9.011722916E-1,3.983041441E-1,1.068870949E0
4.627571917E0,4.583889627E-1,8.347859287E-1,-3.975290957E-1,1.031996788E0
4.637556917E0,3.789092222E-1,7.798817432E-1,-9.833057910E-1,1.310983604E0
4.647542917E0,3.733897430E-1,9.645028996E-1,-1.289823267E0,1.653278502E0
4.657527917E0,5.538988450E-1,1.140161444E0,-1.247366635E0,1.778396910E0
4.667513917E0,9.774495122E-1,1.097639907E0,-9.928545865E-1,1.773691389E0
4.677498917E0,1.529035783E0,1.157675024E0,-6.810430411E-1,2.035185867E0
4.687484917E0,2.049220168E0,1.269372631E0,-3.255557182E-1,2.432405537E0
4.697469917E0,2.266363245E0,1.249735342E0,1.273450479E-1,2.591227035E0
4.707455917E0,2.168260415E0,1.222414227E0,4.798038054E-1,2.534928295E0
4.717440917E0,1.957215984E0,1.097125352E0,6.320255399E-1,2.331058714E0
4.727426917E0,1.624278448E0,8.549366033E-1,5.249875796E-1,1.909138295E0
4.737411917E0,1.062074510E0,5.882503599E-1,1.990476993E-1,1.230309204E0
4.747397917E0,4.044896212E-1,2.502736938E-1,-1.098396537E-1,4.881736628E-1
4.757382917E0,-1.553789386E-1,-8.118040323E-2,-2.415762529E-1,2.984827606E-1
4.767368917E0,-7.422823924E-1,-4.519798297E-1,-2.043730509E-1,8.927694330E-1
4.777353917E0,-1.407264886E0,-8.455605930E-1,-6.761837125E-2,1.643149239E0
4.787339917E0,-2.143349815E0,-1.332043673E0,1.390315855E-1,2.527373846E0
4.797324917E0,-3.078421924E0,-1.903562810E0,3.370288324E-1,3.635082027E0
4.807310917E0,-4.522428374E0,-2.600035191E0,4.645510510E-1,5.237208137E0
4.817295917E0,-6.797830245E0,-3.149769357E0,4.407446972E-1,7.505051561E0
4.827281917E0,-9.441343578E0,-3.581414325E0,1.485470518E-1,1.009888921E1
4.837266917E0,-1.150412315E1,-4.159101689E0,-4.803528589E-1,1.224229207E1
4.847252917E0,-1.281339542E1,-4.639573832E0,-1.271918801E0,1.368672806E1
4.857238917E0,-1.306267275E1,-5.289635693E0,-1.852431248E0,1.421425927E1
4.867223917E0,-1.245805545E1,-6.186758203E0,-1.896623627E0,1.403838680E1
4.877209917E0,-1.180791173E1,-7.028826254E0,-1.246543347E0,1.379800885E1
4.887194917E0,-1.157356936E1,-7.802100059E0,-1.004627663E-1,1.395816484E1
4.897180917E0,-1.140578584E1,-8.488532186E0,8.590904653E-1,1.424377639E1
4.907165917E0,-1.115145418E1,-9.113114805E0,1.372093299E0,1.446673536E1
4.917151917E0,-1.089637992E1,-9.934569082E0,1.623891655E0,1.483454692E1
4.927136917E0,-1.063934919E1,-1.097712062E1,1.797966188E0,1.539238807E1
4.937122917E0,-1.057684947E1,-1.196052406E1,2.206915481E0,1.611813750E1
4.947107917E0,-1.055577493E1,-1.279253957E1,2.987004508E0,1.685217046E1
4.957093917E0,-1.030568718E1,-1.371709313E1,3.957865670E0,1.760768391E1
4.967078917E0,-9.725934581E0,-1.466635935E1,4.987671443E0,1.829133037E1
4.977064917E0,-8.994849606E0,-1.549125296E1,6.135888011E0,1.893502996E1
4.987049917E0,-8.035116865E0,-1.635657890E1,7.468036934E0,1.969447516E1
4.997035917E0,-6.916823423E0,-1.699918673E1,8.994281842E0,2.043800141E1
5.007020917E0,-5.823941395E0,-1.752684649E1,1.036875993E1,2.118064738E1
5.017006917E0,-4.285035512E0,-1.819578667E1,1.138547612E1,2.188783334E1
5.026991917E0,-2.613843976E0,-1.849441917E1,1.192988231E1,2.216298294E1
5.036977917E0,-1.293960757E0,-1.838951428E1,1.207397524E1,2.203700179E1
5.046962917E0,-3.616970658E-1,-1.834761547E1,1.192080626E1,2.188313140E1
5.056948917E0,4.648904818E-1,-1.854579164E1,1.118159541E1,2.166080762E1
5.066933917E0,9.896383256E-1,-1.881212296E1,1.036924642E1,2.150340962E1
5.076919917E0,3.034449985E0,-1.872616187E1,9.214855188E0,2.109005883E1
5.086905917E0,8.654182636E0,-1.783326047E1,6.315955356E0,2.080411853E1
5.096890917E0,1.709565175E1,-1.533153393E1,1.236738589E0,2.299666854E1
5.106876917E0,2.441470514E1,-1.121096714E1,-1.829050864E0,2.692784875E1
5.116861917E0,2.490470415E1,-7.461407361E0,1.198651727E0,2.602601880E1
5.126848667E0,1.943892576E1,-6.350556255E0,8.407898498E0,2.211095106E1
5.136833667E0,1.397988220E1,-5.955837039E0,1.285795588E1,1.990568086E1
5.146819667E0,1.240068140E1,-5.743419389E0,1.126606896E1,1.771124150E1
5.156804667E0,1.401878957E1,-6.864932892E0,5.762476634E0,1.663910760E1
5.166790667E0,1.652590374E1,-7.653045176E0,1.197597474E-2,1.821193944E1
5.176775667E0,1.908201172E1,-7.230761016E0,-3.828236699E0,2.076204403E1
5.186761667E0,2.090578635E1,-6.587701195E0,-4.325360835E0,2.234185436E1
5.196746667E0,2.154298083E1,-5.863772628E0,-1.908076276E0,2.240813708E1
5.206732667E0,2.183403183E1,-4.857199889E0,7.319310665E-1,2.237974665E1
5.216717667E0,2.258060433E1,-4.010892314E0,1.909104801E0,2.301337937E1
5.226703667E0,2.347624340E1,-3.455520848E0,1.853401886E0,2.380146481E1
5.236688667E0,2.372714976E1,-3.437544753E0,1.409392688E0,2.401625986E1
5.246674667E0,2.304757700E1,-3.834219863E0,8.953253683E-1,2.338148103E1
5.256659667E0,2.124491550E1,-4.347251641E0,5.082984567E-1,2.169109031E1
5.266645667E0,1.868501501E1,-4.987391362E0,4.485168162E-1,1.934437970E1
5.276630667E0,1.596237482E1,-5.531126869E0,3.051617995E-1,1.689626876E1
5.286616667E0,1.373408747E1,-5.956980754E0,4.139542168E-1,1.497605210E1
5.296601667E0,1.226647611E1,-6.324089418E0,1.044165073E0,1.384018872E1
5.306587667E0,1.148345909E1,-6.543530159E0,2.000663427E0,1.336750813E1
5.316572667E0,1.100034810E1,-6.907355611E0,3.146015152E0,1.336475331E1
5.326558667E0,1.062647479E1,-7.351794872E0,4.369519007E0,1.364051138E1
5.336543667E0,1.053783334E1,-7.778883104E0,5.585452180E0,1.423917940E1
5.346529667E0,1.056889024E1,-8.156071783E0,6.774920270E0,1.497072117E1
5.356515667E0,1.014478818E1,-8.810173486E0,8.063272378E0,1.567010675E1
5.366500667E0,9.407774713E0,-9.969266460E0,9.264852975E0,1.654478768E1
5.376486667E0,8.463114924E0,-1.139892589E1,9.938632897E0,1.733021205E1
5.386471667E0,7.670308496E0,-1.251831101E1,1.008584123E1,1.781196048E1
5.396457667E0,6.908501666E0,-1.323303372E1,1.026860648E1,1.811863283E1
5.406442667E0,5.776689461E0,-1.426543566E1,1.084854619E1,1.882986325E1
5.416428667E0,4.476033057E0,-1.533034811E1,1.136654167E1,1.960236503E1
5.426413667E0,3.389322181E0,-1.594116580E1,1.183971356E1,2.014415769E1
5.436399667E0,2.792645983E0,-1.644662719E1,1.231729660E1,2.073659116E1
5.446384667E0,2.700860485E0,-1.676928356E1,1.245316016E1,2.106145096E1
5.456370667E0,2.507751510E0,-1.708852867E1,1.246078610E1,2.129736651E1
5.466355667E0,2.124525289E0,-1.766948814E1,1.228448202E1,2.162482179E1
5.476341667E0,1.897190514E0,-1.863635098E1,1.170125267E1,2.208692427E1
5.486326667E0,1.518425718E0,-1.999528366E1,1.074743029E1,2.275135695E1
5.496312667E0,4.456238332E-1,-2.072669783E1,9.189724440E0,2.267698434E1
5.506297667E0,-7.538116398E-1,-2.063543215E1,7.488824955E0,2.196524052E1
5.516283667E0,-2.003587620E0,-2.058765806E1,6.322116567E0,2.162949804E1
5.526268667E0,-4.049306182E0,-2.010468038E1,5.385669193E0,2.120378472E1
5.536254667E0,-6.515035508E0,-1.911236579E1,4.658144881E0,2.072260909E1
5.546239667E0,-8.781515697E0,-1.787432780E1,4.196245835E0,2.035227484E1
5.556225667E0,-1.083505199E1,-1.654279517E1,3.784002805E0,2.013407810E1
5.566211667E0,-1.309883193E1,-1.501706950E1,3.215195607E0,2.018487694E1
5.576196667E0,-1.557766311E1,-1.399416812E1,2.318422176E0,2.106835093E1
5.586182667E0,-1.784877079E1,-1.311075324E1,4.688794523E-1,2.215153081E1
5.596167667E0,-1.852950714E1,-1.183411661E1,-2.364890583E0,2.211292967E1
5.606153667E0,-1.783177060E1,-1.074812845E1,-5.041862268E0,2.142229406E1
5.616138667E0,-1.642772197E1,-9.708758385E0,-7.087215965E0,2.035580184E1
5.626124667E0,-1.460742877E1,-8.707580579E0,-7.936803535E0,1.876677344E1
5.636109667E0,-1.276782573E1,-7.767679839E0,-7.533038676E0,1.673621510E1
5.646095667E0,-1.121671145E1,-6.844594522E0,-6.352683472E0,1.459519363E1
5.656080667E0,-9.626861113E0,-5.798296092E0,-4.999561172E0,1.230009367E1
5.666066667E0,-8.036105044E0,-4.843545179E0,-3.792317254E0,1.012030555E1
5.676051667E0,-6.764054974E0,-3.996419871E0,-2.730689471E0,8.317480175E0
5.686037667E0,-5.697883027E0,-3.220616561E0,-1.628986041E0,6.744763713E0
5.696022667E0,-4.823655875E0,-2.521087840E0,-4.257264161E-1,5.459375685E0
5.706008667E0,-3.884738052E0,-1.862011326E0,6.370646703E-1,4.354782119E0
5.715993667E0,-2.935024515E0,-1.306150448E0,1.422264164E0,3.513293789E0
5.725979667E0,-2.121392643E0,-7.678177679E-1,1.814685717E0,2.895329881E0
5.735964667E0,-1.354149072E0,-2.509964097E-1,1.827492581E0,2.288328656E0
5.745950667E0,-6.099894306E-1,1.472387373E-1,1.653566859E0,1.768629330E0
5.755935667E0,-1.293371943E-1,5.293975496E-1,1.379229534E0,1.482991565E0
5.765921667E0,7.778053969E-2,8.497349203E-1,1.194645799E0,1.468086453E0
5.775906667E0,3.108996722E-1,9.610144508E-1,1.038004447E0,1.448330284E0
5.785892667E0,5.043138716E-1,1.064412519E0,7.884131232E-1,1.417357310E0
5.795877667E0,7.475308532E-1,1.201718007E0,6.243855679E-1,1.546863239E0
5.805863667E0,1.128857899E0,1.212473960E0,6.004964760E-1,1.762103651E0
5.815849667E0,1.553454048E0,1.216149520E0,6.076645777E-1,2.064338968E0
5.825834667E0,1.935913992E0,1.172187229E0,5.804133368E-1,2.336378721E0
5.835820667E0,2.110478815E0,9.470314193E-1,5.155352631E-1,2.369971718E0
5.845805667E0,1.917001173E0,6.889657259E-1,2.956694296E-1,2.058394443E0
5.855791667E0,1.619571732E0,4.494316131E-1,3.587646872E-2,1.681156890E0
5.865776667E0,1.241884578E0,2.325437665E-2,-2.188890561E-1,1.261241646E0
5.875762667E0,5.997041783E-1,-5.458217937E-1,-5.639148331E-1,9.877076849E-1
5.885747667E0,-1.826246247E-1,-1.074018325E0,-9.061055875E-1,1.417001924E0
5.895733667E0,-9.936185253E-1,-1.597951652E0,-1.098699130E0,2.178960081E0
5.905718667E0,-1.881197502E0,-2.255779785E0,-1.218566759E0,3.179992363E0
5.915704667E0,-2.891237348E0,-2.979600179E0,-1.403355145E0,4.382542218E0
5.925689667E0,-4.028038982E0,-3.644409302E0,-1.633286084E0,5.672251813E0
5.935675667E0,-5.678591893E0,-4.362823361E0,-1.982246452E0,7.430338792E0
5.945660667E0,-7.634950383E0,-5.087140768E0,-2.341788234E0,9.468655695E0
5.955646667E0,-9.598444229E0,-5.781375419E0,-2.565508552E0,1.149505404E1
5.965631667E0,-1.134699209E1,-6.459285230E0,-2.698888511E0,1.333268894E1
5.975617667E0,-1.264562126E1,-6.958860810E0,-2.664454551E0,1.467776546E1
5.985602667E0,-1.320431336E1,-7.469364837E0,-2.377006306E0,1.535563289E1
5.995588667E0,-1.279021589E1,-8.059145413E0,-1.724493585E0,1.521556195E1
6.005573667E0,-1.200819290E1,-8.597305015E0,-8.642298755E-1,1.479382450E1
6.015559667E0,-1.126668760E1,-9.221154394E0,-1.049458265E-2,1.455912250E1
6.025544667E0,-1.054648956E1,-9.928981483E0,9.110970631E-1,1.451355274E1
6.035530667E0,-9.778468305E0,-1.055119189E1,1.790634218E0,1.449663628E1
6.045515667E0,-9.075891430E0,-1.118997915E1,2.529779433E0,1.462830211E1
6.055501667E0,-8.504053620E0,-1.191377674E1,3.137605102E0,1.497002237E1
6.065487667E0,-8.042880213E0,-1.253204144E1,3.729479274E0,1.535086318E1
6.075472667E0,-7.704563824E0,-1.309742860E1,4.331430244E0,1.580076668E1
6.085458667E0,-7.486128804E0,-1.373696430E1,4.929385228E0,1.640259588E1
6.095443667E0,-7.254982522E0,-1.443744437E1,5.527295773E0,1.707704804E1
6.105429667E0,-7.002188094E0,-1.508082169E1,6.248658582E0,1.776253234E1
6.115414667E0,-6.610945047E0,-1.567948653E1,7.391275856E0,1.855213872E1
6.125400167E0,-5.989426954E0,-1.620035767E1,8.927661590E0,1.944294127E1
6.135385167E0,-5.086994587E0,-1.665400454E1,1.063343882E1,2.040351446E1
6.145371167E0,-3.825900444E0,-1.690717845E1,1.201750868E1,2.109290668E1
6.155356167E0,-2.843672880E0,-1.713950821E1,1.244818652E1,2.137303359E1
6.165342167E0,-2.213458807E0,-1.743188887E1,1.213718832E1,2.135606448E1
6.175327167E0,-2.099711752E0,-1.792105173E1,1.192332641E1,2.162726514E1
6.185313167E0,-8.294462514E-1,-1.874053900E1,1.118303265E1,2.183932239E1
6.195298167E0,3.407693548E0,-1.892060518E1,8.327597516E0,2.095114689E1
6.205284167E0,1.162380630E1,-1.734284630E1,1.885691965E0,2.096289639E1
6.215269167E0,2.073829637E1,-1.420218749E1,-4.179794986E0,2.548037974E1
6.225255167E0,2.482412250E1,-9.886175187E0,-3.050859611E0,2.689388894E1
6.235240167E0,2.471640977E1,-6.714401003E0,3.761405656E0,2.588691301E1
6.245226167E0,2.296501900E1,-5.044754301E0,9.796009367E0,2.547162035E1
6.255211167E0,2.180579680E1,-3.875339822E0,1.113004051E1,2.478686819E1
6.265197167E0,2.176209471E1,-4.337722726E0,8.016700475E0,2.359389945E1
6.275182167E0,2.130136218E1,-5.507387758E0,2.325634716E0,2.212437406E1
6.285168167E0,2.058610971E1,-5.893423274E0,-2.769458557E0,2.159143932E1
6.295153167E0,1.930445735E1,-5.694698634E0,-5.593320193E0,2.088963611E1
6.305139167E0,1.723194333E1,-5.082902706E0,-5.751223083E0,1.886404882E1
6.315125167E0,1.510923799E1,-4.560695769E0,-3.657486016E0,1.620080932E1
6.325110167E0,1.437147842E1,-3.945299419E0,-8.228473762E-1,1.492587878E1
6.335096167E0,1.562963317E1,-3.181228547E0,8.856186980E-1,1.597466646E1
6.345081167E0,1.762698356E1,-2.594940512E0,1.302407937E0,1.786450481E1
6.355067167E0,1.925202419E1,-2.347900475E0,1.475635794E0,1.945072166E1
6.365052167E0,1.982952211E1,-2.274633255E0,1.778700782E0,2.003865465E1
6.375038167E0,1.874186749E1,-2.647463127E0,2.120063863E0,1.904629436E1
6.385023167E0,1.631228624E1,-3.224488587E0,2.289115346E0,1.678475672E1
6.395009167E0,1.389943972E1,-3.781428569E0,2.016359400E0,1.454507929E1
6.404994167E0,1.178435680E1,-4.289900103E0,1.413562045E0,1.262031956E1
6.414980167E0,1.010683156E1,-4.961178879E0,1.084024519E0,1.131089958E1
6.424965167E0,8.934208717E0,-5.555163603E0,1.074778317E0,1.057521047E1
6.434951167E0,8.417566869E0,-5.979347523E0,1.285175023E0,1.040479234E1
6.444936167E0,8.444498559E0,-6.460643538E0,1.787614862E0,1.078169920E1
6.454922167E0,8.947628077E0,-6.730507743E0,2.351398864E0,1.144066691E1
6.464907167E0,9.490158473E0,-6.799861568E0,3.162916237E0,1.209567130E1
6.474893167E0,9.824650784E0,-7.038930827E0,4.559986795E0,1.291757678E1
6.484878167E0,1.010740576E1,-7.412479615E0,6.079392214E0,1.393066814E1
6.494864167E0,1.025265060E1,-8.095650750E0,7.275716164E0,1.495300809E1
6.504849167E0,9.636692621E0,-8.931344751E0,8.133655897E0,1.545286776E1
6.514835167E0,8.639389765E0,-9.596799408E0,8.946222407E0,1.570899455E1
6.524820167E0,7.628817823E0,-1.042113695E1,9.595421219E0,1.608947063E1
6.534806167E0,7.022522371E0,-1.135975773E1,9.923536556E0,1.663840419E1
6.544792167E0,6.387096090E0,-1.217193832E1,9.982267159E0,1.698813517E1
6.554777167E0,5.612456961E0,-1.292115610E1,1.007780482E1,1.732103051E1
6.564763167E0,4.791990863E0,-1.371778544E1,1.022696378E1,1.776883794E1
6.574748167E0,3.889369631E0,-1.453210611E1,1.029740051E1,1.823035275E1
6.584734167E0,3.012569996E0,-1.556623532E1,1.022790752E1,1.886778609E1
6.594719167E0,1.832804776E0,-1.685802091E1,9.976927482E0,1.967463149E1
6.604705167E0,8.702814513E-1,-1.772206864E1,9.242141805E0,2.000615635E1
6.614690167E0,3.856472611E-1,-1.775288932E1,7.839799397E0,1.941072532E1
6.624676167E0,1.251127271E-1,-1.759902335E1,6.299732841E0,1.869299093E1
6.634661167E0,-5.744701171E-2,-1.771350130E1,4.831531782E0,1.836069519E1
6.644647167E0,-1.009054298E0,-1.773406479E1,3.594260657E0,1.812274687E1
6.654632167E0,-2.397689955E0,-1.759940926E1,2.378397944E0,1.792051618E1
6.664618167E0,-4.000660272E0,-1.722972958E1,1.350389604E0,1.773957204E1
6.674603167E0,-6.533019204E0,-1.669232719E1,1.093543932E0,1.795856245E1
6.684589167E0,-9.958040975E0,-1.619711597E1,1.503474680E0,1.907274448E1
6.694574167E0,-1.330364586E1,-1.485527587E1,1.898800253E0,2.003176620E1
6.704560167E0,-1.539443009E1,-1.282225629E1,1.994853634E0,2.013400544E1
6.714545167E0,-1.683437243E1,-1.107394115E1,1.701212603E0,2.022182959E1
6.724531167E0,-1.747765152E1,-9.836665642E0,5.320852223E-1,2.006268697E1
6.734516167E0,-1.602997097E1,-8.928061540E0,-1.513360860E0,1.841088030E1
6.744502167E0,-1.320815382E1,-8.368379506E0,-3.753769192E0,1.608029496E1
6.754487167E0,-1.022762218E1,-7.734106296E0,-5.798698381E0,1.407286604E1
6.764473167E0,-7.705532708E0,-6.915314257E0,-6.973460723E0,1.248302688E1
6.774458167E0,-6.051242548E0,-6.072748023E0,-6.851310049E0,1.097434528E1
6.784444167E0,-5.298957909E0,-5.216889313E0,-5.717863548E0,9.380237341E0
6.794430167E0,-5.158459842E0,-4.374422482E0,-4.254262785E0,7.990246044E0
6.804415167E0,-5.144421846E0,-3.736072594E0,-2.994438365E0,7.027800202E0
6.814401167E0,-5.044325700E0,-3.225031208E0,-2.052040572E0,6.329053529E0
6.824386167E0,-4.979846115E0,-2.721086004E0,-1.332646521E0,5.829161442E0
6.834372167E0,-5.061885474E0,-2.365831985E0,-5.927486229E-1,5.618825185E0
6.844357167E0,-5.197277752E0,-1.956257917E0,8.461184174E-2,5.553899552E0
6.854343167E0,-4.971688664E0,-1.405258414E0,5.552735254E-1,5.196226330E0
6.864328167E0,-4.272056447E0,-1.014894789E0,7.811318779E-1,4.459892906E0
6.874314167E0,-3.293212667E0,-7.419496858E-1,6.319989350E-1,3.434408487E0
6.884299167E0,-2.251207262E0,-4.028000683E-1,1.441560853E-1,2.291497984E0
6.894285167E0,-1.291227769E0,-1.068806702E-1,-3.156417641E-1,1.333537533E0
6.904270167E0,-5.727526072E-1,8.259250581E-2,-6.338741371E-1,8.582910303E-1
6.914256167E0,-1.165484565E-1,3.792387128E-1,-7.792900050E-1,8.744703859E-1
6.924241167E0,1.334881327E-1,6.652745622E-1,-6.781024763E-1,9.592873882E-1
6.934227167E0,2.550268954E-1,8.305198002E-1,-3.749287301E-1,9.462417284E-1
6.944212167E0,3.508656836E-1,1.045693243E0,4.025106311E-2,1.103721539E0
6.954198167E0,5.581149799E-1,1.197446616E0,4.262778085E-1,1.388194330E0
6.964183167E0,9.151141003E-1,1.191728624E0,7.330888152E-1,1.671846327E0
6.974169167E0,1.216259740E0,1.144284316E0,8.894351757E-1,1.892027823E0
6.984154167E0,1.317026269E0,1.073596741E0,9.624554971E-1,1.952815593E0
6.994140167E0,1.206444311E0,9.131438810E-1,1.036609886E0,1.834093694E0
7.004125167E0,8.478971404E-1,6.824548513E-1,9.309609318E-1,1.432257812E0
7.014111167E0,3.223146066E-1,4.489006859E-1,5.431873307E-1,7.748877387E-1
7.024097167E0,-8.242235184E-2,1.166946369E-1,7.770803422E-2,1.626333943E-1
7.034082167E0,-3.606331649E-1,-2.902376586E-1,-4.315370867E-1,6.328652584E-1
7.044068167E0,-7.070049709E-1,-6.961823595E-1,-8.648663449E-1,1.316252142E0
7.054053167E0,-1.066860749E0,-1.193640078E0,-1.160580213E0,1.977350481E0
7.064039167E0,-1.563857122E0,-1.771535604E0,-1.348229643E0,2.720608510E0
7.074024167E0,-2.355131580E0,-2.412144856E0,-1.434254464E0,3.663628452E0
7.084010167E0,-3.402343930E0,-3.071112612E0,-1.477693429E0,4.815729931E0
7.093995167E0,-4.708714525E0,-3.760164292E0,-1.591511821E0,6.232474457E0
7.103981167E0,-6.224409594E0,-4.403767903E0,-1.771515431E0,7.827816647E0
7.113966167E0,-7.768502542E0,-4.979105272E0,-1.989506647E0,9.439240317E0
7.123951917E0,-9.289348716E0,-5.605209337E0,-2.300337615E0,1.109062327E1
7.133936917E0,-1.065467123E1,-6.205725986E0,-2.731705717E0,1.262914368E1
7.143922917E0,-1.161652534E1,-6.931271893E0,-3.022430156E0,1.386078191E1
7.153907917E0,-1.211665524E1,-7.779929756E0,-2.955065554E0,1.469942358E1
7.163893917E0,-1.210605541E1,-8.661629065E0,-2.391191944E0,1.507641186E1
7.173878917E0,-1.182008563E1,-9.496927210E0,-1.642298689E0,1.525133423E1
7.183864917E0,-1.138627836E1,-1.023891432E1,-1.009593118E0,1.534607375E1
7.193849917E0,-1.070212373E1,-1.094556904E1,-4.503442173E-1,1.531482105E1
7.203835917E0,-9.865664324E0,-1.165143088E1,2.284986627E-1,1.526890257E1
7.213820917E0,-9.080411913E0,-1.248182438E1,1.109830767E0,1.547519127E1
7.223806917E0,-8.356462880E0,-1.328052597E1,1.939113150E0,1.581021827E1
7.233791917E0,-7.663849077E0,-1.387218467E1,2.657226223E0,1.606962792E1
7.243777917E0,-7.140364231E0,-1.454055651E1,3.427871704E0,1.655786488E1
7.253762917E0,-6.659938867E0,-1.500738651E1,4.366094878E0,1.698938551E1
7.263748917E0,-5.997251698E0,-1.532454884E1,5.496111987E0,1.734981476E1
7.273733917E0,-5.011112346E0,-1.556953315E1,6.813331799E0,1.771843953E1
7.283719917E0,-3.527992701E0,-1.537220833E1,8.032702550E0,1.769959976E1
7.293705917E0,-1.825998325E0,-1.506324028E1,8.914103651E0,1.759820223E1
7.303690917E0,-6.000862938E-1,-1.461153118E1,9.431520841E0,1.740145202E1
7.313676917E0,-1.840820432E-2,-1.387955451E1,1.006269795E1,1.714351954E1
7.323661917E0,1.066751990E0,-1.344942163E1,1.056124442E1,1.713373239E1
7.333647917E0,2.882727018E0,-1.291892480E1,1.031623673E1,1.678193890E1
7.343632917E0,4.713558066E0,-1.179289842E1,1.005826576E1,1.620058001E1
7.353618917E0,7.146247700E0,-1.062395581E1,9.856323981E0,1.615810681E1
7.363603917E0,9.834512697E0,-9.337488842E0,9.587994086E0,1.660831022E1
7.373589917E0,1.164712148E1,-8.194187443E0,8.920594060E0,1.680408120E1
7.383574917E0,1.355600117E1,-7.294841237E0,7.230432987E0,1.700761704E1
7.393560917E0,1.640853842E1,-6.191678635E0,4.896580887E0,1.820861120E1
7.403545917E0,1.894213463E1,-5.036845357E0,3.253822898E0,1.986860938E1
7.413531917E0,2.032267160E1,-4.060374084E0,2.631394393E0,2.089071217E1
7.423516917E0,2.064619804E1,-3.102853053E0,2.795378387E0,2.106436163E1
7.433502917E0,1.982843920E1,-2.581876078E0,3.457838977E0,2.029260298E1
7.443487917E0,1.870729408E1,-2.263570761E0,3.467279306E0,1.916007907E1
7.453473917E0,1.800433245E1,-2.142405197E0,2.701925555E0,1.833156537E1
7.463458917E0,1.737158420E1,-2.394171685E0,1.733682484E0,1.762128402E1
7.473444917E0,1.682400532E1,-2.842128046E0,6.324433234E-1,1.707409826E1
7.483429917E0,1.670757673E1,-3.101682732E0,-6.446651736E-1,1.700526827E1
7.493415917E0,1.678320462E1,-3.233833899E0,-1.377043260E0,1.714729970E1
7.503401917E0,1.665577741E1,-3.298251505E0,-1.284053235E0,1.702768854E1
7.513386917E0,1.658733108E1,-3.329286186E0,-3.715733054E-1,1.692222697E1
7.523372917E0,1.662860189E1,-3.207882494E0,8.142633712E-1,1.695476145E1
7.533357917E0,1.627177556E1,-3.158506851E0,1.966009319E0,1.669167571E1
7.543343917E0,1.543243465E1,-3.402831880E0,2.909662217E0,1.606877214E1
7.553328917E0,1.437369334E1,-3.932248433E0,3.281384334E0,1.525887025E1
7.563314917E0,1.351951103E1,-4.489914932E0,3.119379038E0,1.458310804E1
7.573299917E0,1.317617072E1,-4.965495293E0,2.920175511E0,1.438037007E1
7.583285917E0,1.342395817E1,-5.535084264E0,3.154880408E0,1.485910769E1
7.593270917E0,1.377893094E1,-5.992211983E0,3.802598705E0,1.549920318E1
7.603256917E0,1.374544978E1,-6.557948223E0,4.788541591E0,1.596478015E1
7.613241917E0,1.357486662E1,-7.200415136E0,6.053805968E0,1.651579694E1
7.623227917E0,1.333951502E1,-7.666686730E0,7.461015013E0,1.709934184E1
7.633212917E0,1.271171819E1,-8.344410015E0,8.851491081E0,1.759448357E1
7.643198917E0,1.150096214E1,-9.541095323E0,1.018522752E1,1.808434378E1
7.653183917E0,1.019886323E1,-1.073343323E1,1.124839868E1,1.859435056E1
7.663169917E0,9.164409505E0,-1.222330611E1,1.204283765E1,1.945316305E1
7.673154917E0,7.982922864E0,-1.361663796E1,1.226214683E1,1.998749939E1
7.683140917E0,6.735372042E0,-1.479064426E1,1.208392136E1,2.025214926E1
7.693125917E0,5.725662564E0,-1.609539079E1,1.172665297E1,2.072098469E1
7.703111917E0,4.845461019E0,-1.757646596E1,1.112551476E1,2.135855161E1
7.713096917E0,3.839455167E0,-1.907318243E1,1.026192428E1,2.199624499E1
7.723082917E0,2.855262938E0,-2.031071989E1,9.166322129E0,2.246551424E1
7.733068917E0,1.640747569E0,-2.136824264E1,8.023116624E0,2.288371137E1
7.743053917E0,1.819605637E-1,-2.218993314E1,6.819749118E0,2.321497836E1
7.753039917E0,-1.570358056E0,-2.259264492E1,5.514283379E0,2.330881700E1
7.763024917E0,-3.727441519E0,-2.270108738E1,4.221605209E0,2.338920988E1
7.773010917E0,-6.326283878E0,-2.191706931E1,2.865848153E0,2.299114788E1
7.782995917E0,-8.170594513E0,-2.013836970E1,1.495766003E0,2.178416546E1
7.792981917E0,-9.642677246E0,-1.831808469E1,5.978953421E-1,2.070968204E1
7.802966917E0,-1.140567007E1,-1.626978868E1,-3.883691400E-2,1.986949525E1
7.812952917E0,-1.283774908E1,-1.395762653E1,-9.818328774E-1,1.898913204E1
7.822937917E0,-1.403662358E1,-1.196624497E1,-1.812169952E0,1.853380102E1
7.832923917E0,-1.502028196E1,-1.052973027E1,-2.223912460E0,1.847782120E1
7.842908917E0,-1.547737167E1,-9.673445880E0,-2.466956364E0,1.841766714E1
7.852894917E0,-1.496150341E1,-9.181353566E0,-2.771882228E0,1.777152691E1
7.862879917E0,-1.349312489E1,-8.444159421E0,-3.197513919E0,1.623552718E1
7.872865917E0,-1.174566461E1,-7.735355846E0,-3.388627824E0,1.446648422E1
7.882850917E0,-1.026614831E1,-7.103360127E0,-3.349547081E0,1.292559445E1
7.892836917E0,-8.985450207E0,-6.417577041E0,-3.081322435E0,1.146377592E1
7.902821917E0,-7.982656816E0,-5.609895880E0,-2.578639644E0,1.009173543E1
7.912807917E0,-7.373865772E0,-4.891871247E0,-2.013504790E0,9.075158525E0
7.922792917E0,-6.954435053E0,-4.204591858E0,-1.505006358E0,8.264853522E0
7.932778917E0,-6.467702882E0,-3.463512238E0,-1.148303107E0,7.426014921E0
7.942763917E0,-5.975641558E0,-2.771048123E0,-8.658776209E-1,6.643549035E0
7.952749917E0,-5.470539774E0,-2.117420629E0,-5.427794874E-1,5.891085224E0
7.962734917E0,-4.731144152E0,-1.524792459E0,-1.260478431E-1,4.972384246E0
7.972720917E0,-3.819526979E0,-1.113097606E0,3.802058423E-1,3.996539642E0
7.982705917E0,-2.858150001E0,-7.514748001E-1,8.335591829E-1,3.070595499E0
7.992691917E0,-1.857873251E0,-3.249274349E-1,1.184685068E0,2.227274021E0
8.002677917E0,-8.675186419E-1,-1.106731743E-1,1.408870532E0,1.658238017E0
8.012662917E0,-2.607214987E-2,5.362890780E-2,1.298015509E0,1.299384500E0
8.022648917E0,5.940151298E-1,3.711333025E-1,9.207648495E-1,1.156893172E0
8.032633917E0,9.610682452E-1,6.262736338E-1,5.768696317E-1,1.283997433E0
8.042619917E0,1.233741453E0,7.120265597E-1,3.315780580E-1,1.462547026E0
8.052604917E0,1.382296983E0,8.012404525E-1,9.562185645E-2,1.600585753E0
8.062590917E0,1.362513806E0,8.713316113E-1,-1.623841953E-1,1.625432642E0
8.072575917E0,1.257811808E0,8.369909137E-1,-3.715543020E-1,1.555858906E0
8.082561917E0,1.127574143E0,8.074958038E-1,-5.189006281E-1,1.480787217E0
8.092546917E0,1.010764900E0,8.305963987E-1,-5.539877227E-1,1.420717586E0
8.102532917E0,1.013340307E0,7.730136037E-1,-4.462279236E-1,1.350380675E0
8.112517917E0,1.095544557E0,5.866856450E-1,-2.627083826E-1,1.270210068E0
8.122503917E0,1.232652994E0,4.446047366E-1,-6.117532432E-2,1.311811417E0
8.132488917E0,1.432468725E0,3.592435741E-1,1.518384495E-1,1.484613588E0
8.142474917E0,1.516059350E0,2.406287116E-1,1.708799073E-1,1.544518719E0
8.152459917E0,1.308082660E0,1.082278687E-1,-7.733761311E-2,1.314828743E0
8.162445917E0,8.758515090E-1,-1.161566931E-1,-3.660707831E-1,9.563556145E-1
8.172430917E0,3.439054504E-1,-4.164632571E-1,-6.641364017E-1,8.560314033E-1
8.182416917E0,-2.308319941E-1,-7.514204210E-1,-9.433722317E-1,1.227952453E0
8.192401917E0,-7.347962022E-1,-1.095294589E0,-1.199053431E0,1.782505210E0
8.202387917E0,-1.132655373E0,-1.474599960E0,-1.388453516E0,2.320593976E0
8.212373917E0,-1.579750439E0,-2.011922241E0,-1.514841960E0,2.972909133E0
8.222358917E0,-2.098503425E0,-2.728549975E0,-1.615478388E0,3.802429751E0
8.232344917E0,-2.747271590E0,-3.479796733E0,-1.751384052E0,4.766952128E0
8.242329917E0,-3.694492751E0,-4.257200426E0,-1.896217245E0,5.947156631E0
8.252315917E0,-5.080390742E0,-5.080326422E0,-1.987089701E0,7.454435735E0
8.262300917E0,-7.126078899E0,-5.911611038E0,-2.098897527E0,9.493867303E0
8.272286917E0,-9.591376700E0,-6.635264202E0,-2.297547908E0,1.188696616E1
8.282271917E0,-1.205492384E1,-7.149429170E0,-2.697785142E0,1.427282632E1
8.292257917E0,-1.389245580E1,-7.738946621E0,-3.271362791E0,1.623556089E1
8.302242917E0,-1.463668941E1,-8.793386714E0,-3.629526969E0,1.745651147E1
8.312228917E0,-1.423553533E1,-9.993579183E0,-3.572674491E0,1.775629731E1
8.322213917E0,-1.297966919E1,-1.101980880E1,-3.010081421E0,1.729070815E1
8.332199917E0,-1.166423277E1,-1.199814738E1,-2.154417132E0,1.687161462E1
8.342184917E0,-1.054827296E1,-1.278751097E1,-1.318987864E0,1.662907779E1
8.352170917E0,-9.801271276E0,-1.322788583E1,-7.004927807E-1,1.647824542E1
8.362155917E0,-9.230825688E0,-1.397235216E1,-2.346147772E-1,1.674783006E1
8.372141917E0,-8.752000122E0,-1.519506693E1,4.436656737E-1,1.754093511E1
8.382126917E0,-8.378543136E0,-1.645268724E1,1.506822796E0,1.852461653E1
8.392112917E0,-7.671184409E0,-1.748668430E1,2.799156273E0,1.929939051E1
8.402097917E0,-6.701658166E0,-1.843900277E1,4.076491642E0,2.003813438E1
8.412083917E0,-6.064563090E0,-1.933916993E1,5.276742582E0,2.094341021E1
8.422068917E0,-5.847020355E0,-1.970612949E1,6.208278295E0,2.147235212E1
8.432054917E0,-6.014338431E0,-1.986223845E1,6.715941744E0,2.181248855E1
8.442039917E0,-6.135583956E0,-2.038591976E1,7.159061873E0,2.246070529E1
8.452025917E0,-5.470344477E0,-2.111583471E1,8.347976232E0,2.335576698E1
8.462011917E0,-4.454115354E0,-2.161070796E1,1.027866603E1,2.434158617E1
8.471996917E0,-3.120780031E0,-2.223424334E1,1.192180379E1,2.542105920E1
8.481982917E0,4.399883598E-1,-2.219956935E1,1.102426087E1,2.479009473E1
8.491967917E0,6.340630022E0,-2.109801941E1,7.352849125E0,2.322486604E1
8.501953917E0,1.252969904E1,-1.902133166E1,3.684363327E0,2.307333849E1
8.511938917E0,1.825592879E1,-1.584993754E1,1.201813901E0,2.420627631E1
8.521924917E0,2.354021896E1,-1.246438565E1,4.990657032E-1,2.664116898E1
8.531909917E0,2.647990663E1,-9.430687612E0,2.778781065E0,2.824614926E1
8.541895917E0,2.570641121E1,-7.424831858E0,8.065328844E0,2.794632775E1
8.551880917E0,2.413118301E1,-6.432196834E0,1.222641332E1,2.780597656E1
8.561866917E0,2.384219490E1,-6.175127506E0,1.119402191E1,2.705343941E1
8.571851917E0,2.473144881E1,-6.895717313E0,6.442784387E0,2.647083203E1
8.581837917E0,2.634971954E1,-7.078348662E0,1.510064492E0,2.732564792E1
8.591822917E0,2.747737145E1,-6.488980315E0,-1.596302445E0,2.827827768E1
8.601808917E0,2.750411661E1,-5.843207971E0,-2.633992604E0,2.824105924E1
8.611793917E0,2.651573135E1,-5.395421180E0,-2.025495675E0,2.713479706E1
8.621779917E0,2.524922911E1,-4.900665751E0,-6.977792341E-1,2.572988518E1
8.631764917E0,2.412595092E1,-4.512363854E0,7.823656404E-1,2.455677160E1
8.641750917E0,2.298097956E1,-4.166208103E0,2.382772538E0,2.347680379E1
8.651735917E0,2.126500186E1,-4.158393592E0,3.914352445E0,2.201850804E1
8.661721917E0,1.887832046E1,-4.690101084E0,5.102138291E0,2.011019260E1
8.671706917E0,1.666751628E1,-5.435121435E0,5.731427919E0,1.844440051E1
8.681692917E0,1.484143551E1,-6.247306121E0,5.956470877E0,1.716905901E1
8.691678917E0,1.348836058E1,-7.169919568E0,5.759503325E0,1.632530233E1
8.701663917E0,1.263057989E1,-7.874283936E0,5.310121998E0,1.580295198E1
8.711649917E0,1.183601111E1,-8.496026562E0,5.155066702E0,1.545471899E1
8.721634917E0,1.060047105E1,-9.311973932E0,5.673055165E0,1.520744554E1
8.731620917E0,9.110975309E0,-1.022373845E1,6.842776623E0,1.530876517E1
8.741605917E0,7.519611130E0,-1.119583221E1,8.324257001E0,1.584880011E1
8.751591917E0,5.884550709E0,-1.214928972E1,9.859124798E0,1.671632494E1
8.761576917E0,4.639483784E0,-1.286194368E1,1.108630334E1,1.760285564E1
8.771562917E0,4.371842106E0,-1.329706658E1,1.169850564E1,1.824225911E1
8.781547917E0,4.647731867E0,-1.374472707E1,1.151372778E1,1.852255007E1
8.791533917E0,4.594526297E0,-1.447531795E1,1.095765874E1,1.872738067E1
8.801518917E0,4.218613481E0,-1.551306775E1,1.057986546E1,1.924540267E1
8.811504917E0,3.726792478E0,-1.652999328E1,1.037333011E1,1.986795504E1
8.821489917E0,3.076887614E0,-1.766482440E1,9.637015972E0,2.035645685E1
8.831475917E0,2.146362593E0,-1.893728144E1,8.438062529E0,2.084294605E1
8.841460917E0,1.006166504E0,-2.014256099E1,7.144456698E0,2.139575649E1
8.851446917E0,-6.713137127E-1,-2.088668934E1,5.981330314E0,2.173662269E1
8.861431917E0,-2.598289213E0,-2.047688607E1,4.781618780E0,2.118768151E1
8.871417917E0,-4.666055579E0,-1.963810298E1,3.835438715E0,2.054599118E1
8.881402917E0,-7.211637697E0,-1.868537637E1,3.349126081E0,2.030683762E1
8.891388917E0,-9.887663888E0,-1.752718679E1,3.184275823E0,2.037419413E1
8.901373917E0,-1.249652077E1,-1.612020404E1,3.129566934E0,2.063536282E1
8.911359917E0,-1.536093139E1,-1.407218284E1,2.828325401E0,2.102341474E1
8.921345917E0,-1.791033028E1,-1.169870562E1,2.107549360E0,2.149607890E1
8.931330917E0,-1.877440608E1,-9.901742814E0,1.242309085E0,2.126184767E1
8.941316917E0,-1.774209419E1,-8.940193927E0,-3.680646837E-2,1.986731810E1
8.951301917E0,-1.532706081E1,-8.343191455E0,-1.678426881E0,1.753125077E1
8.961287917E0,-1.233726367E1,-7.808016272E0,-3.168733047E0,1.494035013E1
8.971272917E0,-9.998763324E0,-7.146739451E0,-4.287019180E0,1.301651590E1
8.981258917E0,-8.554844874E0,-6.208220408E0,-4.707650040E0,1.157105615E1
8.991243917E0,-7.743902721E0,-5.237645175E0,-4.156489154E0,1.023119536E1
9.001229917E0,-7.290902553E0,-4.492404091E0,-2.936768155E0,9.053372949E0
9.011214917E0,-6.805720478E0,-3.810194823E0,-1.752561974E0,7.994178463E0
9.021200917E0,-6.120094682E0,-3.063837506E0,-9.779877484E-1,6.913690709E0
9.031185917E0,-5.296615514E0,-2.451700101E0,-4.366387823E-1,5.852830317E0
9.041171917E0,-4.587188334E0,-1.954734718E0,-5.614525706E-2,4.986625805E0
9.051156917E0,-3.997280581E0,-1.403751002E0,1.765575537E-1,4.240276110E0
9.061142917E0,-3.252617787E0,-9.141998881E-1,4.088703552E-1,3.403301173E0
9.071127917E0,-2.415806675E0,-6.687565792E-1,6.377815390E-1,2.586527121E0
9.081113917E0,-1.721760304E0,-4.732508308E-1,7.098639670E-1,1.921544104E0
9.091098917E0,-1.337279562E0,-1.749130243E-1,5.064106831E-1,1.440612013E0
9.101084917E0,-1.078713055E0,5.429432094E-2,1.198550570E-1,1.086708315E0
9.111069917E0,-7.271100372E-1,1.436830455E-1,-4.039680496E-1,8.441113723E-1
9.121055917E0,-2.817735216E-1,3.461329472E-1,-9.465212497E-1,1.046473512E0
9.131041167E0,2.691622469E-1,4.695518821E-1,-1.128101269E0,1.251215313E0
9.141027167E0,6.491827324E-1,4.458507782E-1,-9.590857467E-1,1.240994201E0
9.151012167E0,7.313288033E-1,6.165918142E-1,-7.429890284E-1,1.211222515E0
9.160998167E0,8.273383301E-1,7.384279078E-1,-4.869359466E-1,1.211144543E0
9.170984167E0,1.005802953E0,6.953719354E-1,-2.746516129E-1,1.253241883E0
9.180969167E0,1.138924465E0,7.648532295E-1,-1.986009720E-1,1.386214899E0
9.190955167E0,1.204729030E0,7.803120983E-1,-1.350820836E-1,1.441702527E0
9.200940167E0,1.193462615E0,6.804901868E-1,2.164405346E-2,1.374004503E0
9.210926167E0,1.239259762E0,5.874516302E-1,2.047905421E-1,1.386651846E0
9.220911167E0,1.340862736E0,5.288484961E-1,2.978261751E-1,1.471833564E0
9.230897167E0,1.344131622E0,4.458297282E-1,2.486274102E-1,1.437800248E0
9.240882167E0,1.323590061E0,2.266146898E-1,1.667269224E-1,1.353160276E0
9.250868167E0,1.248244886E0,1.162882555E-1,1.279692382E-2,1.253715285E0
9.260853167E0,9.759356681E-1,6.086834550E-2,-2.129023844E-1,1.000741130E0
9.270839167E0,6.980028901E-1,-1.195381379E-1,-3.930779028E-1,8.099429848E-1
9.280824167E0,4.006640804E-1,-3.083207577E-1,-5.167921221E-1,7.229574624E-1
9.290810167E0,3.800894827E-2,-3.963178450E-1,-6.244314685E-1,7.405586900E-1
9.300795167E0,-3.154780421E-1,-4.644355685E-1,-7.165800789E-1,9.103371912E-1
9.310781167E0,-5.308871278E-1,-5.792099798E-1,-7.530278206E-1,1.088290513E0
9.320766167E0,-7.255046842E-1,-6.913665926E-1,-7.646474075E-1,1.260567519E0
9.330752167E0,-9.955755883E-1,-7.328882557E-1,-7.891732612E-1,1.466659600E0
9.340737167E0,-1.202408271E0,-8.603294903E-1,-7.334416947E-1,1.650420916E0
9.350723167E0,-1.462302973E0,-1.046581435E0,-5.958836076E-1,1.894396991E0
9.360708167E0,-1.867372930E0,-1.273130636E0,-4.396612081E-1,2.302443323E0
9.370694167E0,-2.276270183E0,-1.660024524E0,-3.255425620E-1,2.836029852E0
9.380679167E0,-2.811646510E0,-2.181313155E0,-2.112543467E-1,3.564843836E0
9.390665167E0,-3.568614770E0,-2.829329660E0,-1.183075914E-1,4.555668380E0
9.400651167E0,-4.727497536E0,-3.550032903E0,-7.067821920E-3,5.912023048E0
9.410636167E0,-6.271012487E0,-4.199534601E0,6.733127296E-2,7.547597100E0
9.420622167E0,-8.095005802E0,-4.716272929E0,-7.910230279E-2,9.369023772E0
9.430607167E0,-1.009238309E1,-5.272409796E0,-5.310572818E-1,1.139897028E1
9.440593167E0,-1.180545707E1,-6.020965081E0,-1.205967178E0,1.330696035E1
9.450578167E0,-1.286725179E1,-6.732519770E0,-1.828785692E0,1.463685240E1
9.460564167E0,-1.290102180E1,-7.551282574E0,-2.096162784E0,1.509477162E1
9.470549167E0,-1.239412433E1,-8.482116621E0,-1.643379840E0,1.510831948E1
9.480535167E0,-1.191280025E1,-9.277529154E0,-6.210707814E-1,1.511201793E1
9.490520167E0,-1.152665949E1,-1.000299671E1,4.854289730E-1,1.526956002E1
9.500506167E0,-1.114558241E1,-1.079327012E1,1.261038594E0,1.556627462E1
9.510491167E0,-1.072629845E1,-1.164182040E1,1.925708847E0,1.594659259E1
9.520477167E0,-1.036573575E1,-1.237860465E1,2.671036177E0,1.636498595E1
9.530462167E0,-9.817401406E0,-1.314242994E1,3.423543595E0,1.675784849E1
9.540448167E0,-9.160217051E0,-1.394736116E1,3.890229757E0,1.713395305E1
9.550433167E0,-8.800804492E0,-1.469126966E1,4.323216076E0,1.766289221E1
9.560419167E0,-8.373094116E0,-1.550925537E1,4.994595716E0,1.831916192E1
9.570404167E0,-7.763428913E0,-1.647230114E1,5.960034170E0,1.916062475E1
9.580390167E0,-7.050446919E0,-1.702697270E1,7.332624190E0,1.983416191E1
9.590375167E0,-6.016227082E0,-1.721141727E1,9.094479729E0,2.037492170E1
9.600361167E0,-4.990616101E0,-1.761945936E1,1.087631228E1,2.129896162E1
9.610346167E0,-4.389544551E0,-1.802781955E1,1.211188040E1,2.215779831E1
9.620332167E0,-3.499977229E0,-1.907188084E1,1.259240108E1,2.312044645E1
9.630318167E0,-2.846867214E0,-2.060070670E1,1.254077835E1,2.428507548E1
9.640303167E0,-6.997450680E-1,-2.156622000E1,1.239864540E1,2.488609845E1
9.650289167E0,7.344996314E0,-2.144728530E1,8.998532767E0,2.439074844E1
9.660274167E0,2.248796572E1,-1.834133322E1,-6.092104353E-1,2.902557913E1
9.670260167E0,3.693795120E1,-1.162400744E1,-8.668225894E0,3.968208573E1
9.680245167E0,3.770392008E1,-5.896654446E0,-5.237837548E0,3.852000863E1
9.690231167E0,2.841766220E1,-4.986469256E0,7.036180882E0,2.969741137E1
9.700216167E0,1.982406783E1,-3.656745758E0,1.653858869E1,2.607470749E1
9.710202167E0,1.644587874E1,-2.811911682E0,1.710819286E1,2.389694621E1
9.720187167E0,1.821353180E1,-4.859056672E0,9.880950115E0,2.128324100E1
9.730173167E0,2.280722136E1,-6.080606096E0,1.318385162E0,2.364066953E1
9.740158167E0,2.661381956E1,-5.819254267E0,-4.575143362E0,2.762410267E1
9.750144167E0,2.713512456E1,-5.358843922E0,-6.413824298E0,2.839312127E1
9.760129167E0,2.479287030E1,-4.881327840E0,-4.535254827E0,2.567259854E1
9.770115167E0,2.184348561E1,-4.413535092E0,-1.809518825E0,2.235825383E1
9.780100167E0,1.981776453E1,-4.041339936E0,1.369333121E-1,2.022609626E1
9.790086167E0,1.899500866E1,-3.638297500E0,1.106856873E0,1.937195640E1
9.800071167E0,1.865037260E1,-3.488311449E0,1.888821102E0,1.906757352E1
9.810057167E0,1.744081991E1,-3.677232648E0,3.206903670E0,1.811045196E1
9.820042167E0,1.537779710E1,-4.183724315E0,4.573359377E0,1.657998217E1
9.830028167E0,1.316919499E1,-4.871500132E0,5.077993383E0,1.493135047E1
9.840013167E0,1.167004842E1,-5.668224780E0,4.785552202E0,1.382824327E1
9.849999167E0,1.079626507E1,-6.504215820E0,4.054604929E0,1.324024108E1
9.859984167E0,9.923686244E0,-7.369044158E0,3.386822496E0,1.281611981E1
9.869970167E0,9.107911953E0,-8.108849670E0,3.332214764E0,1.264164381E1
9.879956167E0,8.686259876E0,-8.390011280E0,3.927365423E0,1.269911804E1
9.889941167E0,8.336661869E0,-8.888006358E0,5.061853314E0,1.319541387E1
9.899927167E0,7.633072257E0,-9.550012327E0,6.533506277E0,1.386193463E1
9.909912167E0,6.987846043E0,-9.950891000E0,7.929812019E0,1.451661609E1
9.919898167E0,6.272235140E0,-1.045933798E1,8.952909282E0,1.512921905E1
9.929883167E0,6.090269204E0,-1.095478542E1,9.393252568E0,1.566307430E1
9.939869167E0,5.752060989E0,-1.193919107E1,9.549241079E0,1.633457971E1
9.949854167E0,5.331327510E0,-1.255888834E1,9.371621379E0,1.655222090E1
9.959840167E0,5.311663324E0,-1.296764848E1,9.020753356E0,1.666576327E1
9.969825167E0,5.362279161E0,-1.377941626E1,8.794901143E0,1.720397153E1
9.979811167E0,5.159840369E0,-1.485784514E1,8.775033474E0,1.801057265E1
9.989796167E0,4.645472210E0,-1.615500315E1,8.730354899E0,1.894158482E1
9.999782167E0,4.068741450E0,-1.770176126E1,8.314613189E0,1.997598061E1
1.000976717E1,2.587933209E0,-1.943478126E1,8.219180782E0,2.125942270E1
1.001975317E1,-2.644580157E-1,-2.066907469E1,7.912191435E0,2.213330883E1
1.002973817E1,-3.511093370E0,-2.079632647E1,6.702948647E0,2.213017153E1
1.003972417E1,-7.010223922E0,-2.031594496E1,5.145301852E0,2.209875540E1
1.004970917E1,-1.071575475E1,-1.906595761E1,3.282157921E0,2.211584726E1
1.005969517E1,-1.392447983E1,-1.699986851E1,1.830141077E0,2.205076154E1
1.006968017E1,-1.655391190E1,-1.455787245E1,1.560103210E0,2.209971881E1
1.007966617E1,-1.856205041E1,-1.219588150E1,1.580656465E0,2.226629102E1
1.008965217E1,-1.970343041E1,-1.041654805E1,1.533075625E0,2.234009768E1
1.009963717E1,-1.936323122E1,-9.336606497E0,1.309230469E0,2.153650456E1
1.010962317E1,-1.698070017E1,-8.699737124E0,6.022751990E-1,1.908906335E1
1.011960817E1,-1.366425535E1,-8.119040197E0,-5.177051648E-1,1.590278927E1
1.012959446E1,-1.121296689E1,-7.518383215E0,-1.550290120E0,1.358897024E1
1.013957946E1,-9.893867784E0,-6.763450956E0,-2.199951739E0,1.218493645E1
1.014956546E1,-9.367680940E0,-5.850364963E0,-2.239308763E0,1.126919341E1
1.015955046E1,-9.196192630E0,-5.082167126E0,-1.863593583E0,1.067105255E1
1.016953646E1,-8.939132073E0,-4.454779013E0,-1.354783202E0,1.007911582E1
1.017952146E1,-8.169732049E0,-3.816917367E0,-9.592781201E-1,9.068274061E0
1.018950746E1,-6.947515458E0,-3.217594720E0,-7.329411730E-1,7.691429619E0
1.019949246E1,-5.731405115E0,-2.665208842E0,-6.134401649E-1,6.350484359E0
1.020947846E1,-4.586110692E0,-2.010670937E0,-4.506218138E-1,5.027749886E0
1.021946346E1,-3.374045745E0,-1.274324053E0,-2.070136535E-1,3.612608633E0
1.022944946E1,-2.353835837E0,-7.172346747E-1,5.747812986E-2,2.461355818E0
1.023943446E1,-1.464455041E0,-3.862197036E-1,2.542869303E-1,1.535726560E0
1.024942046E1,-6.815371308E-1,-4.237184823E-2,1.810053845E-1,7.064355479E-1
1.025940546E1,3.219184577E-3,3.817208558E-1,-1.565349331E-1,4.125825496E-1
1.026939146E1,5.802154085E-1,7.272228885E-1,-4.067159486E-1,1.015342756E0
1.027937646E1,8.979481369E-1,9.190285188E-1,-3.183032705E-1,1.323722496E0
1.028936246E1,9.773363686E-1,9.784186882E-1,-4.768901378E-2,1.383749887E0
1.029934746E1,6.595609555E-1,1.106923531E0,1.293331012E-1,1.295000930E0
1.030933346E1,4.528990120E-1,1.369471700E0,1.470668292E-1,1.449896170E0
1.031931946E1,8.490461183E-1,1.400435046E0,2.583218014E-1,1.657958920E0
1.032930446E1,1.355721973E0,1.297915229E0,4.824843152E-1,1.937874383E0
1.033929046E1,1.861201194E0,1.252680584E0,6.763265307E-1,2.343223444E0
1.034927546E1,2.348513702E0,1.312045611E0,6.837899168E-1,2.775706926E0
1.035926146E1,2.686583923E0,1.372555522E0,5.771179922E-1,3.071596818E0
1.036924646E1,2.740276566E0,1.319880295E0,6.625073674E-1,3.112895061E0
1.037923246E1,2.487923017E0,1.113763019E0,8.678184579E-1,2.860653401E0
1.038921746E1,2.102815162E0,9.770527786E-1,9.433080585E-1,2.503256645E0
1.039920346E1,1.612676110E0,1.011950131E0,6.409328958E-1,2.008870897E0
1.040918846E1,1.175756077E0,8.808707589E-1,1.678178667E-1,1.478681332E0
1.041917446E1,8.403533551E-1,6.220139372E-1,-1.607212472E-1,1.057793183E0
1.042915946E1,5.967402247E-1,4.828121978E-1,-3.416168502E-1,8.401836623E-1
1.043914546E1,4.984043831E-1,5.293390775E-1,-3.397890106E-1,8.025355816E-1
1.044913046E1,6.782457331E-1,5.059367663E-1,-2.557911265E-1,8.839787250E-1
1.045911646E1,8.345716283E-1,3.883416581E-1,-1.640433428E-1,9.350022805E-1
1.046910146E1,8.464560941E-1,3.789498603E-1,2.367332965E-2,9.277129634E-1
1.047908746E1,8.178941998E-1,3.830563599E-1,2.306972158E-1,9.321503646E-1
1.048907246E1,6.881845379E-1,3.469638366E-1,2.765124893E-1,8.188046280E-1
1.049905846E1,5.127718690E-1,4.010295314E-1,1.991117263E-1,6.807386828E-1
1.050904346E1,4.202671632E-1,4.385850281E-1,9.829052567E-2,6.153392095E-1
1.051902946E1,4.524315271E-1,5.201794142E-1,2.298335820E-2,6.897892028E-1
1.052901446E1,5.731206894E-1,5.516362649E-1,1.066896124E-1,8.025911579E-1
1.053900046E1,6.776367456E-1,5.097462273E-1,3.204766805E-1,9.064976988E-1
1.054898546E1,7.232055590E-1,4.554115605E-1,4.687335643E-1,9.747497752E-1
1.055897146E1,6.626333749E-1,4.278682512E-1,5.663659859E-1,9.710430783E-1
1.056895746E1,4.914459041E-1,4.332909590E-1,6.571793845E-1,9.279789196E-1
1.057894246E1,3.150693217E-1,3.873511398E-1,6.912264057E-1,8.527036571E-1
1.058892846E1,2.016213512E-1,3.675068593E-1,7.189370915E-1,8.322157187E-1
1.059891346E1,-6.889774203E-3,2.835443509E-1,7.995938766E-1,8.484074701E-1
1.060889946E1,-2.614181945E-1,4.764194369E-2,8.358208859E-1,8.770437734E-1
1.061888446E1,-5.018612570E-1,-3.482537323E-1,8.035585812E-1,1.009381879E0
1.062887046E1,-1.091442443E0,-8.741113776E-1,7.003829992E-1,1.563922521E0
1.063885546E1,-1.905359367E0,-1.286254712E0,2.932480976E-1,2.317507270E0
1.064884146E1,-2.796172731E0,-1.660878802E0,-2.513741398E-1,3.261945630E0
1.065882646E1,-3.936591160E0,-2.217538410E0,-6.783518600E-1,4.568849725E0
1.066881246E1,-5.193453673E0,-2.885569350E0,-1.005445104E0,6.025727457E0
1.067879746E1,-6.453660793E0,-3.667569539E0,-1.187944013E0,7.517447368E0
1.068878346E1,-7.962912523E0,-4.511410466E0,-1.261042395E0,9.238562018E0
1.069876846E1,-9.869819355E0,-5.523222018E0,-1.131764842E0,1.136662691E1
1.070875446E1,-1.229875741E1,-6.418593872E0,-1.004883479E0,1.390926210E1
1.071873946E1,-1.479309892E1,-7.186902221E0,-9.608469281E-1,1.647454297E1
1.072872546E1,-1.655281847E1,-7.938808545E0,-1.128168805E0,1.839274980E1
1.073871046E1,-1.692735953E1,-8.826988324E0,-1.211617928E0,1.912901570E1
1.074869646E1,-1.594698495E1,-9.876793914E0,-9.699551359E-1,1.878292309E1
1.075868146E1,-1.425336817E1,-1.075992228E1,-3.876540256E-1,1.786294229E1
1.076866746E1,-1.296951023E1,-1.153512859E1,4.123971033E-1,1.736195435E1
1.077865246E1,-1.191706287E1,-1.237424965E1,1.154690313E0,1.721835508E1
1.078863846E1,-1.097986647E1,-1.327391394E1,1.829946657E0,1.732348013E1
1.079862446E1,-1.029804253E1,-1.419368096E1,2.380855090E0,1.769685651E1
1.080860946E1,-9.771513627E0,-1.515416566E1,3.056621457E0,1.828863445E1
1.081859546E1,-9.416728554E0,-1.632156460E1,4.024651397E0,1.926826579E1
1.082858046E1,-9.244632719E0,-1.709518164E1,5.124458867E0,2.009896883E1
1.083856646E1,-8.637385340E0,-1.741783450E1,6.752785635E0,2.058119283E1
1.084855146E1,-7.668964806E0,-1.818484536E1,8.841504622E0,2.162576764E1
1.085853746E1,-6.457608249E0,-1.921083173E1,1.074312440E1,2.293842806E1
1.086852246E1,-5.467135525E0,-1.971445826E1,1.208065159E1,2.375903151E1
1.087850846E1,-4.407140577E0,-2.026213888E1,1.310633859E1,2.453065982E1
1.088849346E1,-2.127930415E0,-2.115672780E1,1.398316951E1,2.544924848E1
1.089847946E1,1.225878702E0,-2.151321850E1,1.381355114E1,2.559561571E1
1.090846446E1,7.221438215E0,-2.067180651E1,1.096444970E1,2.448860779E1
1.091845046E1,1.701341417E1,-1.762030604E1,3.975279263E0,2.481399388E1
1.092843546E1,2.841540517E1,-1.277855420E1,-4.752230381E0,3.151682713E1
1.093842146E1,3.171498663E1,-8.594973146E0,-6.674070418E0,3.352994417E1
1.094840646E1,2.455852092E1,-7.006537837E0,1.781348401E0,2.560050242E1
1.095839246E1,1.751431473E1,-6.075607311E0,1.142518807E1,2.177611415E1
1.096837746E1,1.638575066E1,-4.763545621E0,1.338187693E1,2.168545184E1
1.097836346E1,2.002534302E1,-5.262942569E0,7.751542693E0,2.210880688E1
1.098834846E1,2.455047749E1,-5.640687903E0,3.154167925E-1,2.519211767E1
1.099833446E1,2.685075809E1,-5.157259993E0,-4.566220511E0,2.772022566E1
1.100831946E1,2.512546695E1,-4.761032487E0,-5.462232635E0,2.614942648E1
1.101830546E1,2.160623601E1,-4.336430491E0,-3.408019238E0,2.229907305E1
1.102829046E1,1.886369423E1,-3.926568448E0,-1.588150257E0,1.933336807E1
1.103827646E1,1.767515526E1,-3.709143827E0,-1.001667802E0,1.808790203E1
1.104826246E1,1.812370570E1,-3.493647325E0,-9.470869678E-1,1.848164640E1
1.105824746E1,1.858491653E1,-3.123514774E0,-3.403377718E-1,1.884864177E1
1.106823346E1,1.800970721E1,-2.983119910E0,8.368488264E-1,1.827426809E1
1.107821846E1,1.642357629E1,-3.251201299E0,1.933698775E0,1.685358594E1
1.108820446E1,1.456444121E1,-3.913165460E0,2.421047827E0,1.527407229E1
1.109818946E1,1.316938678E1,-4.457098311E0,2.286343766E0,1.408991984E1
1.110817546E1,1.258269821E1,-5.047179726E0,1.999317252E0,1.370385299E1
1.111816046E1,1.218892799E1,-5.799000682E0,1.912319308E0,1.363287716E1
1.112814592E1,1.168988100E1,-6.597524518E0,2.136909253E0,1.359216792E1
1.113813092E1,1.145771730E1,-7.351503680E0,2.810950692E0,1.390055164E1
1.114811692E1,1.157332260E1,-7.929693321E0,3.716756317E0,1.451330802E1
1.115810192E1,1.213785607E1,-8.359323338E0,4.891666594E0,1.552849763E1
1.116808792E1,1.232346307E1,-9.249993446E0,6.417971728E0,1.669192865E1
1.117807292E1,1.166375915E1,-1.083448364E1,8.063786348E0,1.784527846E1
1.118805892E1,1.034391862E1,-1.190540937E1,9.044233435E0,1.818058258E1
1.119804392E1,9.193360239E0,-1.239907926E1,9.314784104E0,1.802831778E1
1.120802992E1,7.814243556E0,-1.338619218E1,9.462386538E0,1.816010194E1
1.121801492E1,6.605011293E0,-1.450875701E1,9.447211844E0,1.853051580E1
1.122800092E1,5.435671658E0,-1.554948889E1,9.059236221E0,1.879901306E1
1.123798592E1,4.293961871E0,-1.640667901E1,8.797076308E0,1.910512435E1
1.124797192E1,2.921649594E0,-1.717270402E1,8.806801397E0,1.951915855E1
1.125795692E1,1.351329837E0,-1.776797864E1,8.859114096E0,1.990002663E1
1.126794292E1,2.592363060E-3,-1.845895815E1,8.755262868E0,2.043007025E1
1.127792892E1,-1.711513058E0,-1.966667715E1,8.437548559E0,2.146857454E1
1.128791392E1,-4.288842634E0,-2.070770841E1,7.665593301E0,2.249365865E1
1.129789992E1,-6.773325149E0,-2.042771566E1,6.060689310E0,2.235847615E1
1.130788492E1,-9.414438200E0,-1.944424088E1,4.526125276E0,2.207251595E1
1.131787092E1,-1.355890489E1,-1.782280915E1,3.392171529E0,2.264957518E1
1.132785592E1,-1.827713313E1,-1.535433690E1,2.586430767E0,2.401039111E1
1.133784192E1,-2.175621241E1,-1.236588345E1,2.327160255E0,2.513291720E1
1.134782692E1,-2.279575380E1,-9.946392152E0,1.998904292E0,2.495140730E1
1.135781292E1,-2.139000363E1,-8.558963653E0,9.929823482E-1,2.306022828E1
1.136779792E1,-1.861074485E1,-8.002561322E0,-4.138974988E-1,2.026257937E1
1.137778392E1,-1.586844749E1,-7.569314802E0,-1.517518230E0,1.764667147E1
1.138776892E1,-1.352692647E1,-6.775097440E0,-2.136850927E0,1.527893376E1
1.139775492E1,-1.173793810E1,-5.711871906E0,-2.278555859E0,1.325128251E1
1.140773992E1,-1.054721227E1,-4.720970582E0,-1.760256910E0,1.168887310E1
1.141772592E1,-9.382712962E0,-4.071390531E0,-9.820126793E-1,1.027501203E1
1.142771092E1,-8.164959551E0,-3.581716041E0,-6.310209882E-1,8.938313138E0
1.143769692E1,-6.805269073E0,-3.111164870E0,-9.042195681E-1,7.537151122E0
1.144768192E1,-5.504453040E0,-2.660086681E0,-1.351537120E0,6.261127455E0
1.145766792E1,-4.442716499E0,-2.191717690E0,-1.512426475E0,5.179651549E0
1.146765292E1,-3.360580777E0,-1.717811387E0,-1.219138616E0,3.966191887E0
1.147763892E1,-2.427035668E0,-1.141606291E0,-6.308692530E-1,2.755315422E0
1.148762392E1,-1.671401159E0,-6.211543965E-1,1.007484028E-1,1.785935290E0
1.149760992E1,-8.911870015E-1,-1.431082642E-1,8.856400403E-1,1.264536487E0
1.150759492E1,3.153432637E-2,3.436455417E-1,1.521240568E0,1.559890874E0
1.151758092E1,9.109605306E-1,7.485921228E-1,1.800952946E0,2.152596285E0
1.152756692E1,1.620147098E0,9.576745212E-1,1.765564135E0,2.580549132E0
1.153755192E1,2.005145610E0,1.025147297E0,1.401020937E0,2.652243496E0
1.154753792E1,1.734901775E0,1.037630517E0,7.461026707E-1,2.154815643E0
1.155752292E1,1.204973736E0,9.381413126E-1,2.904662848E-2,1.527388141E0
1.156750892E1,7.481643990E-1,7.767587453E-1,-6.166637349E-1,1.242327766E0
1.157749392E1,4.359632827E-1,6.322430563E-1,-1.077945608E0,1.323541461E0
1.158747992E1,3.375422180E-1,4.604922062E-1,-1.298474515E0,1.418458279E0
1.159746492E1,3.311056030E-1,3.729348296E-1,-1.346785381E0,1.436155343E0
1.160745092E1,6.591314775E-1,3.666894186E-1,-1.274083732E0,1.480609601E0
1.161743592E1,1.199927297E0,3.286386627E-1,-9.650855747E-1,1.574553605E0
1.162742192E1,1.723652316E0,3.606662017E-1,-3.590338053E-1,1.797209696E0
1.163740692E1,2.210733566E0,5.253325653E-1,2.993832886E-1,2.291930967E0
1.164739292E1,2.314735506E0,6.188868463E-1,6.559298345E-1,2.484203160E0
1.165737792E1,2.130697463E0,6.068930376E-1,6.463532647E-1,2.307804884E0
1.166736392E1,1.827008285E0,6.007066834E-1,3.870619950E-1,1.961791218E0
1.167734892E1,1.484291574E0,4.744413239E-1,5.420924395E-2,1.559216049E0
1.168733492E1,1.104949219E0,2.819369513E-1,-3.286067954E-1,1.186753406E0
1.169731992E1,6.366351923E-1,2.141180205E-1,-6.714765577E-1,9.497534745E-1
1.170730592E1,3.110446832E-1,1.872705299E-1,-8.202621759E-1,8.970223428E-1
1.171729092E1,2.993844581E-1,1.010498267E-1,-7.803369489E-1,8.418835282E-1
1.172727692E1,4.523866497E-1,9.348528385E-2,-6.800627553E-1,8.221183189E-1
1.173726192E1,5.702337728E-1,8.316436350E-2,-5.240964639E-1,7.789479896E-1
1.174724792E1,6.035871680E-1,3.362792194E-2,-3.843690598E-1,7.163713287E-1
1.175723392E1,4.593543380E-1,2.681650043E-2,-3.021501911E-1,5.504727700E-1
1.176721892E1,2.711153631E-1,1.425141871E-2,-1.166376266E-1,2.954843126E-1
1.177720492E1,1.187689367E-1,6.130513251E-2,1.725761846E-1,2.182817424E-1
1.178718992E1,1.964912966E-2,1.406951183E-1,3.997685793E-1,4.242594980E-1
1.179717592E1,-6.064249679E-2,1.755164570E-1,4.873339958E-1,5.215150646E-1
1.180716092E1,-1.475505401E-1,1.480596864E-1,4.721068230E-1,5.163116162E-1
1.181714692E1,-2.394294477E-1,7.287209451E-2,3.575541674E-1,4.364421899E-1
1.182713192E1,-3.574629508E-1,-5.164728642E-2,2.084114304E-1,4.169922394E-1
1.183711792E1,-5.531689663E-1,-2.013436085E-1,5.777063683E-2,5.915002963E-1
1.184710292E1,-8.382517196E-1,-4.128970402E-1,-4.620586753E-2,9.355666163E-1
1.185708892E1,-1.213362298E0,-7.175147563E-1,-1.438800967E-1,1.416960470E0
1.186707392E1,-1.808192530E0,-1.062405170E0,-2.801544276E-1,2.115833518E0
1.187705992E1,-2.546798047E0,-1.557066751E0,-3.706503224E-1,3.007992490E0
1.188704492E1,-3.510898950E0,-2.162333677E0,-4.053148095E-1,4.143232852E0
1.189703092E1,-4.863563706E0,-2.761917695E0,-3.590631875E-1,5.604584521E0
1.190701592E1,-6.529051284E0,-3.318134084E0,-4.408075547E-1,7.337086327E0
1.191700192E1,-8.290468866E0,-3.800760925E0,-6.435597575E-1,9.142856599E0
1.192698692E1,-9.942309626E0,-4.282829942E0,-8.048285964E-1,1.085540889E1
1.193697292E1,-1.147693593E1,-4.811702996E0,-9.436716092E-1,1.248050721E1
1.194695792E1,-1.250127339E1,-5.344866153E0,-9.491236992E-1,1.362902294E1
1.195694392E1,-1.283197437E1,-5.960511303E0,-8.554359555E-1,1.417459106E1
1.196692892E1,-1.268999111E1,-6.644408078E0,-5.533651404E-1,1.433493097E1
1.197691492E1,-1.220914065E1,-7.190401195E0,4.904059768E-2,1.416924097E1
1.198689992E1,-1.156726723E1,-7.687408093E0,7.811682768E-1,1.391072026E1
1.199688592E1,-1.104924251E1,-8.273686772E0,1.244041031E0,1.385955595E1
1.200687192E1,-1.072418644E1,-8.862447594E0,1.454387451E0,1.398808046E1
1.201685692E1,-1.045872636E1,-9.494961961E0,1.568693354E0,1.421267246E1
1.202684292E1,-1.032847144E1,-1.024132571E1,1.762578839E0,1.465157871E1
1.203682792E1,-1.024240043E1,-1.085794968E1,2.090845034E0,1.507227491E1
1.204681392E1,-9.923196248E0,-1.148428705E1,2.618566772E0,1.540180395E1
1.205679892E1,-9.262152731E0,-1.220602876E1,3.482350212E0,1.571309563E1
1.206678492E1,-8.350741965E0,-1.264781397E1,4.765912281E0,1.588760553E1
1.207676992E1,-7.040713059E0,-1.312451056E1,6.341902376E0,1.618777760E1
1.208675592E1,-5.701035846E0,-1.369170569E1,7.766010459E0,1.674143162E1
1.209674092E1,-4.626596521E0,-1.375157650E1,8.855169564E0,1.699780220E1
1.210672692E1,-3.636804414E0,-1.364442393E1,9.507553355E0,1.702322594E1
1.211671192E1,-2.656832120E0,-1.376741076E1,9.587400593E0,1.698583545E1
1.212669833E1,-1.975403455E0,-1.396556705E1,9.238044076E0,1.686062692E1
1.213668333E1,-1.876414772E0,-1.433147879E1,8.271546691E0,1.665324897E1
1.214666933E1,-1.222168059E0,-1.513271807E1,7.147404864E0,1.678029342E1
1.215665433E1,2.341809869E-3,-1.557337594E1,6.695581155E0,1.695172117E1
1.216664033E1,1.311812891E0,-1.557581306E1,7.113927800E0,1.717366513E1
1.217662533E1,3.626985769E0,-1.534177942E1,6.987723252E0,1.724394090E1
1.218661133E1,7.811593598E0,-1.457226479E1,6.023830801E0,1.759711434E1
1.219659633E1,1.404193753E1,-1.273233079E1,3.975861938E0,1.936738845E1
1.220658233E1,2.085098391E1,-1.013587001E1,1.664582721E0,2.324371369E1
1.221656733E1,2.361695781E1,-7.945551555E0,1.537145579E0,2.496508166E1
1.222655333E1,2.110419641E1,-6.930924568E0,4.525195277E0,2.266941141E1
1.223653833E1,1.781773845E1,-6.896226021E0,7.657986073E0,2.058335462E1
1.224652433E1,1.661411016E1,-7.026202024E0,7.868598104E0,1.968021868E1
1.225651033E1,1.769737702E1,-7.346928819E0,5.234727999E0,1.986395967E1
1.226649533E1,2.052736391E1,-7.518035306E0,1.614312161E0,2.192029944E1
1.227648133E1,2.288947063E1,-7.156565697E0,-7.642562288E-1,2.399434071E1
1.228646633E1,2.366172176E1,-6.842139276E0,-1.604676827E0,2.468333313E1
1.229645233E1,2.361797055E1,-6.424992480E0,-1.193646510E0,2.450538417E1
1.230643733E1,2.323720922E1,-6.157411612E0,-1.238487053E-1,2.403948728E1
1.231642333E1,2.300383515E1,-6.162782865E0,9.612582797E-1,2.383443605E1
1.232640833E1,2.370255404E1,-5.796230856E0,1.411246548E0,2.444174660E1
1.233639433E1,2.408576184E1,-5.805295209E0,1.684409752E0,2.483269240E1
1.234637933E1,2.304447096E1,-6.543941218E0,2.099284905E0,2.404740746E1
1.235636533E1,2.097742176E1,-7.397220721E0,2.564437635E0,2.239078914E1
1.236635033E1,1.868456478E1,-8.162020741E0,2.931961743E0,2.059922191E1
1.237633633E1,1.649509359E1,-9.068266661E0,3.325947426E0,1.911500717E1
1.238632133E1,1.473751178E1,-1.002804033E1,3.835799196E0,1.823373801E1
1.239630733E1,1.392334313E1,-1.055112991E1,4.485533613E0,1.803623681E1
1.240629233E1,1.357319081E1,-1.098228020E1,5.447245052E0,1.828973663E1
1.241627833E1,1.306730725E1,-1.162449978E1,6.940787067E0,1.881643003E1
1.242626333E1,1.186320768E1,-1.246047737E1,9.070174023E0,1.944909379E1
1.243624933E1,1.010879506E1,-1.334182818E1,1.142660544E1,2.026720081E1
1.244623433E1,7.981631214E0,-1.425266300E1,1.346452499E1,2.116927662E1
1.245622033E1,6.013031579E0,-1.508849324E1,1.474094410E1,2.193432492E1
1.246620533E1,4.469251456E0,-1.599582908E1,1.531227671E1,2.258996623E1
1.247619133E1,3.089758798E0,-1.716324089E1,1.520760336E1,2.313859648E1
1.248617733E1,2.017377108E0,-1.854763936E1,1.446176995E1,2.360566725E1
1.249616233E1,1.328692634E0,-1.996785788E1,1.312250614E1,2.393075301E1
1.250614833E1,9.289629382E-1,-2.111715852E1,1.124387527E1,2.394205687E1
1.251613333E1,6.591265073E-1,-2.211274522E1,9.191527137E0,2.395604558E1
1.252611933E1,-1.457789800E-1,-2.326702535E1,7.510970700E0,2.444975257E1
1.253610433E1,-2.200849287E0,-2.469227247E1,6.521722383E0,2.563366771E1
1.254609033E1,-5.078489227E0,-2.540739162E1,5.578247241E0,2.650364964E1
1.255607533E1,-7.691385369E0,-2.435921506E1,4.028829818E0,2.586039901E1
1.256606133E1,-1.034629843E1,-2.221244492E1,2.860459359E0,2.467024176E1
1.257604633E1,-1.280808498E1,-1.978230935E1,3.022420216E0,2.375966810E1
1.258603233E1,-1.488752561E1,-1.694405918E1,3.766238087E0,2.286753396E1
1.259601733E1,-1.698000084E1,-1.375508366E1,4.180765039E0,2.224863033E1
1.260600333E1,-1.878185777E1,-1.166057359E1,3.980487085E0,2.246266759E1
1.261598833E1,-1.959625797E1,-1.061774139E1,2.301432506E0,2.240639083E1
1.262597433E1,-1.770013106E1,-9.758596542E0,-9.115817973E-1,2.023254377E1
1.263595933E1,-1.391246030E1,-9.053390175E0,-4.046061562E0,1.708481897E1
1.264594533E1,-1.080302913E1,-8.511490109E0,-5.994228687E0,1.500272241E1
1.265593033E1,-8.823465961E0,-7.732692440E0,-6.656627589E0,1.348920957E1
1.266591633E1,-7.890122874E0,-6.918702718E0,-6.030979607E0,1.210352020E1
1.267590133E1,-7.682723304E0,-6.082116432E0,-4.216014394E0,1.066729371E1
1.268588733E1,-7.750981361E0,-4.890342785E0,-2.431117025E0,9.481745335E0
1.269587233E1,-7.551649779E0,-3.792120495E0,-1.010004762E0,8.510446631E0
1.270585833E1,-7.040998988E0,-2.967713959E0,-7.150413841E-2,7.641211012E0
1.271584333E1,-6.197245769E0,-2.329155909E0,3.930381417E-1,6.632141536E0
1.272582933E1,-5.035246729E0,-1.761521078E0,6.421464854E-1,5.372989692E0
1.273581533E1,-3.727662251E0,-1.336853008E0,7.873635480E-1,4.037645747E0
1.274580033E1,-2.396709377E0,-1.077440701E0,8.534151578E-1,2.762862959E0
1.275578633E1,-1.277953420E0,-9.094016629E-1,7.010530901E-1,1.718037183E0
1.276577133E1,-5.607073429E-1,-5.823130971E-1,1.390339243E-1,8.202509979E-1
1.277575733E1,-9.116481632E-2,-2.264679247E-1,-4.106996566E-1,4.777791881E-1
1.278574233E1,2.220678949E-1,2.548508942E-2,-7.147648108E-1,7.489007775E-1
1.279572833E1,4.429084593E-1,1.881628150E-1,-7.594881168E-1,8.991080846E-1
1.280571333E1,3.871169588E-1,3.914775199E-1,-6.837795380E-1,8.778773519E-1
1.281569933E1,-1.106617722E-1,5.531466007E-1,-6.357943627E-1,8.499715650E-1
1.282568433E1,-5.861096942E-1,6.186003327E-1,-6.453519291E-1,1.068957463E0
1.283567033E1,-7.791645822E-1,6.919168156E-1,-5.844654572E-1,1.194757798E0
1.284565533E1,-6.750955456E-1,7.253003240E-1,-3.680076733E-1,1.056997731E0
1.285564133E1,-4.847628289E-1,8.126203036E-1,-9.168317199E-2,9.506590147E-1
1.286562633E1,-4.091092139E-1,8.157351154E-1,2.220760810E-1,9.392081309E-1
1.287561233E1,-2.675416911E-1,7.459772480E-1,5.069231915E-1,9.407612519E-1
1.288559733E1,-1.473787782E-1,7.319070929E-1,7.173434329E-1,1.035369546E0
1.289558333E1,-6.044266820E-2,7.319860303E-1,6.996085355E-1,1.014351501E0
1.290556833E1,5.139030129E-2,5.879463047E-1,5.090936780E-1,7.794217044E-1
1.291555433E1,-7.550801933E-3,4.152780265E-1,2.148528694E-1,4.676265704E-1
1.292553933E1,-2.777807504E-1,2.474483192E-1,-5.606105715E-2,3.762122514E-1
1.293552533E1,-6.131288007E-1,-5.730037451E-2,-2.578706887E-1,6.676133247E-1
1.294551033E1,-1.057754003E0,-4.297206491E-1,-4.121483043E-1,1.213824366E0
1.295549633E1,-1.622377518E0,-8.203643560E-1,-4.767261234E-1,1.879461169E0
1.296548133E1,-2.333730771E0,-1.318490412E0,-4.897335470E-1,2.724803704E0
1.297546733E1,-3.171103800E0,-1.882353204E0,-5.114113681E-1,3.722995365E0
1.298545233E1,-4.103201431E0,-2.510909007E0,-4.310285251E-1,4.829773453E0
1.299543833E1,-5.177693088E0,-3.031524623E0,-5.048918688E-1,6.021093178E0
1.300542433E1,-6.500523888E0,-3.528306988E0,-6.063305354E-1,7.421145312E0
1.301540933E1,-8.040965250E0,-4.053177039E0,-8.060620666E-1,9.040746779E0
1.302539533E1,-9.510034329E0,-4.537026533E0,-1.086030260E0,1.059267787E1
1.303538033E1,-1.055659471E1,-4.955132273E0,-1.348291039E0,1.173937462E1
1.304536633E1,-1.106012535E1,-5.409222363E0,-1.523200847E0,1.240589377E1
1.305535133E1,-1.090711073E1,-5.938589507E0,-1.591058662E0,1.252051826E1
1.306533733E1,-1.016603462E1,-6.410966763E0,-1.396994252E0,1.209960114E1
1.307532233E1,-9.264029687E0,-6.706499661E0,-9.502204907E-1,1.147616237E1
1.308530833E1,-8.479251485E0,-7.032987133E0,-4.693771966E-1,1.102637423E1
1.309529333E1,-7.951783517E0,-7.356583741E0,-3.957863331E-2,1.083290136E1
1.310527933E1,-7.657593141E0,-7.444680816E0,4.336002767E-1,1.068877983E1
1.311526433E1,-7.360953950E0,-7.705166672E0,1.022813527E0,1.070511018E1
1.312525033E1,-7.008136466E0,-8.187087169E0,1.537800175E0,1.088610134E1
1.313523504E1,-6.571295663E0,-8.539599429E0,2.182886056E0,1.099416557E1
1.314522104E1,-6.011870906E0,-8.907752405E0,3.031383705E0,1.116601683E1
1.315520604E1,-5.547190924E0,-9.417028517E0,3.694142210E0,1.153682972E1
1.316519204E1,-5.372525822E0,-9.796230392E0,4.175154051E0,1.192736664E1
1.317517704E1,-5.306930587E0,-1.012612854E1,4.732332891E0,1.237323588E1
1.318516304E1,-5.189132581E0,-1.053456357E1,5.100699291E0,1.280317382E1
1.319514804E1,-5.358638685E0,-1.081076382E1,5.297907749E0,1.317783933E1
1.320513404E1,-5.752787213E0,-1.103915607E1,5.507961370E0,1.361231670E1
1.321511904E1,-5.744815704E0,-1.175274442E1,5.560020300E0,1.421420890E1
1.322510504E1,-5.594276798E0,-1.256671660E1,5.285270162E0,1.473609106E1
1.323509004E1,-5.646021733E0,-1.348246775E1,4.675930064E0,1.534662243E1
1.324507604E1,-5.612388548E0,-1.477298333E1,3.944409765E0,1.628798054E1
1.325506204E1,-5.264116690E0,-1.586153491E1,3.645337256E0,1.710519506E1
1.326504704E1,-4.457048902E0,-1.604650690E1,4.547483693E0,1.726369823E1
1.327503304E1,-3.380663039E0,-1.600374855E1,5.996474018E0,1.742143940E1
1.328501804E1,-1.593708912E0,-1.625821236E1,6.681189988E0,1.764958007E1
1.329500404E1,1.230135475E0,-1.632173417E1,6.287668866E0,1.753416720E1
1.330498904E1,5.863786662E0,-1.562806494E1,4.435188794E0,1.727111194E1
1.331497504E1,1.236608226E1,-1.374018612E1,1.645027877E0,1.855852423E1
1.332496004E1,1.792701589E1,-1.075824647E1,4.770810494E-1,2.091280403E1
1.333494604E1,1.899672423E1,-7.703734104E0,2.278581295E0,2.062559050E1
1.334493104E1,1.544434075E1,-6.614859173E0,6.286797631E0,1.793900353E1
1.335491704E1,1.086057391E1,-6.918651263E0,9.020542272E0,1.572227668E1
1.336490204E1,8.846053171E0,-7.304743497E0,9.113070366E0,1.465127932E1
1.337488804E1,1.016220119E1,-8.386219946E0,7.308531323E0,1.506697209E1
1.338487304E1,1.410223987E1,-9.267925687E0,4.289311873E0,1.741165736E1
1.339485904E1,1.956647459E1,-8.986758229E0,1.664659027E0,2.159582925E1
1.340484404E1,2.485885262E1,-7.642180465E0,3.305238050E-1,2.600912767E1
1.341483004E1,2.740444965E1,-5.962327448E0,7.409562439E-1,2.805534219E1
1.342481504E1,2.700468488E1,-4.694209922E0,2.651142780E0,2.753755926E1
1.343480104E1,2.517354275E1,-4.315556516E0,4.549623774E0,2.594282867E1
1.344478604E1,2.289699249E1,-4.703912792E0,4.897423178E0,2.388270953E1
1.345477204E1,2.119013411E1,-5.270624056E0,3.835810890E0,2.217013096E1
1.346475704E1,2.004291040E1,-5.787643050E0,2.488743089E0,2.100973373E1
1.347474304E1,1.889198189E1,-5.852744780E0,1.667366580E0,1.984796495E1
1.348472804E1,1.747262292E1,-6.094482123E0,1.822435616E0,1.859452972E1
1.349471404E1,1.584535332E1,-6.495274842E0,2.381546669E0,1.728975366E1
1.350470004E1,1.439361364E1,-6.662440306E0,2.990327188E0,1.614020697E1
1.351468504E1,1.329026042E1,-6.862082375E0,3.802998362E0,1.543314592E1
1.352467104E1,1.235664953E1,-7.104112664E0,4.836628507E0,1.505151752E1
1.353465604E1,1.151665256E1,-7.347552717E0,5.913504952E0,1.488587780E1
1.354464204E1,1.088578945E1,-7.673853663E0,7.063454050E0,1.507583580E1
1.355462704E1,1.049458499E1,-8.571945641E0,8.352333577E0,1.591779012E1
1.356461304E1,1.014684055E1,-9.336945051E0,9.237887371E0,1.659745400E1
1.357459804E1,9.612014447E0,-9.955058895E0,9.879449719E0,1.700286876E1
1.358458404E1,8.197358973E0,-1.120674662E1,1.067850214E1,1.751622882E1
1.359456904E1,6.745246820E0,-1.230435905E1,1.095698164E1,1.780311919E1
1.360455504E1,5.228108951E0,-1.339698731E1,1.081168417E1,1.799180110E1
1.361454004E1,3.685270230E0,-1.440115538E1,1.064401527E1,1.828304006E1
1.362452604E1,2.745751898E0,-1.496652851E1,1.073781513E1,1.862355505E1
1.363451104E1,2.155091901E0,-1.519994468E1,1.101541169E1,1.889502670E1
1.364449704E1,1.493614520E0,-1.582521785E1,1.126487028E1,1.948244612E1
1.365448204E1,7.083948541E-1,-1.690314504E1,1.095315054E1,2.015414703E1
1.366446804E1,-1.311027610E-1,-1.810051214E1,1.007868424E1,2.071776058E1
1.367445304E1,-1.027441159E0,-1.927782094E1,9.066676219E0,2.132825903E1
1.368443904E1,-1.911462106E0,-2.009601949E1,7.916372194E0,2.168346456E1
1.369442404E1,-2.123180721E0,-1.988330480E1,6.094442947E0,2.090444787E1
1.370441004E1,-1.786869489E0,-1.939404371E1,4.187595756E0,1.992128992E1
1.371439504E1,-1.987523564E0,-1.951982784E1,2.743239934E0,1.981159494E1
1.372438104E1,-3.472011750E0,-1.958544997E1,1.613577751E0,1.995616069E1
1.373436604E1,-5.483068019E0,-1.869847414E1,8.993859673E-1,1.950655954E1
1.374435204E1,-6.756864068E0,-1.722251411E1,8.518276387E-1,1.852014619E1
1.375433804E1,-7.659634988E0,-1.560315814E1,1.521610697E0,1.744831944E1
1.376432304E1,-8.436017173E0,-1.385798530E1,2.328520609E0,1.639000154E1
1.377430904E1,-9.224431758E0,-1.237921510E1,3.014591964E0,1.572968126E1
1.378429404E1,-1.037696591E1,-1.145424406E1,3.126650343E0,1.576886397E1
1.379428004E1,-1.179462218E1,-1.058165003E1,2.168357771E0,1.599331751E1
1.380426504E1,-1.226132120E1,-9.167389246E0,-1.165604433E-1,1.530995132E1
1.381425104E1,-1.187168614E1,-8.383998004E0,-2.264390687E0,1.470903870E1
1.382423604E1,-1.171114265E1,-8.040719667E0,-3.922656076E0,1.473741041E1
1.383422204E1,-1.142941678E1,-7.449770232E0,-4.910295238E0,1.449971185E1
1.384420704E1,-1.086372439E1,-6.536900586E0,-5.193865317E0,1.370138000E1
1.385419304E1,-1.014393566E1,-5.686657543E0,-4.648104334E0,1.252367272E1
1.386417804E1,-9.212805154E0,-5.079214282E0,-3.581047412E0,1.111296977E1
1.387416404E1,-8.080146858E0,-4.461757080E0,-2.568253820E0,9.580812970E0
1.388414904E1,-6.851903542E0,-3.808856980E0,-1.886174068E0,8.063102768E0
1.389413504E1,-5.757221156E0,-3.388805287E0,-1.405318933E0,6.826750180E0
1.390412004E1,-4.994629630E0,-2.846238638E0,-1.033542729E0,5.840856966E0
1.391410604E1,-4.416565704E0,-2.299247401E0,-5.432534042E-1,5.008763869E0
1.392409104E1,-3.994794637E0,-1.888646563E0,1.218559742E-3,4.418752258E0
1.393407704E1,-3.768056571E0,-1.504789134E0,2.865319857E-1,4.067522740E0
1.394406204E1,-3.645436951E0,-1.106131818E0,2.561673948E-1,3.818161848E0
1.395404804E1,-3.536392226E0,-7.982490170E-1,1.427179626E-1,3.628173078E0
1.396403304E1,-3.389242659E0,-6.793640131E-1,3.157174855E-2,3.456804599E0
1.397401904E1,-3.161713172E0,-6.349409616E-1,-8.479719847E-2,3.225952692E0
1.398400404E1,-2.896581995E0,-4.491556245E-1,-3.194216967E-1,2.948551891E0
1.399399004E1,-2.563526054E0,-2.658898526E-1,-5.219923434E-1,2.629608193E0
1.400397604E1,-2.186150556E0,-2.832174915E-1,-6.559216484E-1,2.299934697E0
1.401396104E1,-1.740583368E0,-3.909337288E-1,-7.702683359E-1,1.943134826E0
1.402394704E1,-1.394433464E0,-4.193237150E-1,-9.432105562E-1,1.734913028E0
1.403393204E1,-1.205072847E0,-3.543997407E-1,-1.035867874E0,1.628134514E0
1.404391804E1,-1.029918917E0,-4.862076759E-1,-9.929659760E-1,1.510997124E0
1.405390304E1,-9.169621128E-1,-6.722713405E-1,-9.571991426E-1,1.486269986E0
1.406388904E1,-1.006561045E0,-7.567910886E-1,-8.992842257E-1,1.547452748E0
1.407387404E1,-1.288553837E0,-1.033907595E0,-7.201179367E-1,1.802194703E0
1.408386004E1,-1.793062421E0,-1.509361657E0,-5.986733142E-1,2.419019469E0
1.409384504E1,-2.472682542E0,-2.042951075E0,-6.726823997E-1,3.277241166E0
1.410383104E1,-3.305696180E0,-2.658573421E0,-8.784447491E-1,4.332124773E0
1.411381604E1,-4.326384974E0,-3.254557893E0,-1.142552663E0,5.533098645E0
1.412380204E1,-5.456319931E0,-3.666016518E0,-1.412934931E0,6.723651494E0
1.413378729E1,-6.324673555E0,-4.112537388E0,-1.598509769E0,7.711659537E0
1.414377329E1,-7.075002301E0,-4.555264583E0,-1.711250226E0,8.586877798E0
1.415375829E1,-7.802617537E0,-5.027281067E0,-1.712433118E0,9.438581596E0
1.416374429E1,-8.384607283E0,-5.649922410E0,-1.536560127E0,1.022664557E1
1.417372929E1,-8.894813687E0,-6.333985831E0,-1.230552381E0,1.098869174E1
1.418371529E1,-9.415038709E0,-6.942403237E0,-8.535014042E-1,1.172895482E1
1.419370029E1,-9.915614748E0,-7.582332458E0,-5.212240192E-1,1.249331244E1
1.420368629E1,-1.028755847E1,-8.248554270E0,-2.167877130E-1,1.318785441E1
1.421367129E1,-1.049063227E1,-9.009950041E0,6.279222563E-2,1.382882888E1
1.422365729E1,-1.057871707E1,-9.938828194E0,3.077927542E-1,1.451841235E1
1.423364229E1,-1.055417046E1,-1.081548954E1,5.834245066E-1,1.512301928E1
1.424362829E1,-1.045260666E1,-1.153673424E1,8.703065944E-1,1.559200617E1
1.425361329E1,-1.014458820E1,-1.225767020E1,1.235357623E0,1.595898672E1
1.426359929E1,-9.687150584E0,-1.316086738E1,1.784687161E0,1.643880850E1
1.427358429E1,-9.060760006E0,-1.442562831E1,2.593106825E0,1.723137624E1
1.428357029E1,-8.235447736E0,-1.564654916E1,3.588746148E0,1.804206748E1
1.429355629E1,-7.228375937E0,-1.676352757E1,4.911263537E0,1.890464982E1
1.430354129E1,-5.980549711E0,-1.746503440E1,6.667912130E0,1.962792535E1
1.431352729E1,-4.941280219E0,-1.784891580E1,8.066066177E0,2.020053141E1
1.432351229E1,-4.731496739E0,-1.822921403E1,9.403519694E0,2.105035601E1
1.433349829E1,-4.583017808E0,-1.838270812E1,1.082010650E1,2.181748644E1
1.434348329E1,-3.294440582E0,-1.873251429E1,1.169981074E1,2.233038293E1
1.435346929E1,-6.142272002E-1,-1.901054822E1,1.155080732E1,2.225307548E1
1.436345429E1,2.795805234E0,-1.805550846E1,9.935832081E0,2.079756408E1
1.437344029E1,7.389992393E0,-1.583888630E1,6.681444342E0,1.871160082E1
1.438342529E1,1.254244130E1,-1.300406260E1,1.586309553E0,1.813656130E1
1.439341129E1,1.594801172E1,-1.008816374E1,-2.112486749E0,1.898875261E1
1.440339629E1,1.473180490E1,-8.349867221E0,-1.209340437E0,1.697671530E1
1.441338229E1,9.394927796E0,-8.843989688E0,3.100819976E0,1.327011328E1
1.442336729E1,4.672468513E0,-9.899014503E0,7.059821175E0,1.302549520E1
1.443335329E1,3.624736345E0,-1.029303849E1,8.525983602E0,1.384838443E1
1.444333829E1,6.627138326E0,-1.014702883E1,8.293283715E0,1.468535704E1
1.445332429E1,1.121155771E1,-9.239594173E0,7.445418735E0,1.632493145E1
1.446330929E1,1.618934268E1,-7.912928184E0,6.465676237E0,1.914456106E1
1.447329529E1,2.009928925E1,-6.474071084E0,5.623055039E0,2.185208852E1
1.448328029E1,2.125730692E1,-5.764834231E0,5.433532746E0,2.268545105E1
1.449326629E1,2.080640239E1,-5.311609529E0,5.552305484E0,2.217989343E1
1.450325129E1,2.011101643E1,-5.186680843E0,5.264425423E0,2.142589123E1
1.451323729E1,1.993600224E1,-5.538106105E0,4.354431437E0,2.114416889E1
1.452322229E1,2.049622398E1,-5.556118453E0,3.048200297E0,2.145360517E1
1.453320829E1,2.070741839E1,-5.645449875E0,2.146579524E0,2.157025925E1
1.454319329E1,1.996786957E1,-5.818886477E0,2.049727998E0,2.089920190E1
1.455317929E1,1.868608155E1,-5.548642788E0,2.422447650E0,1.964243704E1
1.456316529E1,1.734301704E1,-5.165808622E0,3.056916157E0,1.835239917E1
1.457315029E1,1.604594089E1,-5.179269497E0,3.509630397E0,1.722250147E1
1.458313629E1,1.493151889E1,-5.422123075E0,3.627507926E0,1.629443122E1
1.459312129E1,1.414834165E1,-5.803060403E0,3.661220047E0,1.572436370E1
1.460310729E1,1.343867912E1,-6.213452497E0,3.771163489E0,1.527831020E1
1.461309229E1,1.261098236E1,-6.656910009E0,4.095642443E0,1.483663081E1
1.462307829E1,1.163088377E1,-7.264247435E0,4.741335264E0,1.450954886E1
1.463306329E1,1.077969289E1,-8.120028377E0,5.438248526E0,1.455029851E1
1.464304929E1,9.976636291E0,-8.740038473E0,6.042972246E0,1.457528929E1
1.465303429E1,9.329598024E0,-9.318319330E0,6.760317433E0,1.481804192E1
1.466302029E1,8.677556296E0,-9.994318271E0,7.417423435E0,1.517249325E1
1.467300529E1,7.780099325E0,-1.067168078E1,7.912935786E0,1.539575490E1
1.468299129E1,6.695198162E0,-1.162446001E1,8.411086400E0,1.583351267E1
1.469297629E1,6.070563503E0,-1.243488176E1,8.833608541E0,1.641678000E1
1.470296229E1,5.867912457E0,-1.297226778E1,9.342539667E0,1.702924471E1
1.471294729E1,5.669992393E0,-1.360258827E1,1.008469985E1,1.785722242E1
1.472293329E1,5.275199502E0,-1.470848035E1,1.098831920E1,1.910262503E1
1.473291829E1,4.535751255E0,-1.617465915E1,1.153340834E1,2.037675505E1
1.474290429E1,3.876028624E0,-1.739179685E1,1.141287384E1,2.116014851E1
1.475288929E1,3.375390020E0,-1.814165782E1,1.062263317E1,2.129209576E1
1.476287529E1,2.699481711E0,-1.903188705E1,9.620487648E0,2.149543460E1
1.477286029E1,1.613585645E0,-1.998611054E1,9.005452362E0,2.198059248E1
1.478284629E1,7.859046677E-1,-2.038864690E1,8.465210567E0,2.209014166E1
1.479283129E1,-9.237869829E-3,-2.052259024E1,8.255953921E0,2.212097581E1
1.480281729E1,-1.068556003E0,-2.055888508E1,8.246460382E0,2.217687256E1
1.481280229E1,-2.220994114E0,-2.037344648E1,8.031835408E0,2.201182674E1
1.482278829E1,-3.572914227E0,-2.002003843E1,7.473115826E0,2.166598982E1
1.483277429E1,-5.487494361E0,-2.001112493E1,6.995452101E0,2.189735293E1
1.484275929E1,-8.795059018E0,-1.954302491E1,6.328102947E0,2.234564326E1
1.485274529E1,-1.208669294E1,-1.730638657E1,4.579471764E0,2.160024824E1
1.486273029E1,-1.408652138E1,-1.440366851E1,2.562209261E0,2.030912769E1
1.487271629E1,-1.522425272E1,-1.233067853E1,8.063149586E-1,1.960799959E1
1.488270129E1,-1.556853093E1,-1.090171142E1,-6.493061087E-1,1.901704671E1
1.489268729E1,-1.495536032E1,-9.751864643E0,-1.585106781E0,1.792412425E1
1.490267229E1,-1.377159385E1,-8.975671324E0,-2.065342111E0,1.656759219E1
1.491265829E1,-1.248856388E1,-8.235625491E0,-2.217336973E0,1.512303998E1
1.492264329E1,-1.140393812E1,-7.449493659E0,-2.221409267E0,1.380142817E1
1.493262929E1,-1.060606333E1,-6.760620319E0,-2.229355925E0,1.277358972E1
1.494261429E1,-9.960495636E0,-6.043863947E0,-2.132734195E0,1.184433704E1
1.495260029E1,-9.401868441E0,-5.366824787E0,-2.200825313E0,1.104724267E1
1.496258529E1,-8.710973133E0,-4.616860907E0,-2.413451124E0,1.014993615E1
1.497257129E1,-7.880850944E0,-3.988895674E0,-2.480496176E0,9.174527867E0
1.498255629E1,-6.991976516E0,-3.436027400E0,-2.302398174E0,8.123734194E0
1.499254229E1,-6.069333833E0,-2.788047148E0,-1.922878502E0,6.950358395E0
1.500252729E1,-5.084906546E0,-2.163837581E0,-1.312697575E0,5.679933326E0
1.501251329E1,-4.170557554E0,-1.650497071E0,-6.125610361E-1,4.526910858E0
1.502249829E1,-3.428797903E0,-1.312550810E0,1.808456093E-2,3.671480865E0
1.503248429E1,-2.767944713E0,-1.054674566E0,3.530458179E-1,2.983034985E0
1.504246929E1,-2.208460315E0,-8.411558855E-1,3.400728929E-1,2.387569844E0
1.505245529E1,-1.841241724E0,-6.339048350E-1,2.037643558E-1,1.957939309E0
1.506244029E1,-1.688730844E0,-4.612318790E-1,9.778240263E-2,1.753313466E0
1.507242629E1,-1.670596582E0,-2.086801100E-1,7.117055476E-2,1.685083255E0
1.508241129E1,-1.640019445E0,2.494773030E-2,6.233161122E-2,1.641393127E0
1.509239729E1,-1.467676857E0,1.083407199E-1,2.302662760E-2,1.471850295E0
1.510238229E1,-1.248549526E0,8.731179357E-2,4.892862350E-2,1.252554701E0
1.511236829E1,-1.048405766E0,9.808119535E-2,1.593114835E-1,1.064967005E0
1.512235429E1,-8.976142609E-1,6.030759752E-2,2.458032051E-1,9.326133086E-1
1.513233942E1,-8.296216679E-1,-1.048920321E-1,2.638591146E-1,8.768671978E-1
1.514232542E1,-1.000741311E0,-3.811788189E-1,1.332685697E-1,1.079138997E0
1.515231042E1,-1.316857577E0,-8.037138247E-1,-5.763571233E-2,1.543823716E0
1.516229642E1,-1.789861655E0,-1.341271749E0,-2.554803470E-1,2.251196316E0
1.517228142E1,-2.395062216E0,-1.954117252E0,-4.764302543E-1,3.127600204E0
1.518226742E1,-3.196819270E0,-2.601651946E0,-6.719795644E-1,4.176098997E0
1.519225242E1,-4.220974587E0,-3.237843627E0,-9.178254542E-1,5.398394334E0
1.520223842E1,-5.493937992E0,-3.906698440E0,-1.161721298E0,6.840704915E0
1.521222342E1,-7.023700000E0,-4.538155630E0,-1.430706081E0,8.483757311E0
1.522220942E1,-8.485565309E0,-5.100062529E0,-1.727782936E0,1.004990996E1
1.523219442E1,-9.851832150E0,-5.739104143E0,-1.883285835E0,1.155606675E1
1.524218042E1,-1.115091858E1,-6.440170682E0,-1.949457021E0,1.302379231E1
1.525216542E1,-1.200908518E1,-6.997505059E0,-1.837557393E0,1.401997936E1
1.526215142E1,-1.227322496E1,-7.566890547E0,-1.373062768E0,1.448361781E1
1.527213642E1,-1.228547839E1,-8.145691806E0,-8.156523773E-1,1.476314882E1
1.528212242E1,-1.212123010E1,-8.635724730E0,-2.575460221E-1,1.488510298E1
1.529210742E1,-1.160609274E1,-9.133049718E0,2.630229628E-1,1.477102457E1
1.530209342E1,-1.086646674E1,-9.627982024E0,8.933681591E-1,1.454566065E1
1.531207842E1,-9.910693731E0,-1.003436468E1,1.815586042E0,1.421993943E1
1.532206442E1,-8.842920232E0,-1.059984189E1,2.821389141E0,1.408950400E1
1.533204942E1,-7.775036806E0,-1.130251349E1,3.869472141E0,1.425380031E1
1.534203542E1,-6.965257080E0,-1.192555537E1,4.738432707E0,1.460090482E1
1.535202042E1,-6.485245113E0,-1.251362622E1,5.179574722E0,1.501589956E1
1.536200642E1,-6.476008852E0,-1.316490079E1,5.391488342E0,1.563078533E1
1.537199142E1,-6.770452412E0,-1.383663126E1,6.038599699E0,1.654557575E1
1.538197742E1,-6.705104515E0,-1.458608761E1,6.863935942E0,1.745926673E1
1.539196242E1,-6.329276483E0,-1.520724200E1,7.822306282E0,1.823481356E1
1.540194842E1,-5.416917883E0,-1.607471621E1,9.175946646E0,1.928568115E1
1.541193342E1,-4.113834885E0,-1.672302975E1,1.026217103E1,2.004733189E1
1.542191942E1,-2.490761840E0,-1.682211199E1,1.009178668E1,1.977451655E1
1.543190542E1,1.643769264E-1,-1.628574690E1,8.787222580E0,1.850588697E1
1.544189042E1,2.684651418E0,-1.536738321E1,6.795004871E0,1.701575479E1
1.545187642E1,4.156354083E0,-1.410310759E1,4.333669728E0,1.532819677E1
1.546186142E1,5.797089812E0,-1.248590808E1,2.027958815E0,1.391462424E1
1.547184742E1,7.502575852E0,-1.105636442E1,6.952318946E-1,1.337965568E1
1.548183242E1,6.768778355E0,-1.072067343E1,1.010670760E0,1.271890933E1
1.549181842E1,4.808350203E0,-1.096807848E1,3.557067980E0,1.249286636E1
1.550180342E1,4.715629150E0,-1.070290725E1,6.270950507E0,1.327080262E1
1.551178942E1,6.386636499E0,-1.068034519E1,7.635935054E0,1.460021929E1
1.552177442E1,1.025739971E1,-9.897916396E0,7.486265044E0,1.610053297E1
1.553176042E1,1.557254797E1,-8.229071932E0,6.145297351E0,1.865439773E1
1.554174542E1,1.969706864E1,-6.722373682E0,5.259288644E0,2.146683344E1
1.555173142E1,2.102561451E1,-5.474466764E0,5.162767485E0,2.233160137E1
1.556171642E1,1.967715770E1,-5.000394400E0,5.247950892E0,2.096987048E1
1.557170242E1,1.720903628E1,-5.717411558E0,4.623687239E0,1.871411789E1
1.558168742E1,1.638063785E1,-5.985856644E0,3.185653135E0,1.772862550E1
1.559167342E1,1.693148416E1,-5.771352707E0,2.202434467E0,1.802316247E1
1.560165842E1,1.760991320E1,-5.746288033E0,2.218210255E0,1.865608013E1
1.561164442E1,1.850395130E1,-5.397046705E0,2.134758208E0,1.939282134E1
1.562162942E1,1.945654927E1,-4.879019651E0,2.240599828E0,2.018371695E1
1.563161542E1,1.973779099E1,-4.452745351E0,2.828099990E0,2.043050376E1
1.564160042E1,1.931146699E1,-4.135306153E0,3.538776428E0,2.006380953E1
1.565158642E1,1.832370153E1,-3.968877731E0,4.121135718E0,1.919619201E1
1.566157142E1,1.660043703E1,-4.137751751E0,4.272864240E0,1.763385573E1
1.567155742E1,1.446867084E1,-4.643985848E0,3.968354113E0,1.570531358E1
1.568154242E1,1.258910909E1,-5.169464301E0,3.647104577E0,1.408937191E1
1.569152842E1,1.108591625E1,-5.747794275E0,3.477590871E0,1.296257368E1
1.570151342E1,1.032110629E1,-6.079056584E0,3.335503238E0,1.243405589E1
1.571149942E1,1.026693885E1,-6.236510991E0,3.293503565E0,1.245597321E1
1.572148442E1,1.063849783E1,-6.555101214E0,3.574965723E0,1.299720616E1
1.573147042E1,1.121139984E1,-6.750904001E0,3.960646898E0,1.367321890E1
1.574145642E1,1.159874747E1,-6.970913676E0,4.808343186E0,1.436122364E1
1.575144142E1,1.138927915E1,-7.345759960E0,6.002834619E0,1.482261423E1
1.576142742E1,1.071573370E1,-8.009546406E0,7.143852096E0,1.516622581E1
1.577141242E1,9.673395009E0,-9.476658422E0,8.278097327E0,1.587162629E1
1.578139842E1,7.854446087E0,-1.121099404E1,8.868126410E0,1.631019242E1
1.579138342E1,6.016815897E0,-1.226387059E1,9.265392673E0,1.650612301E1
1.580136942E1,4.416865667E0,-1.263259835E1,9.523645477E0,1.642531785E1
1.581135442E1,3.559030598E0,-1.304766529E1,1.011906511E1,1.689093683E1
1.582134042E1,3.341630536E0,-1.349788569E1,1.068570825E1,1.753692600E1
1.583132542E1,3.550335204E0,-1.403311993E1,1.102040171E1,1.819292689E1
1.584131142E1,3.657300659E0,-1.507449851E1,1.101833296E1,1.902682356E1
1.585129642E1,3.279502115E0,-1.634080779E1,1.055998025E1,1.973044136E1
1.586128242E1,2.349388737E0,-1.772637687E1,9.845125394E0,2.041250985E1
1.587126742E1,1.000228803E0,-1.923227113E1,9.153498015E0,2.132292748E1
1.588125342E1,-4.667075041E-1,-2.076732896E1,8.651831471E0,2.250231001E1
1.589123842E1,-2.397232410E0,-2.199486769E1,8.170284026E0,2.358547156E1
1.590122442E1,-4.737193097E0,-2.179976247E1,6.972653807E0,2.337281634E1
1.591120942E1,-7.115364461E0,-2.013538762E1,5.649425397E0,2.209022982E1
1.592119542E1,-9.274528947E0,-1.777255350E1,4.878915571E0,2.063211968E1
1.593118042E1,-1.131897925E1,-1.544449862E1,4.519546574E0,1.967430126E1
1.594116642E1,-1.292078071E1,-1.352038110E1,3.821310965E0,1.908794637E1
1.595115142E1,-1.368497320E1,-1.191315225E1,2.797703240E0,1.835834501E1
1.596113742E1,-1.395585248E1,-1.045676052E1,1.459094313E0,1.749967472E1
1.597112242E1,-1.373018855E1,-9.396226462E0,5.232851627E-1,1.664574951E1
1.598110842E1,-1.325736398E1,-8.690575706E0,2.118709356E-2,1.585194798E1
1.599109342E1,-1.288608333E1,-8.146120992E0,-5.109066072E-1,1.525357192E1
1.600107942E1,-1.226117385E1,-7.742259654E0,-1.130826657E0,1.454502450E1
1.601106442E1,-1.146978947E1,-7.157629305E0,-1.878718283E0,1.364980989E1
1.602105042E1,-1.038076543E1,-6.224513090E0,-2.700219045E0,1.240145302E1
1.603103542E1,-9.112164048E0,-5.373185973E0,-3.224859300E0,1.105904058E1
1.604102142E1,-7.989497473E0,-4.837241880E0,-3.304641342E0,9.907150614E0
1.605100742E1,-6.991349695E0,-4.302160252E0,-3.219841220E0,8.817875644E0
1.606099242E1,-6.048532948E0,-3.727585360E0,-3.057500294E0,7.734853036E0
1.607097842E1,-5.255192084E0,-3.233368168E0,-2.786940562E0,6.770432132E0
1.608096342E1,-4.605368789E0,-2.826732327E0,-2.376776218E0,5.903295904E0
1.609094942E1,-4.114188057E0,-2.414546308E0,-1.881097223E0,5.127875193E0
1.610093442E1,-3.909801265E0,-2.016733330E0,-1.372508159E0,4.608420326E0
1.611092042E1,-3.796785403E0,-1.700517077E0,-1.016541950E0,4.282603795E0
1.612090542E1,-3.532360863E0,-1.425571641E0,-8.718645850E-1,3.907681618E0
1.613089129E1,-3.212253288E0,-1.142263518E0,-8.127737930E-1,3.504844985E0
1.614087629E1,-2.779754627E0,-8.438391727E-1,-7.179255232E-1,2.992409964E0
1.615086229E1,-2.194223807E0,-6.642419440E-1,-5.213014948E-1,2.351082883E0
1.616084729E1,-1.460664876E0,-4.385288948E-1,-3.394972345E-1,1.562404507E0
1.617083329E1,-6.074610946E-1,-2.740765393E-1,-1.908156967E-1,6.932081656E-1
1.618081829E1,7.141116768E-2,-1.879517305E-1,-1.286454687E-1,2.386945003E-1
1.619080429E1,3.939745733E-1,-1.649008369E-1,-2.425325650E-1,4.911520086E-1
1.620078929E1,4.393787876E-1,-2.499667150E-1,-4.402316040E-1,6.703289810E-1
1.621077529E1,2.083339548E-1,-3.306109285E-1,-6.993515503E-1,8.011237194E-1
1.622076029E1,-1.671873906E-1,-4.683684057E-1,-9.265416062E-1,1.051570224E0
1.623074629E1,-5.594250485E-1,-6.787260818E-1,-1.050429195E0,1.370046340E0
1.624073129E1,-1.011738169E0,-8.530777735E-1,-1.162350458E0,1.761367196E0
1.625071729E1,-1.329410087E0,-1.171030065E0,-1.221914874E0,2.152142781E0
1.626070229E1,-1.676836146E0,-1.581878825E0,-1.209291028E0,2.603172078E0
1.627068829E1,-2.213652350E0,-2.001598982E0,-1.062913586E0,3.168034170E0
1.628067329E1,-2.965631473E0,-2.564261926E0,-9.456529382E-1,4.032947897E0
1.629065929E1,-4.035196851E0,-3.191252428E0,-9.378176692E-1,5.229379281E0
1.630064429E1,-5.428100098E0,-3.750069074E0,-9.669704247E-1,6.668007239E0
1.631063029E1,-6.964337897E0,-4.291401960E0,-9.910782024E-1,8.240168028E0
1.632061529E1,-8.390574952E0,-4.834811777E0,-1.111387003E0,9.747427046E0
1.633060129E1,-9.547375817E0,-5.261312365E0,-1.297484874E0,1.097803533E1
1.634058629E1,-1.026398133E1,-5.661066034E0,-1.480286669E0,1.181474630E1
1.635057229E1,-1.040278955E1,-6.001900819E0,-1.627095344E0,1.211974765E1
1.636055729E1,-1.011588539E1,-6.441139566E0,-1.589446877E0,1.209734506E1
1.637054329E1,-9.750061362E0,-7.077837031E0,-1.199568863E0,1.210778423E1
1.638052929E1,-9.619195998E0,-7.597558608E0,-7.629607782E-1,1.228144689E1
1.639051429E1,-9.486508057E0,-8.111064010E0,-2.747839062E-1,1.248433822E1
1.640050029E1,-9.339102674E0,-8.725839095E0,3.813061421E-1,1.278688786E1
1.641048529E1,-9.368330566E0,-9.349814773E0,1.219929306E0,1.329183514E1
1.642047129E1,-9.347359527E0,-9.930305293E0,2.176237625E0,1.381014495E1
1.643045629E1,-9.228032473E0,-1.055123866E1,2.934505867E0,1.432119218E1
1.644044229E1,-9.242696705E0,-1.131226431E1,3.298868093E0,1.497589052E1
1.645042729E1,-9.449405134E0,-1.234123978E1,3.607356666E0,1.595651838E1
1.646041329E1,-9.817075131E0,-1.357058295E1,4.020544898E0,1.722499542E1
1.647039829E1,-9.414706002E0,-1.471444451E1,5.180262939E0,1.822050193E1
1.648038429E1,-8.325191971E0,-1.548109284E1,7.036000788E0,1.893352487E1
1.649036929E1,-7.053455311E0,-1.617034274E1,8.429817370E0,1.955231539E1
1.650035529E1,-6.047797369E0,-1.683625172E1,8.952243285E0,2.000444663E1
