"Time (s)","Linear Acceleration x (m/s^2)","Linear Acceleration y (m/s^2)","Linear Acceleration z (m/s^2)","Absolute acceleration (m/s^2)"
5.375999957E-3,2.952194864E-1,-5.089107332E-1,-7.135379188E-1,9.248140576E-1
1.536199998E-2,9.789876223E-2,-4.976059823E-1,-8.453027308E-1,9.857649760E-1
2.534800000E-2,7.222656190E-2,-4.305360068E-1,-6.851040785E-1,8.123703144E-1
3.533399996E-2,1.276096344E-2,-3.523940726E-1,-1.632624471E-1,3.885859638E-1
4.531999998E-2,-2.354001313E-1,-1.918393615E-1,3.431146145E-1,4.581955926E-1
5.530599999E-2,-4.568458825E-1,1.356046055E-2,5.576220596E-1,7.209954284E-1
6.529199996E-2,-7.044099766E-1,1.943370727E-1,5.188912725E-1,8.962189831E-1
7.527799997E-2,-9.234244555E-1,2.989317739E-1,5.015694809E-1,1.092540560E0
8.526399999E-2,-9.516092044E-1,4.083547769E-1,7.496715188E-1,1.278405682E0
9.524999995E-2,-7.923468375E-1,5.686841145E-1,1.110266969E0,1.477805087E0
1.052350000E-1,-7.306505263E-1,7.088276211E-1,1.311508251E0,1.660223082E0
1.152210000E-1,-8.464312434E-1,7.041409316E-1,1.583220469E0,1.928431320E0
1.252069999E-1,-7.652449930E-1,6.274610572E-1,1.710605570E0,1.976228402E0
1.351930000E-1,-7.577880388E-1,5.223917813E-1,1.482621463E0,1.745079450E0
1.451790000E-1,-3.049422365E-1,4.504701517E-1,7.127440131E-1,8.966142723E-1
1.551649999E-1,1.305479187E0,5.799738454E-1,-4.763542405E-1,1.505841603E0
1.651510000E-1,1.129034193E0,4.397570293E-1,-2.241705537E-2,1.211860956E0
1.751370000E-1,1.013413104E0,3.903666951E-2,5.888622710E-1,1.172727059E0
1.851229999E-1,1.099211639E0,-1.376624599E-2,1.120087660E0,1.569411387E0
1.951090000E-1,1.285158359E0,-4.787919447E-2,1.113544041E0,1.701148070E0
2.050940000E-1,1.513133111E0,-9.098106757E-2,9.059865966E-1,1.765973125E0
2.150800000E-1,1.757889957E0,-7.559835881E-2,7.504600158E-1,1.912872826E0
2.250660000E-1,1.597136550E0,-1.047632472E-1,5.091620904E-1,1.679603087E0
2.350520000E-1,1.364030866E0,-3.044041465E-1,2.547596776E-1,1.420614156E0
2.450380000E-1,1.241251616E0,-4.263383272E-1,-4.822257221E-2,1.313314647E0
2.550240000E-1,1.215249048E0,-4.184194431E-1,-6.400967440E-1,1.435837359E0
2.650100000E-1,1.321273686E0,-1.788572636E-1,-1.211572027E0,1.801571772E0
2.749959166E-1,1.452081748E0,2.247377336E-3,-1.646199367E0,2.195112482E0
2.849819167E-1,1.452119170E0,-1.183650403E-1,-1.902949145E0,2.396638440E0
2.949679166E-1,1.388611976E0,-4.074269700E-1,-2.004975749E0,2.472684312E0
3.049539166E-1,1.333613650E0,-5.314648327E-1,-2.014164648E0,2.473426665E0
3.149389167E-1,1.299869369E0,-5.818782835E-1,-1.986442999E0,2.444217359E0
3.249249166E-1,1.287176818E0,-6.061394776E-1,-2.178191911E0,2.601682000E0
3.349109166E-1,1.332539517E0,-4.541105551E-1,-2.509121220E0,2.877076165E0
3.448969166E-1,1.270266670E0,-3.500942896E-1,-2.845387576E0,3.135661634E0
3.548829166E-1,9.683304870E-1,-3.512586895E-1,-3.010970491E0,3.182293182E0
3.648689166E-1,6.304818749E-1,-4.916671481E-1,-3.067300227E0,3.169790949E0
3.748549166E-1,2.870971191E-1,-6.382670040E-1,-3.037272436E0,3.116862746E0
3.848409166E-1,7.880467951E-2,-5.755764469E-1,-3.000696933E0,3.056416285E0
3.948269166E-1,-9.544936359E-2,-5.507252322E-1,-3.111599318E0,3.161401458E0
4.048129166E-1,-3.474251819E-1,-5.196684406E-1,-3.293302129E0,3.352103587E0
4.147979167E-1,-6.319027483E-1,-4.417564482E-1,-3.437370506E0,3.522778142E0
4.247839166E-1,-1.007596294E0,-3.582519595E-1,-3.400731268E0,3.564907841E0
4.347699166E-1,-1.479834387E0,-3.743388923E-1,-3.185564257E0,3.532401316E0
4.447559167E-1,-2.173041099E0,-4.772202497E-1,-2.804514661E0,3.579825313E0
4.547419166E-1,-2.955626010E0,-6.122371734E-1,-2.333719661E0,3.815338376E0
4.647279166E-1,-3.505878823E0,-7.603640297E-1,-1.880677392E0,4.050467533E0
4.747139167E-1,-3.860908894E0,-9.687001772E-1,-1.655550234E0,4.311130258E0
4.846999166E-1,-4.087121295E0,-9.313138843E-1,-1.637088820E0,4.500218421E0
4.946859166E-1,-4.028426360E0,-8.058782447E-1,-1.725987548E0,4.456084795E0
5.046719167E-1,-3.865453350E0,-9.125753854E-1,-1.822665412E0,4.369969409E0
5.146579166E-1,-3.757613152E0,-1.035906320E0,-1.923929831E0,4.346753328E0
5.246429166E-1,-3.742445474E0,-1.165440273E0,-2.027669962E0,4.413116204E0
5.346289166E-1,-3.860943393E0,-1.234560940E0,-2.080562705E0,4.556288596E0
5.446149166E-1,-4.014591848E0,-1.362040474E0,-2.052434675E0,4.710052022E0
5.546009166E-1,-4.102658517E0,-1.455037515E0,-1.778759254E0,4.702438257E0
5.645869166E-1,-4.093870152E0,-1.515953808E0,-1.015178964E0,4.482017079E0
5.745729167E-1,-3.964184756E0,-1.769264984E0,2.296435475E-2,4.341150392E0
5.845589166E-1,-3.534298630E0,-2.234467415E0,1.097715921E0,4.323088211E0
5.945449166E-1,-3.344260029E0,-2.673646666E0,2.061334137E0,4.752005898E0
6.045309167E-1,-3.220464533E0,-2.986151107E0,2.742347065E0,5.177736732E0
6.145169166E-1,-2.824223871E0,-3.239597207E0,3.298126082E0,5.417459385E0
6.245019166E-1,-2.519128438E0,-3.488737418E0,3.834757807E0,5.763910504E0
6.344879167E-1,-2.386031191E0,-3.561903043E0,4.454976064E0,6.182807604E0
6.444739166E-1,-2.227200934E0,-3.379719591E0,5.609557326E0,6.917373917E0
6.544599166E-1,-1.970081905E0,-3.279453291E0,6.984823033E0,7.963905411E0
6.644459167E-1,-1.878125668E0,-3.531725271E0,8.518948817E0,9.411319162E0
6.744319166E-1,-1.535628519E0,-3.952970381E0,9.922902718E0,1.079111339E1
6.844179166E-1,-6.941194618E-1,-3.792715741E0,1.084001510E1,1.150532146E1
6.944039167E-1,-3.285766822E-1,-2.954433470E0,1.144693972E1,1.182662541E1
7.043899166E-1,-4.176812321E-1,-3.124092771E0,1.159217754E1,1.201303431E1
7.143759166E-1,-7.080235559E-1,-3.710364726E0,1.137464006E1,1.198543034E1
7.243619167E-1,-1.095626711E0,-4.108879954E0,1.090603485E1,1.170576304E1
7.343469167E-1,-4.026538879E-1,-4.573788562E0,9.919272766E0,1.093040000E1
7.443329166E-1,1.160174124E0,-4.857947456E0,8.812201885E0,1.012919343E1
7.543189166E-1,2.955153555E0,-5.838051896E0,7.281573320E0,9.789642102E0
7.643049167E-1,4.484707401E0,-5.359611077E0,5.603294958E0,8.957396149E0
7.742909166E-1,5.913276910E0,-5.061178545E0,4.117778247E0,8.805593096E0
7.842769166E-1,7.944801942E0,-4.773884960E0,3.160077413E0,9.792647485E0
7.942629167E-1,9.426346055E0,-4.442330875E0,2.837429223E0,1.080006056E1
8.042489166E-1,1.000723594E1,-4.563471150E0,2.631252306E0,1.130900211E1
8.142349166E-1,1.005842714E1,-4.778114251E0,2.233173864E0,1.135734995E1
8.242209167E-1,9.868815973E0,-4.874858773E0,1.614602768E0,1.112495927E1
8.342059166E-1,9.434224008E0,-4.510319960E0,1.189441485E0,1.052436886E1
8.441919166E-1,8.812876654E0,-4.789884111E0,6.292291090E-1,1.005015990E1
8.541779167E-1,7.726624199E0,-5.072775913E0,-1.694961637E-2,9.243054921E0
8.641639166E-1,6.563903612E0,-5.022250122E0,-4.085043195E-1,8.274944272E0
8.741499166E-1,5.935788690E0,-5.074112586E0,-3.449062014E-1,7.816595564E0
8.841359167E-1,4.820707124E0,-5.450335305E0,-4.936722314E-1,7.293084696E0
8.941219166E-1,3.592384871E0,-6.071058177E0,-1.057663078E0,7.133135891E0
9.041079166E-1,2.633734449E0,-6.291985281E0,-2.172942281E0,7.158722936E0
9.140939167E-1,1.788101935E0,-6.028365317E0,-3.538034416E0,7.214997190E0
9.240799166E-1,9.159452820E-1,-5.834016148E0,-4.758384576E0,7.583991294E0
9.340659166E-1,2.772960162E-1,-5.617556317E0,-5.637334524E0,7.963251384E0
9.440509166E-1,-7.783164436E-1,-5.399570948E0,-6.620707558E0,8.578747664E0
9.540369167E-1,-2.022399867E0,-5.053792927E0,-7.754431803E0,9.474288192E0
9.640229166E-1,-2.962848490E0,-4.329093989E0,-8.727947016E0,1.018315202E1
9.740089166E-1,-3.644904562E0,-3.429175926E0,-9.419168013E0,1.066608189E1
9.839949167E-1,-4.204822823E0,-2.582855195E0,-9.639860643E0,1.082952396E1
9.939809166E-1,-4.435910633E0,-2.027828129E0,-9.215317118E0,1.042647878E1
1.003966917E0,-4.316824484E0,-1.625459585E0,-8.152445925E0,9.366934774E0
1.013952917E0,-4.018354531E0,-1.353556456E0,-6.804715927E0,8.017695870E0
1.023938917E0,-3.664485133E0,-1.245590835E0,-5.495409152E0,6.721567493E0
1.033924917E0,-3.066298599E0,-1.155628206E0,-4.453463974E0,5.529105264E0
1.043909917E0,-2.343274596E0,-9.971534595E-1,-3.622423772E0,4.428002353E0
1.053895917E0,-1.731337751E0,-7.971880397E-1,-2.965059907E0,3.524857363E0
1.063881917E0,-1.327393967E0,-6.441044256E-1,-2.387648531E0,2.806725986E0
1.073867917E0,-9.750571239E-1,-4.608699363E-1,-1.849512902E0,2.140989367E0
1.083853917E0,-7.865528315E-1,-5.136720479E-1,-1.296714796E0,1.601247511E0
1.093839917E0,-5.849747497E-1,-7.222106552E-1,-1.036413054E0,1.392097592E0
1.103825917E0,-2.383751947E-1,-8.641421673E-1,-1.137173444E0,1.448008239E0
1.113811917E0,3.699258524E-1,-9.888124064E-1,-1.522164720E0,1.852452576E0
1.123797917E0,9.793630135E-1,-7.378835320E-1,-2.098587917E0,2.430575089E0
1.133783917E0,1.193337777E0,-5.555927834E-1,-2.379053124E0,2.718939528E0
1.143768917E0,1.147162900E0,-6.071254644E-1,-1.910645542E0,2.309794458E0
1.153754917E0,9.411479509E-1,-6.678786197E-1,-1.063048364E0,1.569042109E0
1.163740917E0,7.060922205E-1,-7.377396905E-1,-1.645849411E-1,1.034366607E0
1.173726917E0,4.532340574E-1,-8.371724698E-1,6.234674089E-1,1.137976478E0
1.183712917E0,2.877549309E-1,-8.463207310E-1,1.126001827E0,1.437686264E0
1.193698917E0,3.104386193E-1,-7.319073853E-1,1.235081635E0,1.468838725E0
1.203684917E0,5.389881527E-1,-6.387790740E-1,1.114064151E0,1.392726056E0
1.213670917E0,6.856860226E-1,-4.685379750E-1,9.563986588E-1,1.266645787E0
1.223656917E0,8.464581406E-1,-4.133501995E-1,9.524225521E-1,1.339573995E0
1.233642917E0,1.186712297E0,-4.863114640E-1,1.117031028E0,1.700747846E0
1.243628917E0,1.653410738E0,-4.737025282E-1,1.120701910E0,2.052835582E0
1.253613917E0,2.133932582E0,-3.877405643E-1,1.082361717E0,2.423946760E0
1.263599917E0,2.491348901E0,-1.307969517E-1,1.038036314E0,2.702118905E0
1.273585750E0,2.532284088E0,-1.242416382E-2,1.004116324E0,2.724126769E0
1.283571750E0,2.417164106E0,-2.468402088E-2,8.094651461E-1,2.549220556E0
1.293557750E0,2.197398260E0,-3.518591255E-2,4.654164389E-1,2.246421515E0
1.303543750E0,1.858352138E0,2.006033510E-2,2.768919736E-2,1.858666667E0
1.313529750E0,1.314979743E0,3.905238390E-2,-4.543882978E-1,1.391820944E0
1.323515750E0,7.336489785E-1,9.008220434E-2,-9.106301630E-1,1.172860998E0
1.333501750E0,2.391142827E-1,1.411114401E-1,-1.260131106E0,1.290355952E0
1.343487750E0,-1.514387923E-1,4.523406029E-3,-1.568743933E0,1.576043050E0
1.353472750E0,-1.227190232E-1,-2.124442551E-1,-1.888632237E0,1.904501049E0
1.363458750E0,1.953829569E-1,-3.444267297E-1,-2.221568018E0,2.256583420E0
1.373444750E0,1.118992184E0,-5.031128535E-1,-2.601191478E0,2.876015153E0
1.383430750E0,2.323434994E0,-3.765644887E-1,-2.705562523E0,3.586114827E0
1.393416750E0,3.156843318E0,-5.670164886E-1,-2.709326668E0,4.198525745E0
1.403402750E0,3.625338024E0,-8.836511099E-1,-2.643931409E0,4.573214227E0
1.413388750E0,3.743313786E0,-1.014243117E0,-2.314445484E0,4.516386288E0
1.423374750E0,3.529969352E0,-1.115082444E0,-1.749944760E0,4.094679370E0
1.433360750E0,3.083123962E0,-1.378651536E0,-1.370108754E0,3.644657930E0
1.443346750E0,2.686295071E0,-1.508393943E0,-1.418860792E0,3.391843074E0
1.453331750E0,2.547535381E0,-1.440061919E0,-1.502710741E0,3.289658709E0
1.463317750E0,2.801844823E0,-1.425935046E0,-1.312263127E0,3.406708042E0
1.473303750E0,2.768574750E0,-1.665354553E0,-1.208588485E0,3.449506930E0
1.483289750E0,2.601445540E0,-1.920605982E0,-1.672551014E0,3.640559452E0
1.493275750E0,2.291934289E0,-1.894788186E0,-2.254838383E0,3.731954071E0
1.503261750E0,1.558033295E0,-2.167000194E0,-2.590446342E0,3.719377615E0
1.513247750E0,3.605451643E-1,-2.383508556E0,-2.596891143E0,3.543296412E0
1.523233750E0,-1.129778543E0,-2.706104853E0,-2.418583226E0,3.801177166E0
1.533219750E0,-2.529175708E0,-2.831725264E0,-2.030596493E0,4.305661372E0
1.543205750E0,-3.865084391E0,-2.786565756E0,-1.462130188E0,4.984139920E0
1.553191750E0,-5.382287164E0,-2.999337455E0,-4.943967015E-1,6.181380783E0
1.563176750E0,-6.717951432E0,-3.070178812E0,5.824469984E-1,7.409191176E0
1.573162750E0,-7.627099911E0,-2.678459802E0,1.380236424E0,8.200722684E0
1.583148750E0,-8.323840095E0,-2.389908480E0,2.264293331E0,8.951256937E0
1.593134750E0,-8.530352057E0,-2.210473804E0,2.890485688E0,9.274050257E0
1.603120750E0,-7.982555659E0,-1.646820780E0,3.529674067E0,8.882106313E0
1.613106750E0,-7.349795124E0,-1.524149558E0,4.002320296E0,8.506532078E0
1.623092750E0,-6.845081595E0,-1.500583524E0,4.000404164E0,8.069084609E0
1.633078750E0,-6.613494433E0,-1.404218633E0,3.924001520E0,7.817155910E0
1.643064750E0,-6.359036472E0,-1.454284832E0,3.794672220E0,7.546643392E0
1.653050750E0,-6.002877889E0,-1.407222932E0,3.420054561E0,7.050644831E0
1.663035750E0,-6.004650764E0,-1.302158554E0,2.966460316E0,6.822853839E0
1.673021750E0,-6.003584817E0,-1.244537021E0,2.816849363E0,6.747336021E0
1.683007750E0,-5.880133722E0,-1.431845704E0,2.683651544E0,6.620282496E0
1.692993750E0,-5.585173268E0,-1.595702959E0,2.575685631E0,6.354099844E0
1.702979750E0,-5.004686841E0,-1.712731472E0,2.674808800E0,5.927473457E0
1.712965750E0,-4.283263221E0,-1.822052916E0,2.890006801E0,5.478901346E0
1.722951750E0,-3.519069557E0,-1.860948595E0,3.293303298E0,5.166510121E0
1.732937750E0,-2.598519593E0,-1.850502690E0,4.038323357E0,5.146330714E0
1.742923750E0,-1.045679210E0,-1.875453344E0,5.035391740E0,5.474115474E0
1.752909750E0,5.349822253E-1,-1.870170823E0,6.054101837E0,6.358922388E0
1.762894750E0,1.569811926E0,-1.854989551E0,7.079813390E0,7.485255731E0
1.772880750E0,1.842528403E0,-1.875711937E0,7.799101607E0,8.230382255E0
1.782866750E0,1.211789251E0,-1.962962627E0,7.986850439E0,8.313328779E0
1.792852750E0,1.128810829E-1,-1.790207518E0,7.935086793E0,8.135305004E0
1.802838750E0,-7.745560992E-1,-2.097288081E0,7.512230190E0,7.837866857E0
1.812824750E0,-1.094895809E0,-2.910782543E0,6.745788857E0,7.428130259E0
1.822810750E0,-9.730831039E-1,-3.965753564E0,5.251253400E0,6.652048882E0
1.832796750E0,6.174659729E-4,-4.194883433E0,3.465791482E0,5.441393020E0
1.842782750E0,1.532175446E0,-4.205082732E0,2.174376018E0,4.975760589E0
1.852768750E0,2.716695622E0,-4.070392411E0,1.384853386E0,5.085897009E0
1.862754750E0,2.536837900E0,-3.751346398E0,2.036587551E0,4.965464246E0
1.872739750E0,1.387044337E0,-3.889531599E0,4.074559137E0,5.801239542E0
1.882725750E0,1.243898359E0,-5.681773948E0,6.456552241E0,8.690046327E0
1.892711750E0,3.561914153E0,-8.381201280E0,6.628623519E0,1.126367689E1
1.902697750E0,5.928219470E0,-7.464644964E0,4.599110515E0,1.058378609E1
1.912683750E0,7.699316533E0,-6.664154710E0,2.465951520E0,1.047718235E1
1.922669750E0,8.977325501E0,-6.024648242E0,1.295002731E0,1.088879202E1
1.932655750E0,8.783876803E0,-6.212865436E0,1.301536410E0,1.083744369E1
1.942641750E0,7.646077049E0,-6.503736933E0,1.781322674E0,1.019481235E1
1.952627750E0,7.633191540E0,-7.774126394E0,9.553338808E-1,1.093687876E1
1.962613750E0,9.206749778E0,-7.815888378E0,-1.746939876E0,1.220262888E1
1.972598750E0,1.063324820E1,-7.043414472E0,-4.374665142E0,1.348381807E1
1.982584750E0,1.154007885E1,-6.711973239E0,-5.276354327E0,1.435492666E1
1.992570750E0,1.126637770E1,-7.092783099E0,-4.475939209E0,1.404538609E1
2.002556750E0,1.022597794E1,-7.648692509E0,-3.384763399E0,1.321097064E1
2.012542750E0,9.374515750E0,-8.045154195E0,-2.586664071E0,1.262128688E1
2.022528750E0,8.988066251E0,-8.559624973E0,-2.032319229E0,1.257707582E1
2.032514750E0,7.478099408E0,-8.717172351E0,-1.481567502E0,1.158041911E1
2.042500750E0,4.706927324E0,-9.725336410E0,-1.161705071E0,1.086677927E1
2.052486750E0,1.456646669E0,-1.051960874E1,-1.200503540E0,1.068761883E1
2.062472750E0,-1.436791863E0,-1.043169234E1,-2.292327222E0,1.077679637E1
2.072457750E0,-3.711723034E0,-9.806949508E0,-4.242792887E0,1.131169475E1
2.082443750E0,-5.813601179E0,-8.851888692E0,-6.381247120E0,1.236423095E1
2.092429750E0,-7.761616861E0,-7.608691707E0,-8.695658106E0,1.391938776E1
2.102415750E0,-9.095594208E0,-5.967212212E0,-1.103332405E1,1.549424717E1
2.112401750E0,-9.352479934E0,-4.075673324E0,-1.291033992E1,1.645469145E1
2.122387750E0,-8.759444797E0,-2.523255110E0,-1.388277632E1,1.660801517E1
2.132373750E0,-7.849673590E0,-1.438475569E0,-1.336797225E1,1.556885576E1
2.142359750E0,-6.699798167E0,-9.391932267E-1,-1.159002810E1,1.342006448E1
2.152345750E0,-5.593507304E0,-9.758830431E-1,-9.044245715E0,1.067886006E1
2.162331750E0,-4.495508378E0,-9.666482431E-1,-6.252223629E0,7.761076260E0
2.172317750E0,-3.325298093E0,-8.810037830E-1,-3.971461031E0,5.254167659E0
2.182302750E0,-2.448887590E0,-8.580093151E-1,-2.373895880E0,3.516903761E0
2.192288750E0,-1.684226149E0,-7.270433789E-1,-1.309959324E0,2.254152441E0
2.202274750E0,-7.373257077E-1,-6.595904839E-1,-8.991070551E-1,1.336825457E0
2.212260750E0,2.967374235E-1,-4.340458345E-1,-8.414347976E-1,9.922002841E-1
2.222246750E0,1.196823303E0,-2.500783968E-1,-7.968339908E-1,1.459407288E0
2.232232750E0,1.720135655E0,-3.710920796E-1,-6.884792376E-1,1.889597752E0
2.242218750E0,1.977485649E0,-4.062730220E-1,-5.312324059E-1,2.087514103E0
2.252204750E0,2.028603762E0,-3.482429150E-1,-1.538063300E-1,2.064016168E0
2.262190750E0,1.980896330E0,-3.874935195E-1,5.727744977E-1,2.098135392E0
2.272176667E0,1.690289127E0,-4.929290503E-1,1.417504238E0,2.260392587E0
2.282161667E0,1.022714270E0,-6.854530111E-1,2.289229367E0,2.599300176E0
2.292147667E0,4.528890717E-1,-8.346689844E-1,2.647775953E0,2.812916337E0
2.302133667E0,-8.724045753E-2,-7.840820906E-1,2.163380914E0,2.302740237E0
2.312119667E0,-3.863553590E-1,-5.961870781E-1,1.448031381E0,1.612917970E0
2.322105667E0,-4.230296803E-1,-4.736241755E-1,6.063786288E-1,8.780484106E-1
2.332091667E0,-3.143147385E-1,-4.128911930E-1,1.448764622E-1,5.387597623E-1
2.342077667E0,-1.857192636E-1,-3.090352875E-1,1.601716089E-1,3.945242680E-1
2.352063667E0,-2.139794415E-1,-2.937225991E-1,6.307240959E-1,7.279237953E-1
2.362049667E0,-5.024851549E-1,-2.760181072E-1,1.295951442E0,1.417098256E0
2.372035667E0,-8.695201439E-1,-2.105161357E-1,1.895618198E0,2.096127543E0
2.382020667E0,-1.248374110E0,-3.774284148E-1,2.398167672E0,2.729853166E0
2.392006667E0,-1.467883263E0,-5.009745267E-1,2.605513448E0,3.032219826E0
2.401992667E0,-1.335578899E0,-2.843904430E-1,2.307338194E0,2.681130072E0
2.411978667E0,-7.616770220E-1,2.685713857E-2,1.665407617E0,1.831517328E0
2.421964667E0,6.839838982E-2,2.703778830E-1,1.129759393E0,1.163674708E0
2.431950667E0,7.200460160E-1,3.556051442E-1,9.101616548E-1,1.213802093E0
2.441936667E0,1.117580082E0,2.078623769E-1,9.573343594E-1,1.486163209E0
2.451922667E0,1.567063735E0,-1.769715366E-1,1.108207872E0,1.927467863E0
2.461908667E0,2.074238942E0,-3.828736344E-1,1.023035575E0,2.344282661E0
2.471894667E0,2.368625785E0,-3.254232788E-1,6.711916521E-1,2.483301563E0
2.481879667E0,2.408728913E0,-1.705249813E-1,3.203002408E-1,2.435907632E0
2.491865667E0,2.137945526E0,-2.691476288E-1,-3.530197978E-2,2.155109683E0
2.501851667E0,1.831550256E0,-5.010145801E-1,-4.113753024E-1,1.942890010E0
2.511837667E0,1.719111807E0,-5.350424516E-1,-8.122823346E-1,1.975200856E0
2.521823667E0,1.855616226E0,-4.818465301E-1,-1.198462862E0,2.260929209E0
2.531809667E0,2.213495060E0,-4.329980135E-1,-1.441976005E0,2.677002514E0
2.541795667E0,2.475355012E0,-4.763051239E-1,-1.436046636E0,2.901116845E0
2.551781667E0,2.513611005E0,-7.667430496E-1,-1.505268898E0,3.028525985E0
2.561767667E0,2.685424420E0,-1.058770833E0,-1.782307637E0,3.392509470E0
2.571753667E0,2.993634081E0,-1.081786644E0,-2.166181730E0,3.850253322E0
2.581739667E0,3.221429908E0,-1.273472406E0,-2.810736391E0,4.460894718E0
2.591724667E0,3.516404981E0,-1.475373839E0,-3.649845459E0,5.278560772E0
2.601710667E0,3.620306495E0,-1.508689373E0,-4.261613028E0,5.791727578E0
2.611696667E0,3.357063092E0,-1.760465655E0,-4.378454137E0,5.791370525E0
2.621682667E0,2.704538383E0,-2.101137449E0,-3.994138287E0,5.261411133E0
2.631668667E0,1.911640738E0,-2.506163991E0,-3.282359065E0,4.550726238E0
2.641654667E0,1.348711746E0,-2.804647686E0,-2.569464778E0,4.035742963E0
2.651640667E0,7.104337782E-1,-3.051467137E0,-1.849963138E0,3.638479277E0
2.661626667E0,-4.355947620E-1,-3.451680104E0,-1.092490849E0,3.646556539E0
2.671612667E0,-1.535343760E0,-3.681164315E0,-4.475295138E-1,4.013543801E0
2.681597667E0,-2.423315962E0,-3.787306482E0,-3.999916506E-1,4.513994236E0
2.691583667E0,-2.850236380E0,-3.294822990E0,-1.151548896E0,4.506192496E0
2.701569667E0,-2.895551716E0,-2.556207971E0,-2.029392552E0,4.363124232E0
2.711555667E0,-3.174195516E0,-2.201161967E0,-2.370549518E0,4.532122703E0
2.721541667E0,-3.596176205E0,-2.244301993E0,-2.367022478E0,4.855117933E0
2.731527667E0,-4.060490736E0,-1.986396075E0,-1.964912381E0,4.928918244E0
2.741513667E0,-4.702092846E0,-2.022607881E0,-1.413231093E0,5.310164018E0
2.751499667E0,-5.297571534E0,-2.038981693E0,-1.000177932E0,5.763858638E0
2.761485667E0,-5.659539911E0,-1.515228461E0,-2.671066582E-1,5.864951428E0
2.771471667E0,-6.064295872E0,-1.486633237E0,4.157563287E-1,6.257684567E0
2.781457667E0,-6.254366634E0,-1.486883790E0,9.643555498E-1,6.500608204E0
2.791442667E0,-6.117637682E0,-1.378051320E0,1.360091597E0,6.416725442E0
2.801428667E0,-5.927452900E0,-1.513866352E0,1.387486387E0,6.273085978E0
2.811414667E0,-5.708192253E0,-1.803976541E0,1.043101172E0,6.076664399E0
2.821400667E0,-5.472578698E0,-1.791794452E0,8.177985978E-1,5.816222100E0
2.831386667E0,-5.242213604E0,-1.620806371E0,5.264780349E-1,5.512258692E0
2.841372667E0,-4.743974113E0,-1.407631507E0,5.211401117E-1,4.975771685E0
2.851358667E0,-3.979485165E0,-1.461727315E0,1.038059118E0,4.364689640E0
2.861344667E0,-3.173196226E0,-1.825058092E0,1.817520447E0,4.086978334E0
2.871330667E0,-2.456650354E0,-2.199166751E0,2.596974759E0,4.197111299E0
2.881316667E0,-1.865167653E0,-2.432686125E0,3.010310925E0,4.296368702E0
2.891301667E0,-1.562948465E0,-2.423815314E0,3.132874412E0,4.258237976E0
2.901287667E0,-1.850726200E0,-2.267051170E0,3.126819620E0,4.282722196E0
2.911273667E0,-2.181683868E0,-2.261179396E0,3.098940096E0,4.413174196E0
2.921259667E0,-2.592072453E0,-2.549455314E0,2.707546776E0,4.533141465E0
2.931245667E0,-2.177589648E0,-2.572640986E0,2.441473321E0,4.161871009E0
2.941231667E0,-1.207170535E0,-2.495037032E0,2.565005107E0,3.776469474E0
2.951217667E0,-2.477792716E-1,-2.480902558E0,3.108206763E0,3.984623113E0
2.961203667E0,5.556196806E-1,-2.291007213E0,4.034493431E0,4.672747000E0
2.971189667E0,8.976312178E-1,-2.088966908E0,5.124384023E0,5.606142717E0
2.981175667E0,7.184459254E-1,-2.159116247E0,6.129770654E0,6.538504094E0
2.991160667E0,2.674370259E-1,-2.710649309E0,6.691723162E0,7.224839176E0
3.001146667E0,6.654148954E-1,-3.658903673E0,6.541245067E0,7.524509293E0
3.011132667E0,1.683298489E0,-3.569001855E0,5.734239260E0,6.960802248E0
3.021118667E0,1.862224749E0,-3.035151359E0,4.406492121E0,5.665438871E0
3.031104667E0,1.342591465E0,-2.187247932E0,3.678923078E0,4.485652725E0
3.041090667E0,1.126700861E0,-1.843429459E0,3.747520273E0,4.325690141E0
3.051076667E0,7.190204144E-1,-2.551819343E0,4.159411007E0,4.932491484E0
3.061062667E0,3.328910503E-1,-3.899940228E0,4.539268355E0,5.993772388E0
3.071048667E0,1.131110246E0,-5.223351656E0,4.459555603E0,6.960635682E0
3.081034667E0,3.115442693E0,-5.933842152E0,3.451649991E0,7.538590951E0
3.091019667E0,5.205445143E0,-5.491135422E0,2.051604370E0,7.839534926E0
3.101005667E0,6.410097283E0,-4.843265682E0,1.358198268E0,8.148083957E0
3.110991667E0,6.455945885E0,-4.437282097E0,1.764552274E0,8.030090561E0
3.120977667E0,5.725259106E0,-5.149548100E0,2.985249174E0,8.258822561E0
3.130963667E0,4.828399721E0,-5.482834130E0,3.714682894E0,8.195961381E0
3.140949667E0,3.851995398E0,-5.196097784E0,3.751242610E0,7.477240256E0
3.150935667E0,3.218532028E0,-4.898064618E0,3.170930430E0,6.663691560E0
3.160921667E0,2.487985582E0,-4.179794986E0,2.741137276E0,5.583421168E0
3.170907667E0,1.645300065E0,-4.243792176E0,2.360389981E0,5.127204424E0
3.180893667E0,1.406526091E0,-4.551897756E0,2.222793595E0,5.257271174E0
3.190878667E0,2.278911955E0,-5.965849226E0,1.709753923E0,6.611206786E0
3.200864667E0,4.814325473E0,-7.240790160E0,-4.445918727E-1,8.706574173E0
3.210850667E0,8.822077248E0,-6.967641574E0,-4.056145963E0,1.195112531E1
3.220836667E0,1.219019333E1,-5.551861095E0,-7.243638339E0,1.522807511E1
3.230822667E0,1.335684149E1,-5.170299284E0,-9.038134789E0,1.693591125E1
3.240808667E0,1.239934824E1,-5.505860465E0,-9.226078334E0,1.640667113E1
3.250794667E0,1.031400894E1,-5.570408463E0,-8.164432132E0,1.428517353E1
3.260780667E0,7.888941736E0,-5.644079872E0,-6.300848490E0,1.156683755E1
3.270766667E0,4.939431329E0,-5.768419744E0,-4.606519521E0,8.882154598E0
3.280753125E0,1.661875167E0,-6.041138560E0,-3.628713037E0,7.240493248E0
3.290738125E0,-1.316039844E0,-5.815725473E0,-3.768751513E0,7.053942983E0
3.300724125E0,-3.457724079E0,-4.944283349E0,-4.963433565E0,7.812647848E0
3.310710125E0,-4.753089337E0,-3.781683800E0,-6.244930397E0,8.711609856E0
3.320696125E0,-5.616140707E0,-2.876014999E0,-7.271368175E0,9.627320180E0
3.330682125E0,-5.815776928E0,-2.140143786E0,-8.019255123E0,1.013468941E1
3.340668125E0,-5.226989794E0,-1.374516385E0,-8.232518281E0,9.848100063E0
3.350654125E0,-4.540465280E0,-8.548690680E-1,-7.705433305E0,8.984449260E0
3.360640125E0,-4.238029160E0,-6.434255639E-1,-6.666978915E0,7.926127394E0
3.370626125E0,-3.953783728E0,-5.372550380E-1,-5.604322314E0,6.879642240E0
3.380612125E0,-3.523788845E0,-3.993089882E-1,-4.876255088E0,6.029460936E0
3.390597125E0,-3.318604200E0,-1.178132093E-1,-4.150122120E0,5.315122520E0
3.400583125E0,-3.303518384E0,-1.002019805E-1,-3.170099541E0,4.579607543E0
3.410569125E0,-2.898601624E0,-2.704989204E-1,-2.350953745E0,3.741930591E0
3.420555125E0,-2.244191188E0,-2.616959372E-1,-1.870622520E0,2.933275893E0
3.430541125E0,-1.396831407E0,-1.914521661E-1,-1.375490824E0,1.969712395E0
3.440527125E0,-8.146130347E-1,-2.924829894E-1,-8.889369929E-1,1.240705313E0
3.450513125E0,-4.751517606E-1,-3.819907048E-1,-6.796160281E-1,9.129972836E-1
3.460499125E0,-1.805935943E-1,-3.306246695E-1,-7.095350611E-1,8.033471985E-1
3.470485125E0,6.392468512E-2,-3.284667546E-1,-9.027292590E-1,9.627548438E-1
3.480471125E0,5.368153274E-2,-2.207218659E-1,-1.167163959E0,1.189063310E0
3.490457125E0,-1.946994174E-1,-2.410239834E-1,-8.654767942E-1,9.192662863E-1
3.500442125E0,-3.972808814E-1,-3.731617016E-1,-7.010262660E-1,8.879862498E-1
3.510428125E0,-4.710171944E-1,-2.366923660E-1,-5.529373435E-1,7.639503776E-1
3.520414125E0,-5.272907978E-1,-9.788969904E-2,-5.262633324E-1,7.513794472E-1
3.530400125E0,-5.545850158E-1,-1.131749055E-1,-4.403116743E-1,7.171105002E-1
3.540386125E0,-6.301433212E-1,-8.717584580E-2,-1.472783522E-1,6.529710149E-1
3.550372125E0,-7.117651892E-1,-1.078571552E-1,9.559035458E-2,7.262095884E-1
3.560358125E0,-5.054824376E-1,-1.897520882E-1,2.990523362E-1,6.172119972E-1
3.570344125E0,-2.927724266E-1,-1.260694778E-1,5.269898124E-1,6.158956644E-1
3.580330125E0,-2.191559815E-1,-1.010378399E-1,7.172756052E-1,7.567841721E-1
3.590316125E0,-8.611486852E-2,-1.150790513E-1,8.123969400E-1,8.250137858E-1
3.600301125E0,2.046350062E-2,-1.640579608E-1,9.341336310E-1,9.486513637E-1
3.610287125E0,8.065941632E-2,-2.222395107E-1,1.042501321E0,1.068973969E0
3.620273125E0,2.751266992E-1,-3.037032115E-1,8.325920534E-1,9.279762221E-1
3.630259125E0,4.861667454E-1,-2.361026743E-1,5.343338422E-1,7.600100210E-1
3.640245125E0,6.601442152E-1,-1.541521928E-1,2.287419069E-1,7.154552001E-1
3.650231125E0,6.752294469E-1,-1.767125049E-1,7.118283391E-2,7.015904155E-1
3.660217125E0,6.464500362E-1,-1.689810240E-1,9.980619706E-2,6.755838310E-1
3.670203125E0,6.058680207E-1,-1.467765149E-1,1.000424977E-1,6.313698640E-1
3.680189125E0,5.308038050E-1,-9.104728729E-2,1.665930212E-1,5.637335564E-1
3.690175125E0,2.720972568E-1,-9.076749802E-2,4.838490553E-1,5.624816123E-1
3.700160125E0,-4.456046104E-2,-1.816975486E-1,9.818093424E-1,9.994744712E-1
3.710146125E0,-9.953715205E-2,-2.180640140E-1,1.521878061E0,1.540640253E0
3.720132125E0,2.281174242E-2,-2.447243938E-1,1.937426813E0,1.952954956E0
3.730118125E0,3.617163616E-1,-2.691870975E-1,1.916360757E0,1.968689658E0
3.740104125E0,1.079542775E0,-2.071034083E-1,1.647766567E0,1.980767297E0
3.750090125E0,2.082926150E0,-1.611855161E-1,1.344855068E0,2.484591973E0
3.760076125E0,3.316808521E0,-2.461961380E-1,1.496563564E0,3.647126787E0
3.770062125E0,4.560838734E0,-5.549446195E-1,2.025346571E0,5.021079786E0
3.780048125E0,6.200223756E0,-1.008932091E0,2.419214140E0,6.731516593E0
3.790034125E0,8.118839053E0,-1.460803747E0,2.717800746E0,8.685386350E0
3.800019125E0,9.126949317E0,-2.004775774E0,2.562588745E0,9.689540279E0
3.810005125E0,8.881397250E0,-2.603296476E0,1.871838449E0,9.442465189E0
3.819991125E0,7.611215365E0,-3.278959786E0,8.666070610E-1,8.332657704E0
3.829977125E0,6.000809729E0,-3.840147478E0,-3.645271182E-1,7.133675775E0
3.839963125E0,5.060712522E0,-4.276330177E0,-1.870329283E0,6.884471123E0
3.849949125E0,4.696144474E0,-4.207915123E0,-3.446758211E0,7.186130027E0
3.859935125E0,4.036026571E0,-4.196137661E0,-4.550833563E0,7.389666290E0
3.869921125E0,3.136471034E0,-4.487479274E0,-4.599712193E0,7.150683397E0
3.879907125E0,1.737833422E0,-5.026640212E0,-4.188769877E0,6.770005163E0
3.889893125E0,1.343497199E-1,-5.496995502E0,-4.128261720E0,6.875867525E0
3.899878125E0,-1.200917523E0,-5.808886569E0,-4.255684243E0,7.300425635E0
3.909864125E0,-2.260552867E0,-5.986475864E0,-4.923469015E0,8.073942016E0
3.919850125E0,-2.640027223E0,-5.588537756E0,-5.822417611E0,8.491292294E0
3.929836125E0,-2.545470144E0,-5.065718908E0,-6.109507713E0,8.334687205E0
3.939822125E0,-2.558375534E0,-4.657115186E0,-6.263853157E0,8.214004115E0
3.949808125E0,-2.815249565E0,-4.381640285E0,-6.377501979E0,8.233889311E0
3.959794125E0,-2.989069744E0,-4.545759934E0,-6.262791302E0,8.295843912E0
3.969780125E0,-2.722830228E0,-4.431300103E0,-6.094797873E0,8.012289696E0
3.979766125E0,-2.668718340E0,-4.144964876E0,-5.790243891E0,7.604585178E0
3.989752125E0,-2.873800074E0,-4.284339401E0,-5.001739844E0,7.185519636E0
3.999737125E0,-3.467402390E0,-4.446844341E0,-3.496194372E0,6.634808137E0
4.009723125E0,-4.534795820E0,-4.782860436E0,-1.817619849E0,6.836948807E0
4.019709125E0,-5.530797086E0,-5.072604589E0,-9.750289111E-1,7.567807814E0
4.029695125E0,-6.060394025E0,-4.544208668E0,-7.621497694E-1,7.613086131E0
4.039681125E0,-6.065882222E0,-4.132169707E0,-1.037209372E0,7.412527025E0
4.049667125E0,-5.603844597E0,-3.732757223E0,-1.789545174E0,6.966995240E0
4.059653125E0,-5.159829260E0,-3.123197855E0,-2.278310130E0,6.447394813E0
4.069639125E0,-5.032241260E0,-3.015631891E0,-2.500872846E0,6.377448768E0
4.079625125E0,-5.030489434E0,-3.110067932E0,-2.619619271E0,6.468442750E0
4.089611125E0,-5.127058539E0,-3.170155674E0,-2.909938205E0,6.693605652E0
4.099596125E0,-5.221236718E0,-3.051767684E0,-3.042333201E0,6.769814633E0
4.109582125E0,-5.203303893E0,-2.971112945E0,-2.363066690E0,6.440960155E0
4.119568125E0,-5.087117963E0,-3.008207681E0,-1.068216133E0,6.005761262E0
4.129554125E0,-5.020460874E0,-2.937023093E0,6.580512044E-1,5.853559894E0
4.139540125E0,-4.981935325E0,-2.974382416E0,2.400355408E0,6.279198708E0
4.149526125E0,-4.840582395E0,-2.905120100E0,3.953448391E0,6.892076239E0
4.159512125E0,-4.514884881E0,-2.900397011E0,5.068111589E0,7.381208803E0
4.169498125E0,-4.083575544E0,-3.229935561E0,5.500075815E0,7.573566327E0
4.179484125E0,-3.164492646E0,-3.425158888E0,5.326155063E0,7.079099863E0
4.189469125E0,-1.619272354E0,-3.274228219E0,4.826142403E0,6.052624545E0
4.199455125E0,-2.152944803E-2,-3.093041717E0,4.191551690E0,5.209268293E0
4.209441125E0,9.132883072E-1,-2.845999779E0,3.803416731E0,4.837332850E0
4.219427125E0,6.118006057E-1,-2.692855062E0,4.037989481E0,4.891945157E0
4.229413125E0,-8.753515720E-2,-2.571178012E0,4.288065539E0,5.000612447E0
4.239399125E0,-3.613877481E-1,-2.274413399E0,4.380646843E0,4.949103371E0
4.249385125E0,-2.744735652E-1,-1.916555177E0,4.437223917E0,4.841226660E0
4.259371125E0,-2.424425179E-1,-1.730227949E0,4.649962580E0,4.967355345E0
4.269357125E0,-4.393054050E-1,-1.741418789E0,4.892409191E0,5.211640464E0
4.279343167E0,-5.392770052E-2,-2.352104915E0,4.829058117E0,5.371695080E0
4.289329167E0,6.801644969E-1,-2.956369483E0,4.515314067E0,5.439743136E0
4.299314167E0,1.506688895E0,-3.305941470E0,3.694041638E0,5.181245416E0
4.309300167E0,1.932522315E0,-2.622872954E0,3.035389633E0,4.452830027E0
4.319286167E0,1.618568934E0,-1.616836258E0,3.042972302E0,3.807046796E0
4.329272167E0,1.243280016E0,-2.016325487E0,3.339855321E0,4.094624187E0
4.339258167E0,1.466947124E0,-3.230537239E0,3.401600749E0,4.915200136E0
4.349244167E0,2.003303445E0,-2.991190237E0,2.939162589E0,4.647485390E0
4.359230167E0,2.904782715E0,-2.711403015E0,2.237927066E0,4.560459021E0
4.369216167E0,3.704719239E0,-2.355033055E0,1.751701264E0,4.726476769E0
4.379202167E0,3.508707122E0,-1.485598572E0,1.985163043E0,4.296382326E0
4.389187167E0,2.613037645E0,-8.744929084E-1,2.924538703E0,4.018162541E0
4.399173167E0,1.775863128E0,-9.221804604E-1,4.301970218E0,4.744581584E0
4.409159167E0,1.228422825E0,-2.171108009E0,5.275911693E0,5.835921248E0
4.419145167E0,1.763639524E0,-3.466315393E0,5.002311702E0,6.336315107E0
4.429131167E0,2.902147375E0,-3.709439111E0,3.879152207E0,6.101657132E0
4.439117167E0,4.502403415E0,-3.619552789E0,2.031680567E0,6.123767209E0
4.449103167E0,6.209474636E0,-3.374497150E0,4.556033492E-2,7.067310805E0
4.459089167E0,7.230614251E0,-3.940912253E0,-1.537451681E0,8.377131341E0
4.469075167E0,7.967518374E0,-4.189960955E0,-2.766560677E0,9.417588854E0
4.479061167E0,8.191101283E0,-4.375894226E0,-3.239571187E0,9.835517881E0
4.489046167E0,8.165349560E0,-5.048047453E0,-3.733455380E0,1.030021386E1
4.499032167E0,8.026455384E0,-5.382967780E0,-4.487761987E0,1.065553076E1
4.509018167E0,7.534035042E0,-5.685907930E0,-5.057212379E0,1.070825056E1
4.519004167E0,6.669740555E0,-5.952454425E0,-5.517278323E0,1.050511841E1
4.528990167E0,5.505351757E0,-6.158809097E0,-5.595830988E0,9.977632580E0
4.538976167E0,4.028548567E0,-6.440893983E0,-5.513508039E0,9.386857288E0
4.548962167E0,2.706870253E0,-6.415075017E0,-5.529710673E0,8.891458495E0
4.558948167E0,1.432560818E0,-6.232039626E0,-5.460624651E0,8.408862585E0
4.568934167E0,-4.909848511E-2,-6.039290255E0,-5.342473472E0,8.063340514E0
4.578920167E0,-1.951188966E0,-5.600013501E0,-5.631046429E0,8.177773137E0
4.588905167E0,-3.743806121E0,-4.932109446E0,-6.070801485E0,8.671586852E0
4.598891167E0,-5.143254742E0,-3.969976423E0,-6.684223523E0,9.321621439E0
4.608877167E0,-6.308493140E0,-2.941249168E0,-7.441398189E0,1.018932968E1
4.618863167E0,-7.242572392E0,-2.002453552E0,-8.052333992E0,1.101384392E1
4.628849167E0,-7.646129090E0,-1.207064701E0,-7.992560245E0,1.112660391E1
4.638835167E0,-7.409343753E0,-5.977196333E-1,-7.258167500E0,1.038925594E1
4.648821167E0,-6.624249217E0,-3.408020407E-1,-6.224531801E0,9.096242073E0
4.658807167E0,-5.619753701E0,-4.058903217E-1,-4.939648261E0,7.493097060E0
4.668793167E0,-4.338808261E0,-4.222496617E-1,-3.714392288E0,5.727151296E0
4.678779167E0,-2.835082735E0,-3.704062012E-1,-2.644627812E0,3.894733769E0
4.688764167E0,-1.822084783E0,-2.666397581E-1,-1.641436371E0,2.466860977E0
4.698750167E0,-1.150336769E0,-4.187410399E-1,-9.216477790E-1,1.532335919E0
4.708736167E0,-3.215968609E-1,-5.012815055E-1,-4.501607609E-1,7.465603789E-1
4.718722167E0,3.638020635E-1,-3.675144607E-1,-9.983886838E-2,5.266750610E-1
4.728708167E0,7.282011276E-1,-4.606024262E-1,1.273535264E-1,8.710053950E-1
4.738694167E0,9.356416279E-1,-5.290394077E-1,3.357765050E-1,1.126078955E0
4.748680167E0,9.313684827E-1,-5.833144328E-1,4.063980062E-1,1.171692075E0
4.758666167E0,6.537304044E-1,-5.802344120E-1,5.506439924E-1,1.033075128E0
4.768652167E0,1.803333932E-1,-6.819502366E-1,7.372181189E-1,1.020326817E0
4.778638167E0,-2.873748618E-1,-7.455960095E-1,7.235718870E-1,1.077986084E0
4.788623167E0,-3.130248427E-1,-7.638568640E-1,4.181076403E-1,9.253517492E-1
4.798609167E0,-1.178740203E-2,-6.081458035E-1,-2.819527388E-2,6.089131585E-1
4.808595167E0,2.433108294E-1,-4.815465680E-1,-3.746696985E-1,6.568596804E-1
4.818581167E0,4.445866102E-1,-5.017308640E-1,-3.405558729E-1,7.519105110E-1
4.828567167E0,3.635447860E-1,-5.306769204E-1,-2.179584718E-1,6.791823766E-1
4.838553167E0,2.552964520E-1,-5.357929417E-1,-2.214518908E-1,6.334755676E-1
4.848539167E0,1.382889891E-1,-4.597735834E-1,-2.122036421E-1,5.249247358E-1
4.858525167E0,-1.403279132E-1,-4.069159234E-1,-2.435609441E-1,4.945648849E-1
4.868511167E0,-4.521686947E-1,-3.512539387E-1,-4.909611699E-1,7.542404976E-1
4.878497167E0,-6.892960936E-1,-1.273947492E-1,-8.247836816E-1,1.082417040E0
4.888482167E0,-8.651937890E-1,1.585238636E-2,-1.101298802E0,1.400596531E0
4.898468167E0,-9.780737025E-1,8.104299366E-2,-1.245020732E0,1.585330488E0
4.908454167E0,-7.595655924E-1,1.848512444E-1,-1.222575610E0,1.451137827E0
4.918440167E0,-2.588357717E-1,1.510981920E-1,-8.000498132E-1,8.543455530E-1
4.928426167E0,2.787350160E-1,3.809490234E-2,-5.570247665E-2,2.867877205E-1
4.938412167E0,7.390301710E-1,-6.141652197E-2,8.752188402E-1,1.147146722E0
4.948398167E0,9.337237412E-1,-3.117764622E-2,1.699535914E0,1.939390212E0
4.958384167E0,1.111463894E0,-6.055990487E-2,2.196442533E0,2.462393001E0
4.968370167E0,1.853447494E0,-1.742107737E-1,2.382080812E0,3.023231054E0
4.978356167E0,3.389285343E0,-3.262372112E-1,2.315227549E0,4.117519212E0
4.988341167E0,5.547538834E0,-6.744576144E-1,2.220256488E0,6.013286876E0
4.998327167E0,7.773228262E0,-1.238201124E0,2.120711442E0,8.151910001E0
5.008313167E0,9.451929377E0,-1.838768936E0,2.021072549E0,9.838941732E0
5.018299167E0,9.939782460E0,-2.455834959E0,1.915605443E0,1.041633068E1
5.028285167E0,9.770566378E0,-3.550177037E0,1.620229836E0,1.052106787E1
5.038271167E0,9.229805349E0,-4.593230262E0,9.448088926E-1,1.035276460E1
5.048257167E0,8.490262377E0,-5.326852051E0,-1.723642230E-1,1.002445098E1
5.058243167E0,7.602484887E0,-5.924391298E0,-1.395317563E0,9.738742209E0
5.068229167E0,6.273494046E0,-6.481667787E0,-2.300537736E0,9.309200756E0
5.078215167E0,4.539198774E0,-7.096131214E0,-3.152975093E0,8.994479176E0
5.088200167E0,2.820460019E0,-7.342364482E0,-3.975389775E0,8.813003731E0
5.098186167E0,9.946681005E-1,-7.156531783E0,-4.729135926E0,8.635394513E0
5.108172167E0,-7.223311079E-1,-6.968814526E0,-5.184257172E0,8.715656060E0
5.118158167E0,-2.069302137E0,-6.566203907E0,-5.170262446E0,8.609800163E0
5.128144167E0,-3.423880979E0,-6.221625150E0,-4.962364694E0,8.663523753E0
5.138130167E0,-4.567753651E0,-5.772581792E0,-4.718906807E0,8.743863872E0
5.148116167E0,-5.176774490E0,-5.012569472E0,-4.577432255E0,8.536845605E0
5.158102167E0,-5.475077214E0,-4.294677278E0,-4.486125644E0,8.279253995E0
5.168088167E0,-5.486467005E0,-3.761348353E0,-4.373039323E0,7.960686814E0
5.178073167E0,-5.020209444E0,-3.405833841E0,-4.151911368E0,7.351229491E0
5.188059167E0,-4.497687051E0,-3.112758528E0,-3.922604620E0,6.730919809E0
5.198045167E0,-4.156106746E0,-3.067726489E0,-3.847895916E0,6.441309810E0
5.208031167E0,-3.859844116E0,-2.964833620E0,-3.542609570E0,6.019860261E0
5.218017167E0,-3.696638972E0,-3.031416157E0,-3.123429404E0,5.710554688E0
5.228003167E0,-3.889956692E0,-3.019591333E0,-2.538052951E0,5.539982641E0
5.237989167E0,-4.296951553E0,-2.961037608E0,-1.993721613E0,5.586274450E0
5.247975167E0,-4.566057374E0,-3.042526159E0,-1.853899484E0,5.791613650E0
5.257961167E0,-4.741977289E0,-2.922942413E0,-2.097004491E0,5.952089448E0
5.267947167E0,-4.880568579E0,-2.951299655E0,-2.550796373E0,6.247934174E0
5.277932042E0,-4.897134326E0,-2.575659319E0,-2.844614282E0,6.221557356E0
5.287918042E0,-5.036769928E0,-2.225348536E0,-2.584417863E0,6.082798953E0
5.297904042E0,-5.160338552E0,-2.409178564E0,-2.437589454E0,6.194762116E0
5.307890042E0,-5.143492724E0,-2.336502936E0,-2.312452022E0,6.104277003E0
5.317876042E0,-5.087804427E0,-2.038976138E0,-1.928610528E0,5.810569347E0
5.327862042E0,-5.172402527E0,-2.146833878E0,-1.286420188E0,5.746087408E0
5.337848042E0,-5.248800493E0,-2.433200680E0,-5.859494805E-1,5.814955628E0
5.347834042E0,-5.414687755E0,-2.490308096E0,1.246465579E-1,5.961209161E0
5.357820042E0,-5.700606660E0,-2.349171513E0,6.561651850E-1,6.200489968E0
5.367806042E0,-6.008633888E0,-2.320346494E0,9.348795895E-1,6.508585783E0
5.377791042E0,-6.182581537E0,-2.182857404E0,1.171935214E0,6.660526485E0
5.387777042E0,-6.249150333E0,-2.076308856E0,1.514819448E0,6.757041979E0
5.397763042E0,-6.137182000E0,-2.171240156E0,2.028548652E0,6.818672624E0
5.407749042E0,-5.713621393E0,-2.316814191E0,2.433180799E0,6.628232511E0
5.417735042E0,-4.988774228E0,-2.622145268E0,2.960168127E0,6.366012052E0
5.427721042E0,-3.759214704E0,-3.075958492E0,3.312428956E0,5.879234765E0
5.437707042E0,-2.110050214E0,-3.806398518E0,3.502053867E0,5.586176051E0
5.447693042E0,-2.807160527E-1,-4.188784203E0,3.366758653E0,5.381429032E0
5.457679042E0,1.279854934E0,-4.161423326E0,2.987414690E0,5.280162808E0
5.467665042E0,2.482081064E0,-3.810737445E0,2.797389829E0,5.339272997E0
5.477650042E0,3.335150651E0,-3.506932492E0,2.733556945E0,5.558249629E0
5.487636042E0,3.924227808E0,-3.095569761E0,2.941800853E0,5.799681740E0
5.497622042E0,4.153679566E0,-2.267035383E0,3.525102130E0,5.900749816E0
5.507608042E0,4.066757782E0,-1.789075204E0,4.260585380E0,6.155639424E0
5.517594042E0,3.871655492E0,-1.568716889E0,5.167913035E0,6.645142140E0
5.527580042E0,3.903383653E0,-1.246789076E0,6.487112129E0,7.672907579E0
5.537566042E0,3.946895708E0,-1.230988876E0,7.874205583E0,8.893617538E0
5.547552042E0,3.605961521E0,-1.609549458E0,8.843835322E0,9.685402993E0
5.557538042E0,3.021274454E0,-1.842045716E0,9.110378893E0,9.773445417E0
5.567523042E0,2.398845949E0,-2.011318954E0,8.541297460E0,9.096902117E0
5.577509042E0,1.530636166E0,-2.215122048E0,7.296017112E0,7.776983892E0
5.587495042E0,6.640343678E-1,-2.751898491E0,5.562721129E0,6.241614640E0
5.597481042E0,5.166172904E-1,-3.148914786E0,3.666466754E0,4.860610683E0
5.607467042E0,1.041336483E0,-3.368700513E0,1.634853430E0,3.886549955E0
5.617453042E0,1.294600443E0,-2.592877322E0,-6.500758946E-2,2.898832368E0
5.627439042E0,1.537721238E0,-2.154981388E0,-8.613784808E-1,2.783972751E0
5.637425042E0,1.992186719E0,-2.091317782E0,-4.636742610E-1,2.925305421E0
5.647411042E0,2.560305700E0,-2.874695867E0,6.849723700E-1,3.910016465E0
5.657397042E0,3.026781362E0,-3.820375118E0,1.223469064E0,5.025290838E0
5.667382042E0,3.888248720E0,-4.970740246E0,3.509919834E-1,6.320595864E0
5.677368042E0,5.436115462E0,-4.915493998E0,-1.521557779E0,7.485223486E0
5.687354042E0,7.172836159E0,-4.021040157E0,-3.141649328E0,8.802744061E0
5.697340042E0,7.917463285E0,-3.982703472E0,-4.116587462E0,9.772125876E0
5.707326042E0,7.897435986E0,-4.616124743E0,-4.293467197E0,1.010504643E1
5.717312042E0,7.782688472E0,-5.248541461E0,-4.560700155E0,1.043635057E1
5.727298042E0,7.195678892E0,-5.409622897E0,-5.511084368E0,1.055527667E1
5.737284042E0,6.311005104E0,-5.570699655E0,-6.830529045E0,1.084055382E1
5.747270042E0,5.012815640E0,-5.446843348E0,-8.115794992E0,1.098465072E1
5.757256042E0,3.466877310E0,-4.937842056E0,-9.067133471E0,1.089102529E1
5.767241042E0,1.696651483E0,-4.365622423E0,-9.499524543E0,1.059142351E1
5.777227042E0,-1.152293247E-1,-3.873430706E0,-9.357713192E0,1.012835324E1
5.787213042E0,-1.359734917E0,-3.359022494E0,-8.746073384E0,9.467085655E0
5.797199042E0,-2.125529548E0,-2.862236328E0,-7.964726329E0,8.726232758E0
5.807185042E0,-2.856282400E0,-2.288225400E0,-7.176713448E0,8.056025108E0
5.817171042E0,-3.395072333E0,-1.771526248E0,-6.423354675E0,7.478255590E0
5.827157042E0,-3.517212481E0,-1.363271020E0,-5.553224666E0,6.713240328E0
5.837143042E0,-3.571941251E0,-1.094058487E0,-4.700968426E0,6.004567630E0
5.847129042E0,-3.610006624E0,-8.879268864E-1,-3.807850674E0,5.321681007E0
5.857115042E0,-3.427854747E0,-6.885885805E-1,-3.011517205E0,4.614496536E0
5.867100042E0,-3.041632120E0,-5.107895167E-1,-2.614467874E0,4.043250443E0
5.877086042E0,-2.747425956E0,-1.912188622E-1,-2.411287508E0,3.660494705E0
5.887072042E0,-2.278671634E0,-1.001258205E-1,-1.844478450E0,2.933337749E0
5.897058042E0,-1.945766843E0,-1.441638328E-1,-1.209585289E0,2.295623747E0
5.907044042E0,-1.789291844E0,-1.909751795E-1,-9.423982318E-1,2.031292999E0
5.917030042E0,-1.519538151E0,-2.605881822E-1,-9.455344590E-1,1.808573417E0
5.927016042E0,-1.274574898E0,-2.643581745E-1,-1.038542683E0,1.665231912E0
5.937002042E0,-1.223569636E0,-2.729891033E-1,-1.094149704E0,1.663973942E0
5.946988042E0,-1.342751094E0,-3.955138528E-1,-9.239839610E-1,1.677247170E0
5.956973042E0,-1.150955404E0,-4.582443903E-1,-9.496953376E-1,1.560963644E0
5.966959042E0,-6.574995196E-1,-4.611732607E-1,-1.070127003E0,1.337967936E0
5.976945042E0,-3.668168879E-1,-3.421485083E-1,-1.142907296E0,1.248141546E0
5.986931042E0,-5.049240285E-1,-2.873330542E-1,-1.031595021E0,1.183932788E0
5.996917042E0,-8.266793489E-1,-3.139908028E-1,-8.862191340E-1,1.251947812E0
6.006903042E0,-1.143987277E0,-2.986906859E-1,-8.834334473E-1,1.475932814E0
6.016889042E0,-1.331902755E0,-1.985169183E-1,-9.800482341E-1,1.665493457E0
6.026875042E0,-1.373950667E0,-7.688547716E-2,-1.006303329E0,1.704786850E0
6.036861042E0,-1.607094943E0,-2.623645663E-2,-8.348268592E-1,1.811181491E0
6.046846042E0,-1.709173295E0,-1.785096467E-2,-7.609649773E-1,1.871004999E0
6.056832042E0,-1.759435376E0,-4.145003468E-2,-7.680132110E-1,1.920201875E0
6.066818042E0,-1.658028869E0,1.243619446E-1,-6.264766784E-1,1.776794488E0
6.076804042E0,-1.304256535E0,1.906547521E-1,-4.003259651E-1,1.377568590E0
6.086790042E0,-1.033860818E0,1.529406497E-1,-7.995351121E-2,1.048165825E0
6.096776042E0,-7.787391973E-1,1.132846870E-1,-7.811163828E-2,7.908031270E-1
6.106762042E0,-4.616639882E-1,1.220372379E-2,-2.733000290E-1,5.366334641E-1
6.116748042E0,1.351005024E-1,1.672125337E-1,-3.959032774E-1,4.505014786E-1
6.126734042E0,4.724579483E-1,2.071718207E-1,-3.093644857E-1,6.015339236E-1
6.136720042E0,4.352772582E-1,9.947473302E-2,-1.490981519E-1,4.707353533E-1
6.146705042E0,2.248581862E-1,9.758125842E-3,-1.578280449E-2,2.256225207E-1
6.156691042E0,1.172460294E-1,-7.902511954E-4,1.412125969E-1,1.835436009E-1
6.166677042E0,2.807476276E-1,-7.980864644E-2,4.126076031E-1,5.054044762E-1
6.176663042E0,4.190027028E-1,-1.561115947E-1,6.119181347E-1,7.578772318E-1
6.186649042E0,7.029195213E-1,-2.527289397E-1,7.885556491E-1,1.086180364E0
6.196635042E0,1.141698092E0,-4.045255816E-1,1.104010741E0,1.638888402E0
6.206621042E0,1.433110456E0,-6.969688100E-1,1.280690794E0,2.044441247E0
6.216607042E0,1.742422902E0,-9.839390445E-1,1.093426696E0,2.280297251E0
6.226593042E0,2.063749037E0,-1.034483254E0,5.917475796E-1,2.383145167E0
6.236579042E0,2.358624122E0,-7.421423516E-1,5.554854870E-4,2.472626807E0
6.246564042E0,2.404348764E0,-5.472031984E-1,-3.398077217E-1,2.489135112E0
6.256550042E0,2.537000452E0,-5.675497547E-1,-3.607796377E-1,2.624623014E0
6.266536042E0,2.669313587E0,-5.299410483E-1,-9.787522718E-2,2.723169495E0
6.276522125E0,2.468251230E0,-5.740451342E-1,1.784219384E-1,2.540398854E0
6.286508125E0,2.388068361E0,-6.188856769E-1,3.193643939E-1,2.487545697E0
6.296494125E0,2.431362900E0,-4.974910480E-1,3.131865183E-1,2.501421334E0
6.306480125E0,2.558269699E0,-4.391375899E-1,1.953122056E-1,2.603023729E0
6.316466125E0,2.945822568E0,-3.624031171E-1,1.414514557E-1,2.971399525E0
6.326452125E0,3.441052498E0,-3.701661730E-1,4.033318725E-1,3.484328039E0
6.336438125E0,4.012068774E0,-7.130974773E-1,5.054441383E-1,4.106175549E0
6.346423125E0,5.101132570E0,-9.899102211E-1,3.812001613E-1,5.210258084E0
6.356409125E0,6.230227574E0,-1.180083894E0,2.290328059E-1,6.345139056E0
6.366395125E0,6.973717416E0,-1.539832082E0,1.476764014E-1,7.143222365E0
6.376381125E0,7.174472210E0,-2.139996437E0,7.014349133E-2,7.487159431E0
6.386367125E0,6.908664803E0,-2.861138513E0,-2.937413102E-1,7.483451537E0
6.396353125E0,6.399681053E0,-3.257442617E0,-9.723530790E-1,7.246538518E0
6.406339125E0,5.616737707E0,-3.565536211E0,-1.582132887E0,6.838416148E0
6.416325125E0,4.347051666E0,-4.156972134E0,-2.186408418E0,6.399816972E0
6.426311125E0,2.726350252E0,-4.610506738E0,-2.815279678E0,6.051079056E0
6.436296125E0,1.323594446E0,-4.881274045E0,-3.489178006E0,6.144355273E0
6.446282125E0,2.517501158E-1,-5.136035770E0,-4.093871613E0,6.572824837E0
6.456268125E0,-9.212685871E-1,-5.134299731E0,-4.613432685E0,6.963729653E0
6.466254125E0,-1.906972906E0,-5.116127170E0,-5.132187717E0,7.493373983E0
6.476240125E0,-2.580945786E0,-4.944161142E0,-5.511750365E0,7.841262822E0
6.486226125E0,-3.246316243E0,-4.710881796E0,-5.891810027E0,8.212454069E0
6.496212125E0,-3.999124208E0,-4.587660204E0,-6.344515496E0,8.791615180E0
6.506198125E0,-4.709177333E0,-4.530457186E0,-6.484376217E0,9.205896393E0
6.516184125E0,-4.983716971E0,-4.436789469E0,-6.381478086E0,9.232865113E0
6.526170125E0,-5.105984589E0,-4.254943694E0,-5.909112523E0,8.893437765E0
6.536155125E0,-5.555846558E0,-4.316094752E0,-5.236916612E0,8.770484621E0
6.546141125E0,-5.997900739E0,-4.475515286E0,-4.580066133E0,8.773941881E0
6.556127125E0,-6.418868106E0,-4.439899018E0,-3.780107098E0,8.672011343E0
6.566113125E0,-6.837386659E0,-4.351034789E0,-3.146896912E0,8.693924329E0
6.576099125E0,-7.198594313E0,-4.445818447E0,-3.170502999E0,9.035327942E0
6.586085125E0,-7.277979037E0,-4.228837337E0,-3.462015935E0,9.101516270E0
6.596071125E0,-6.991699943E0,-3.904309852E0,-3.664481624E0,8.806584417E0
6.606057125E0,-6.464707938E0,-3.682781070E0,-4.045474502E0,8.468836347E0
6.616043125E0,-6.086306546E0,-3.257108449E0,-4.044455625E0,8.000593986E0
6.626029125E0,-5.991667022E0,-3.415650439E0,-3.709999859E0,7.831400933E0
6.636014125E0,-5.847375281E0,-3.610117722E0,-3.021177975E0,7.506814504E0
6.646000125E0,-5.623473115E0,-3.724386349E0,-2.227315247E0,7.103199051E0
6.655986125E0,-5.160827964E0,-4.363458953E0,-1.694979179E0,6.967558663E0
6.665972125E0,-4.551803032E0,-4.442035006E0,-1.104677031E0,6.455299929E0
6.675958125E0,-4.411937633E0,-4.152854232E0,-2.971741375E-1,6.066275993E0
6.685944125E0,-4.530801587E0,-4.179407023E0,5.725536557E-1,6.190591553E0
6.695930125E0,-4.776870548E0,-4.263916831E0,1.654641431E0,6.613419481E0
6.705916125E0,-4.811425254E0,-4.470727878E0,2.686705545E0,7.096168503E0
6.715902125E0,-4.646847183E0,-4.518193236E0,3.389665997E0,7.314170796E0
6.725888125E0,-4.490315466E0,-4.385309998E0,3.878710450E0,7.378229565E0
6.735873125E0,-4.187903904E0,-4.210509532E0,4.374912187E0,7.376095598E0
6.745859125E0,-3.372399754E0,-3.719453638E0,4.856025183E0,6.984869079E0
6.755845125E0,-1.971966462E0,-3.182306773E0,5.660378986E0,6.786428987E0
6.765831125E0,-1.415686923E-1,-2.897372539E0,6.726681325E0,7.325506875E0
6.775817125E0,2.105170128E0,-2.747277729E0,7.971626043E0,8.690575238E0
6.785803125E0,3.527313547E0,-2.782719165E0,9.011823488E0,1.006967871E1
6.795789125E0,3.850346484E0,-2.757726119E0,9.667738997E0,1.076547253E1
6.805775125E0,3.645731943E0,-3.122701719E0,9.645127814E0,1.077363068E1
6.815761125E0,3.206017233E0,-3.609478913E0,8.544869524E0,9.814360891E0
6.825746125E0,3.205057704E0,-3.528731789E0,6.572848683E0,8.119524785E0
6.835732125E0,3.657759081E0,-2.984210123E0,4.478661965E0,6.507159484E0
6.845718125E0,3.302705621E0,-2.141850004E0,3.020496482E0,4.961732042E0
6.855704125E0,2.019113147E0,-1.467959569E0,2.119179472E0,3.274544981E0
6.865690125E0,1.657498527E-1,-1.150286775E0,1.761183693E0,2.110071250E0
6.875676125E0,-1.311196010E0,-1.578271386E0,1.570529965E0,2.583938837E0
6.885662125E0,-2.012233313E0,-2.130867763E0,1.331345515E0,3.219031098E0
6.895648125E0,-1.845316356E0,-2.223779143E0,9.728650028E-1,3.049074031E0
6.905634125E0,-8.326563728E-1,-2.149841978E0,5.650386679E-1,2.373690347E0
6.915620125E0,5.629465342E-1,-2.110650723E0,3.905864042E-1,2.219079317E0
6.925605125E0,2.381324767E0,-2.781042768E0,3.388683665E-1,3.676919675E0
6.935591125E0,4.448046529E0,-2.933134695E0,3.981679040E-1,5.342933159E0
6.945577125E0,6.289162830E0,-3.308626512E0,5.466146761E-1,7.127367403E0
6.955563125E0,8.167050515E0,-3.944948001E0,5.935900372E-1,9.089316695E0
6.965549125E0,9.572431721E0,-4.346169321E0,-3.379398286E-3,1.051288011E1
6.975535125E0,1.027792460E1,-4.440602438E0,-1.022712224E0,1.124280323E1
6.985521125E0,9.817228328E0,-4.670322000E0,-2.021281879E0,1.105782348E1
6.995507125E0,8.407517259E0,-4.847520701E0,-2.920205624E0,1.013471284E1
7.005493125E0,6.598728459E0,-4.897941826E0,-3.590439502E0,8.967960037E0
7.015479125E0,4.645837954E0,-5.057432819E0,-4.155425837E0,8.026767774E0
7.025464125E0,3.329846057E0,-4.986185081E0,-4.966111005E0,7.785382132E0
7.035450125E0,2.638294108E0,-4.466213243E0,-5.829424914E0,7.803194946E0
7.045436125E0,1.705480193E0,-3.902587262E0,-6.643487141E0,7.891436588E0
7.055422125E0,8.589898932E-1,-3.372269946E0,-7.050970244E0,7.862966973E0
7.065408125E0,7.426548600E-2,-2.999018782E0,-7.059458063E0,7.670435265E0
7.075394125E0,-3.767776197E-1,-2.694060758E0,-6.943542860E0,7.457393123E0
7.085380125E0,-5.773692763E-1,-2.219670889E0,-6.711069260E0,7.092160795E0
7.095366125E0,-7.566659582E-1,-1.951811987E0,-6.331400192E0,6.668488719E0
7.105352125E0,-1.077355916E0,-1.695148456E0,-5.856800408E0,6.191634282E0
7.115337125E0,-1.418933297E0,-1.382694594E0,-5.451804711E0,5.800637090E0
7.125323125E0,-1.642406863E0,-1.151095737E0,-4.920179372E0,5.313255758E0
7.135309125E0,-1.966407514E0,-1.097415959E0,-4.156979735E0,4.727743734E0
7.145295125E0,-2.120470537E0,-9.549716458E-1,-3.559255131E0,4.251665936E0
7.155281125E0,-2.086731518E0,-7.442023256E-1,-3.265386937E0,3.946015380E0
7.165267125E0,-2.080318292E0,-4.900033960E-1,-3.001347728E0,3.684550950E0
7.175253125E0,-2.281412224E0,-3.348513293E-1,-2.662611508E0,3.522281532E0
7.185239125E0,-2.203678170E0,-2.401600572E-1,-2.285293021E0,3.183777398E0
7.195225125E0,-1.936372122E0,-1.572941941E-1,-2.003808060E0,2.790972088E0
7.205211125E0,-1.684303333E0,-1.029276600E-1,-1.935794417E0,2.568028785E0
7.215196125E0,-1.219346192E0,-6.901147038E-2,-1.867382140E0,2.231296434E0
7.225182125E0,-8.703744221E-1,-1.712152451E-2,-1.713180392E0,1.921674227E0
7.235168125E0,-5.925527412E-1,-7.396523148E-2,-1.468887230E0,1.585628992E0
7.245154125E0,-3.553241855E-1,-7.374449909E-2,-1.292613413E0,1.342588158E0
7.255140125E0,-3.586337095E-1,-1.555154711E-2,-1.247378329E0,1.298003345E0
7.265126125E0,-6.010534233E-1,1.107199520E-2,-1.190159596E0,1.333367043E0
7.275112125E0,-9.663728392E-1,-2.644198626E-2,-1.044716173E0,1.423378912E0
7.285097875E0,-1.254596132E0,-3.035991311E-2,-9.101670635E-1,1.550270061E0
7.295083875E0,-1.524190781E0,2.017552525E-2,-8.669761665E-1,1.753628313E0
7.305068875E0,-1.716834317E0,1.823308021E-2,-8.673632522E-1,1.923582992E0
7.315054875E0,-1.808421595E0,5.972492248E-2,-9.119013476E-1,2.026208232E0
7.325040875E0,-1.944568748E0,1.162104875E-1,-1.042042826E0,2.209231936E0
7.335026875E0,-2.061966221E0,1.942465505E-1,-1.241993043E0,2.414949924E0
7.345012875E0,-2.006132328E0,2.762356237E-1,-1.459974904E0,2.496477470E0
7.354998875E0,-1.762537909E0,3.682588112E-1,-1.626523340E0,2.426465044E0
7.364984875E0,-1.443723153E0,3.469220290E-1,-1.619630642E0,2.197247108E0
7.374970875E0,-1.100254782E0,3.157344425E-1,-1.527088076E0,1.908467137E0
7.384956875E0,-8.527707946E-1,3.390411517E-1,-1.497338612E0,1.756186166E0
7.394942875E0,-5.587757152E-1,2.994519934E-1,-1.315199014E0,1.460017206E0
7.404927875E0,-2.316813022E-1,2.359886536E-1,-7.592061348E-1,8.281067718E-1
7.414913875E0,-1.951899987E-1,1.772323224E-1,-3.577480026E-1,4.444030435E-1
7.424899875E0,-3.575221539E-1,4.593046367E-2,1.142122015E-1,3.781218388E-1
7.434885875E0,-6.293059999E-1,-1.532584459E-2,7.692142291E-1,9.939574706E-1
7.444871875E0,-6.765807384E-1,-7.986974984E-2,1.554355397E0,1.697103819E0
7.454857875E0,-4.268753940E-1,-6.663779318E-2,2.096765925E0,2.140815391E0
7.464843875E0,6.955672324E-2,-4.115358084E-2,2.521064158E0,2.522359262E0
7.474829875E0,8.021222126E-1,-4.510629863E-2,3.015149496E0,3.120346311E0
7.484815875E0,1.816474965E0,-1.617190745E-1,3.387031534E0,3.846780078E0
7.494800875E0,3.057711378E0,-3.067946345E-1,3.604242439E0,4.736484496E0
7.504786875E0,4.286658114E0,-3.362236708E-1,3.680010952E0,5.659590511E0
7.514772875E0,5.264899047E0,-4.094547844E-1,3.781256661E0,6.494976299E0
7.524758875E0,5.964531848E0,-8.456442082E-1,3.853138529E0,7.151044037E0
7.534744875E0,6.203142686E0,-1.312142090E0,3.464872885E0,7.225374741E0
7.544730875E0,6.157736717E0,-1.658565643E0,2.420869341E0,6.821229350E0
7.554716875E0,5.907995705E0,-1.706685305E0,1.025901295E0,6.234553829E0
7.564702875E0,5.257169613E0,-1.701492392E0,-1.778398481E-1,5.528520210E0
7.574688875E0,4.483467207E0,-1.961789383E0,-1.244835813E0,5.049723951E0
7.584674875E0,3.704091833E0,-2.119110182E0,-2.178585721E0,4.791363064E0
7.594659875E0,3.227151994E0,-1.993363763E0,-2.864119424E0,4.753018952E0
7.604645875E0,2.612232483E0,-1.950014260E0,-3.297359512E0,4.636689974E0
7.614631875E0,1.800031425E0,-2.026387375E0,-3.532964880E0,4.452886678E0
7.624617875E0,1.162434658E0,-2.083348027E0,-3.568832578E0,4.292803199E0
7.634603875E0,6.038378674E-1,-2.135347315E0,-3.533142636E0,4.172220657E0
7.644589875E0,6.269706219E-1,-2.252252160E0,-3.432798568E0,4.153292424E0
7.654575875E0,9.102231967E-1,-2.274464855E0,-3.133665540E0,3.977632004E0
7.664561875E0,9.555853111E-1,-2.369582097E0,-2.781722800E0,3.777041744E0
7.674547875E0,1.095553036E0,-2.543337372E0,-2.286422557E0,3.591173841E0
7.684532875E0,1.377808660E0,-2.657209851E0,-1.921122583E0,3.556660354E0
7.694518875E0,2.016738008E0,-2.849289131E0,-1.789823648E0,3.922900640E0
7.704504875E0,2.630055966E0,-3.128602436E0,-1.671672616E0,4.415861968E0
7.714490875E0,2.605888839E0,-3.419193851E0,-1.849888148E0,4.680131343E0
7.724476875E0,2.130070496E0,-3.923774064E0,-2.424708184E0,5.080591796E0
7.734462875E0,1.559363537E0,-4.102542157E0,-3.036441547E0,5.336894608E0
7.744448875E0,7.445324010E-1,-4.199354214E0,-3.880910465E0,5.766313410E0
7.754434875E0,-4.853188992E-2,-4.354484062E0,-4.758749734E0,6.450549265E0
7.764420875E0,-6.497548825E-1,-4.174738314E0,-5.323454819E0,6.796307277E0
7.774406875E0,-1.415103371E0,-4.242372765E0,-5.900676745E0,7.403933433E0
7.784391875E0,-2.218408476E0,-4.237765451E0,-6.413675194E0,8.000951298E0
7.794377875E0,-2.891770322E0,-3.881604529E0,-6.349970949E0,7.984442395E0
7.804363875E0,-3.524954780E0,-3.878405810E0,-5.876756955E0,7.874237115E0
7.814349875E0,-4.012648818E0,-4.091683585E0,-5.409450989E0,7.880696993E0
7.824335875E0,-4.552146848E0,-4.014572259E0,-4.868728552E0,7.780960677E0
7.834321875E0,-5.213593823E0,-4.091074598E0,-4.375294887E0,7.941137026E0
7.844307875E0,-5.900865026E0,-4.244259076E0,-4.163115803E0,8.376483531E0
7.854293875E0,-6.398903373E0,-4.251480972E0,-4.067927810E0,8.693048458E0
7.864279875E0,-6.607762992E0,-4.353214046E0,-4.212044134E0,8.964057122E0
7.874265875E0,-6.621575285E0,-4.204058884E0,-4.114401480E0,8.857068922E0
7.884250875E0,-6.701676877E0,-4.104250714E0,-3.081033583E0,8.440978310E0
7.894236875E0,-6.625998704E0,-4.443602645E0,-2.163019410E0,8.266082280E0
7.904222875E0,-6.378705336E0,-4.614132596E0,-1.663853134E0,8.046521524E0
7.914208875E0,-5.951173884E0,-4.561031984E0,-1.357906931E0,7.619934028E0
7.924194875E0,-5.497175011E0,-4.148385497E0,-6.900671951E-1,6.921288035E0
7.934180875E0,-5.279866750E0,-4.058167638E0,2.623739219E-1,6.664424772E0
7.944166875E0,-4.871036448E0,-4.319252541E0,1.148584358E0,6.610762786E0
7.954152875E0,-4.340561841E0,-4.226497282E0,1.750334477E0,6.306142018E0
7.964138875E0,-3.929961587E0,-3.949072334E0,2.110866778E0,5.957812428E0
7.974123875E0,-3.416305912E0,-3.769038319E0,2.262645878E0,5.567437678E0
7.984109875E0,-2.756722444E0,-3.321011792E0,2.463442187E0,4.969626280E0
7.994095875E0,-2.093907221E0,-2.735420453E0,2.996359468E0,4.565648099E0
8.004081875E0,-1.545399801E0,-2.303321449E0,3.822821301E0,4.723082991E0
8.014067875E0,-1.007213886E0,-1.925500394E0,4.976562318E0,5.430304235E0
8.024053875E0,-4.834080291E-1,-1.473953404E0,6.453659624E0,6.637465217E0
8.034039875E0,-5.212102783E-1,-1.221634208E0,7.737014117E0,7.850187115E0
8.044025875E0,-1.165776926E0,-1.297989489E0,8.581499407E0,8.757051137E0
8.054011875E0,-1.902008035E0,-1.367407048E0,9.095887738E0,9.392689197E0
8.063996875E0,-2.240161872E0,-1.565815647E0,9.144776309E0,9.544476810E0
8.073982875E0,-2.113365585E0,-1.618733826E0,8.499348950E0,8.906488976E0
8.083968875E0,-1.876415357E0,-1.515614962E0,7.614316143E0,7.987229409E0
8.093954875E0,-1.866089759E0,-2.048359604E0,6.687507904E0,7.238841760E0
8.103940875E0,-1.864465987E0,-2.573653431E0,5.663822411E0,6.494521515E0
8.113926875E0,-1.676800770E0,-2.857864072E0,5.013566422E0,6.009567052E0
8.123912875E0,-1.504000345E0,-3.297923768E0,4.631364341E0,5.881143926E0
8.133898875E0,-1.381431010E0,-4.107973343E0,4.494313792E0,6.243608979E0
8.143884875E0,-4.891915101E-1,-5.038921119E0,4.213215331E0,6.586441969E0
8.153870875E0,1.672008392E0,-5.551006817E0,3.633624113E0,6.841967038E0
8.163855875E0,4.219083597E0,-5.360302802E0,2.471972398E0,7.255629543E0
8.173841875E0,6.044757986E0,-4.503961698E0,1.638693881E0,7.714278172E0
8.183827875E0,7.401699103E0,-4.194273861E0,1.470568889E0,8.633635138E0
8.193813875E0,7.632724932E0,-4.005709342E0,2.075262789E0,8.866279540E0
8.203799875E0,7.107267821E0,-4.819913072E0,2.653790399E0,8.988182318E0
8.213785875E0,6.916103046E0,-5.675574145E0,2.305198697E0,9.238969870E0
8.223771875E0,7.167107057E0,-5.613519400E0,5.305210921E-1,9.119236604E0
8.233757875E0,7.509673787E0,-4.970191777E0,-1.490181912E0,9.127904953E0
8.243743875E0,7.496894113E0,-4.812506989E0,-2.866610337E0,9.358477423E0
8.253728875E0,6.832382612E0,-4.458565670E0,-3.471605661E0,8.866358094E0
8.263714875E0,5.734332231E0,-4.553880547E0,-3.513572005E0,8.121919872E0
8.273700875E0,4.737573166E0,-4.849716330E0,-3.748053539E0,7.746757600E0
8.283686792E0,4.219313977E0,-4.915569427E0,-4.589098327E0,7.938844796E0
8.293672792E0,4.004241107E0,-4.614271760E0,-5.766079688E0,8.400781254E0
8.303658792E0,3.479006774E0,-4.066671243E0,-6.643656710E0,8.531088888E0
8.313644792E0,2.545775954E0,-3.878261091E0,-6.994695472E0,8.393309778E0
8.323630792E0,1.378331401E0,-3.833820498E0,-6.764520997E0,7.896627215E0
8.333616792E0,2.861831993E-1,-3.697084529E0,-6.359979043E0,7.362042398E0
8.343602792E0,-5.826118898E-1,-3.522605368E0,-6.093498037E0,7.062499807E0
8.353587792E0,-9.432014930E-1,-3.367132582E0,-6.058145771E0,6.994879632E0
8.363573792E0,-1.042799456E0,-3.010304493E0,-6.155214229E0,6.930802698E0
8.373559792E0,-1.106123047E0,-2.696974425E0,-6.150741109E0,6.806525944E0
8.383545792E0,-1.051407142E0,-2.507580187E0,-5.898527309E0,6.495078120E0
8.393531792E0,-1.106350504E0,-2.224901809E0,-5.552857461E0,6.083455061E0
8.403517792E0,-1.195140474E0,-1.913605403E0,-5.223730556E0,5.690132451E0
8.413503792E0,-1.359547806E0,-1.650175181E0,-4.618246697E0,5.089169964E0
8.423489792E0,-1.535716227E0,-1.368950713E0,-3.849354211E0,4.364628074E0
8.433475792E0,-1.537610140E0,-1.182535046E0,-3.189790624E0,3.733282511E0
8.443460792E0,-1.447871752E0,-9.682837093E-1,-2.500283446E0,3.047182841E0
8.453446792E0,-1.479822108E0,-7.421087301E-1,-1.943960638E0,2.553347176E0
8.463432792E0,-1.596184039E0,-5.483907679E-1,-1.658299595E0,2.366113578E0
8.473418792E0,-1.742448630E0,-3.708462042E-1,-1.522803236E0,2.343626214E0
8.483404792E0,-1.700627005E0,-2.048267949E-1,-1.410141424E0,2.218689942E0
8.493390792E0,-1.371772580E0,-1.064985546E-1,-1.399961421E0,1.962904464E0
8.503376792E0,-1.121772535E0,5.356546551E-2,-1.356380954E0,1.760969100E0
8.513362792E0,-1.058132610E0,1.524105996E-1,-1.082100931E0,1.521123281E0
8.523348792E0,-8.429761237E-1,7.859067142E-2,-6.400045773E-1,1.061315739E0
8.533334792E0,-7.536154658E-1,9.195360571E-2,-3.732640278E-1,8.460010463E-1
8.543319792E0,-8.080220532E-1,1.379454651E-1,-3.481384691E-1,8.905778930E-1
8.553305792E0,-8.713368738E-1,1.601309708E-1,-4.015481794E-1,9.726822789E-1
8.563291792E0,-9.253803492E-1,1.323353541E-1,-3.692609509E-1,1.005084617E0
8.573277792E0,-1.114840661E0,1.706682381E-1,-2.581474813E-1,1.156995017E0
8.583263792E0,-1.325373754E0,2.123623940E-1,-3.508436103E-1,1.387373278E0
8.593249792E0,-1.617295411E0,3.405123112E-1,-7.165669227E-1,1.801405350E0
8.603235792E0,-1.948432004E0,4.243587524E-1,-1.110711358E0,2.282574718E0
8.613221792E0,-2.024309567E0,4.154297617E-1,-1.213519369E0,2.396464139E0
8.623207792E0,-1.919867186E0,3.836878592E-1,-1.015169023E0,2.205374012E0
8.633192792E0,-1.730030898E0,3.367122057E-1,-9.003624523E-1,1.979149960E0
8.643178792E0,-1.220053121E0,1.248091105E-1,-8.780179755E-1,1.508317771E0
8.653164792E0,-7.096467429E-1,2.737812549E-2,-7.928999110E-1,1.064442732E0
8.663150792E0,-3.783528596E-1,-3.867699265E-2,-9.290358822E-1,1.003869746E0
8.673136792E0,-1.481707835E-1,-1.059132484E-1,-1.096435819E0,1.111460167E0
8.683122792E0,-1.256537408E-1,-1.189864531E-1,-1.181577126E0,1.194182207E0
8.693108792E0,-9.407526791E-2,-4.169298649E-2,-1.287575598E0,1.291680836E0
8.703094792E0,-1.575163883E-1,5.185954034E-2,-1.531797570E0,1.540748071E0
8.713080792E0,-4.309970963E-1,4.511857778E-2,-1.814776933E0,1.865799963E0
8.723066792E0,-6.377786154E-1,1.113885811E-1,-2.079355255E0,2.177817085E0
8.733051792E0,-8.198556483E-1,1.755977333E-1,-2.254879314E0,2.405717890E0
8.743037792E0,-1.180560442E0,1.639413089E-1,-2.323161636E0,2.611068689E0
8.753023792E0,-1.673505279E0,9.452345699E-2,-2.218666192E0,2.780653570E0
8.763009792E0,-2.198469470E0,2.269596756E-3,-1.974452698E0,2.954951204E0
8.772995792E0,-2.746038412E0,-1.052668387E-1,-1.852457706E0,3.314122451E0
8.782981792E0,-3.212650899E0,-2.566079825E-2,-1.841360714E0,3.703024919E0
8.792967792E0,-3.425188417E0,5.304067791E-2,-1.888442495E0,3.911642118E0
8.802953792E0,-3.037373593E0,7.517297387E-2,-1.793607674E0,3.528217369E0
8.812939792E0,-2.162828352E0,6.841593146E-2,-1.359071989E0,2.555305048E0
8.822924792E0,-1.237279603E0,-8.767256677E-2,-6.568443391E-1,1.403563957E0
8.832910792E0,-4.597689056E-1,-2.045537299E-1,1.598731086E-1,5.280048161E-1
8.842896792E0,2.315368760E-1,-3.286181974E-1,1.017896165E0,1.094400222E0
8.852882792E0,7.545475119E-1,-3.649615663E-1,1.837178932E0,2.019347746E0
8.862868792E0,1.180296147E0,-3.550388414E-1,2.390011245E0,2.689108649E0
8.872854792E0,1.414440297E0,-4.304421955E-1,2.905610389E0,3.260137048E0
8.882840792E0,1.642926096E0,-4.677509397E-1,3.396311358E0,3.801700664E0
8.892826792E0,1.875035414E0,-4.633918405E-1,3.593110802E0,4.079330220E0
8.902812792E0,2.090382519E0,-4.419705659E-1,3.377276039E0,3.996377172E0
8.912797792E0,2.686332493E0,-4.005307639E-1,2.979123631E0,4.031375046E0
8.922783792E0,3.298443586E0,-3.386321390E-1,2.547493865E0,4.181402493E0
8.932769792E0,3.677937822E0,-3.633693695E-1,2.080458040E0,4.241175495E0
8.942755792E0,3.907971379E0,-3.902437574E-1,1.679769402E0,4.271551911E0
8.952741792E0,4.090933680E0,-4.275402224E-1,1.487641882E0,4.373969294E0
8.962727792E0,3.997581128E0,-7.006443697E-1,1.248343997E0,4.246165345E0
8.972713792E0,3.697243574E0,-8.927242345E-1,7.776950307E-1,3.882187033E0
8.982699792E0,3.669417844E0,-9.809867853E-1,9.776193738E-2,3.799542049E0
8.992685792E0,3.790222489E0,-1.008801405E0,-6.518373683E-1,3.975972679E0
9.002671792E0,4.229304530E0,-1.025313358E0,-1.237684815E0,4.524394765E0
9.012656792E0,4.742339816E0,-1.057017546E0,-1.582655336E0,5.109977587E0
9.022642792E0,5.082221505E0,-1.285891015E0,-1.713116072E0,5.515184295E0
9.032628792E0,5.029413546E0,-1.788737528E0,-1.733027011E0,5.612304801E0
9.042614792E0,4.746460934E0,-2.275643946E0,-1.806349780E0,5.565100744E0
9.052600792E0,4.378676916E0,-2.492649906E0,-2.060729242E0,5.443594410E0
9.062586792E0,3.816459530E0,-2.813174388E0,-2.361771825E0,5.296912273E0
9.072572792E0,3.259199413E0,-3.322341156E0,-2.732075261E0,5.396718151E0
9.082558792E0,2.657234994E0,-3.592284299E0,-3.295891861E0,5.552324509E0
9.092544792E0,2.241002117E0,-3.774101715E0,-3.806281282E0,5.809794440E0
9.102529792E0,2.150112997E0,-3.941823249E0,-4.012328975E0,6.021606117E0
9.112515792E0,1.920896296E0,-4.156596742E0,-4.060270296E0,6.119880222E0
9.122501792E0,1.913139380E0,-4.512908230E0,-4.129582021E0,6.409359613E0
9.132487792E0,2.009194515E0,-4.601510504E0,-4.260431598E0,6.584985871E0
9.142473792E0,1.806427109E0,-4.625203714E0,-4.190837452E0,6.497600084E0
9.152459792E0,1.410637853E0,-4.904059768E0,-3.560460827E0,6.222265075E0
9.162445792E0,5.936806691E-1,-5.174073662E0,-2.715559216E0,5.873479109E0
9.172431792E0,-4.684233695E-1,-5.529543443E0,-2.199853360E0,5.969474511E0
9.182417792E0,-1.403463319E0,-5.659309530E0,-1.869273714E0,6.123044820E0
9.192402792E0,-2.216078360E0,-5.631222430E0,-2.073668253E0,6.397012535E0
9.202388792E0,-2.759758903E0,-5.473915372E0,-2.976651428E0,6.814724677E0
9.212374792E0,-3.030927038E0,-5.063293483E0,-4.203948079E0,7.245456442E0
9.222360792E0,-3.248080348E0,-4.724965692E0,-5.467924315E0,7.922974381E0
9.232346792E0,-3.506707374E0,-4.361949787E0,-6.561407436E0,8.624133005E0
9.242332792E0,-3.779441977E0,-4.036148485E0,-7.211036603E0,9.087008592E0
9.252318792E0,-4.044669340E0,-3.747374969E0,-7.163926756E0,9.040133617E0
9.262304792E0,-4.415475199E0,-3.862186511E0,-6.559860263E0,8.800265481E0
9.272290792E0,-4.865783309E0,-4.199933966E0,-6.007904155E0,8.798306932E0
9.282277292E0,-5.313277740E0,-4.303890443E0,-5.616787409E0,8.848880951E0
9.292262292E0,-5.729626392E0,-4.135650846E0,-4.872309387E0,8.583217652E0
9.302248292E0,-6.081949786E0,-4.288427482E0,-3.857506399E0,8.382188204E0
9.312234292E0,-6.295904669E0,-4.246271103E0,-2.993575609E0,8.162764777E0
9.322220292E0,-6.669273362E0,-4.324508603E0,-2.248297542E0,8.260473574E0
9.332206292E0,-6.733512627E0,-4.468443079E0,-1.829667453E0,8.285822762E0
9.342192292E0,-6.725576202E0,-4.229020648E0,-1.623991788E0,8.108966655E0
9.352178292E0,-6.724542999E0,-4.248270559E0,-1.582498630E0,8.109968138E0
9.362164292E0,-6.740780132E0,-4.129149035E0,-1.350074001E0,8.019394512E0
9.372150292E0,-6.744231743E0,-3.937480229E0,-8.415629978E-1,7.854720914E0
9.382135292E0,-6.468780524E0,-3.915365767E0,-5.970387250E-2,7.561664837E0
9.392121292E0,-5.818871275E0,-3.854313819E0,1.239309318E0,7.088785898E0
9.402107292E0,-5.013688629E0,-3.894924486E0,2.828956608E0,6.950575941E0
9.412093292E0,-4.081750043E0,-3.819552122E0,4.495604857E0,7.173571277E0
9.422079292E0,-3.060003487E0,-3.442881507E0,5.912054257E0,7.494627406E0
9.432065292E0,-2.271225790E0,-3.005583451E0,6.916722851E0,7.876106491E0
9.442051292E0,-1.752205878E0,-2.371973754E0,7.817346674E0,8.355081923E0
9.452037292E0,-1.367873656E0,-1.820172598E0,8.687764365E0,8.981166755E0
9.462023292E0,-8.375072229E-1,-1.659199628E0,9.566713729E0,9.745582247E0
9.472008292E0,-3.124722809E-1,-1.712749744E0,1.022607851E1,1.037322671E1
9.481994292E0,-1.777904391E-1,-2.122191811E0,1.025242489E1,1.047127135E1
9.491980292E0,-1.837779880E-1,-2.296901498E0,9.627746381E0,9.899648035E0
9.501966292E0,-7.281952804E-1,-1.946172932E0,8.587286981E0,8.835120550E0
9.511952292E0,-1.706870077E0,-1.561997415E0,7.540831261E0,7.887799280E0
9.521938292E0,-1.878546667E0,-2.095622355E0,6.587070281E0,7.163104461E0
9.531924292E0,-1.165165892E0,-3.100901837E0,5.846052057E0,6.719339879E0
9.541910292E0,-2.465028244E-1,-3.813626554E0,4.975315107E0,6.273617103E0
9.551896292E0,9.153921354E-1,-3.697021672E0,3.892202607E0,5.445654519E0
9.561882292E0,1.738109411E0,-3.024410900E0,2.732602095E0,4.431162356E0
9.571867292E0,2.051924797E0,-2.572773425E0,1.878921474E0,3.789446447E0
9.581853292E0,2.148960510E0,-2.536936133E0,1.419069538E0,3.614945998E0
9.591839292E0,2.240355415E0,-2.866483453E0,1.556490215E0,3.957092564E0
9.601825292E0,3.322000263E0,-3.558645852E0,1.414178634E0,5.069472088E0
9.611811292E0,4.558324431E0,-3.333912796E0,9.613038880E-1,5.728647425E0
9.621797292E0,5.753067879E0,-3.151551003E0,1.497173721E-1,6.561438793E0
9.631783292E0,6.873095605E0,-2.907855427E0,-4.576279476E-1,7.476930502E0
9.641769292E0,7.763940545E0,-3.229812477E0,-9.276259723E-1,8.459961664E0
9.651755292E0,8.178372479E0,-3.290458628E0,-1.413142507E0,8.928038202E0
9.661740292E0,7.952444252E0,-3.532368464E0,-1.914249766E0,8.909733370E0
9.671726292E0,7.382907321E0,-4.004076215E0,-2.477674602E0,8.756644237E0
9.681712292E0,6.653828527E0,-4.294015666E0,-3.365633941E0,8.604620644E0
9.691698292E0,6.108928254E0,-4.308901507E0,-4.316568961E0,8.632404312E0
9.701684292E0,5.502595380E0,-4.253233675E0,-4.888596221E0,8.500995567E0
9.711670292E0,4.444935810E0,-4.338032336E0,-5.344628756E0,8.193963354E0
9.721656292E0,3.562381053E0,-4.505804740E0,-5.630259393E0,8.043174495E0
9.731642292E0,2.598016732E0,-4.466608515E0,-5.950309081E0,7.880765237E0
9.741628292E0,1.478058588E0,-4.297705259E0,-6.320757090E0,7.785043216E0
9.751613292E0,4.403801233E-1,-3.998390967E0,-6.410377364E0,7.567958967E0
9.761599292E0,-3.519982892E-1,-3.670687859E0,-6.108175718E0,7.134960599E0
9.771585292E0,-6.284277481E-1,-3.463511653E0,-5.699378160E0,6.698786892E0
9.781571292E0,-7.878468204E-1,-3.252216668E0,-5.296226674E0,6.264793121E0
9.791557292E0,-1.204553322E0,-2.975211843E0,-5.122007715E0,6.044650300E0
9.801543292E0,-1.480844201E0,-2.499160196E0,-5.113468441E0,5.881008479E0
9.811529292E0,-1.665747778E0,-2.029879040E0,-5.262498180E0,5.881242358E0
9.821515292E0,-1.684277605E0,-1.632300535E0,-5.305588067E0,5.800901725E0
9.831501292E0,-1.784718152E0,-1.332850881E0,-5.061625273E0,5.530077825E0
9.841487292E0,-1.923115314E0,-1.130168552E0,-4.540425519E0,5.058766388E0
9.851472292E0,-2.050298687E0,-9.280873176E-1,-3.880276626E0,4.485712593E0
9.861458292E0,-2.157005110E0,-7.385530382E-1,-3.371171254E0,4.069757641E0
9.871444292E0,-2.186049399E0,-5.547002059E-1,-3.035796014E0,3.781872781E0
9.881430292E0,-2.151396461E0,-3.951323220E-1,-2.616342491E0,3.410261619E0
9.891416292E0,-1.995050685E0,-3.190954220E-1,-2.092834257E0,2.908952449E0
9.901402292E0,-1.665595751E0,-2.390338835E-1,-1.612864391E0,2.330810577E0
9.911388292E0,-1.593030635E0,-1.272222564E-1,-1.271147261E0,2.041995951E0
9.921374292E0,-1.378612068E0,-9.569377720E-2,-1.035903250E0,1.727085428E0
9.931360292E0,-1.134554549E0,1.282615989E-2,-8.510061049E-1,1.418305300E0
9.941345292E0,-1.104357188E0,9.558589607E-2,-8.497033453E-1,1.396687953E0
9.951331292E0,-1.171675013E0,1.776308101E-1,-8.735681713E-1,1.472241960E0
9.961317292E0,-1.261625070E0,2.365029162E-1,-8.690646458E-1,1.550130577E0
9.971303292E0,-1.307293578E0,3.086327067E-1,-7.679779816E-1,1.547275292E0
9.981289292E0,-1.348380209E0,3.563398468E-1,-6.560529184E-1,1.541269835E0
9.991275292E0,-1.418690053E0,3.942116779E-1,-5.554784703E-1,1.573734617E0
1.000126129E1,-1.381008257E0,4.423637912E-1,-4.259451020E-1,1.511389678E0
1.001124729E1,-1.360112062E0,5.371810707E-1,-2.111160600E-1,1.477510851E0
1.002123329E1,-1.323975685E0,6.107217944E-1,-1.929694455E-2,1.458171833E0
1.003121829E1,-9.991558385E-1,5.741173473E-1,1.257244921E-1,1.159193584E0
1.004120429E1,-6.796370780E-1,4.528145197E-1,3.202859517E-1,8.772289541E-1
1.005119029E1,-4.266239637E-1,3.701541862E-1,2.536346734E-1,6.191548074E-1
1.006117629E1,-1.742610598E-1,3.721194354E-1,-1.976709723E-2,4.113763839E-1
1.007116229E1,2.294733936E-1,3.041093007E-1,-3.861465403E-1,5.424478368E-1
1.008114829E1,8.231587404E-1,3.280127183E-1,-6.479171026E-1,1.097715458E0
1.009113429E1,1.056700627E0,3.343104619E-1,-5.985220905E-1,1.259606443E0
1.010112029E1,8.561411297E-1,3.061938331E-1,-4.066201273E-1,9.960282252E-1
1.011110629E1,5.782317406E-1,1.480333740E-1,-4.017926661E-1,7.195159291E-1
1.012109129E1,2.665634519E-1,1.653007865E-2,-2.923409021E-1,3.959703530E-1
1.013107729E1,-1.171507198E-1,-7.427133322E-2,-3.137300900E-1,3.430263714E-1
1.014106329E1,-4.932418764E-1,-7.258791983E-2,-5.150682899E-1,7.168346378E-1
1.015104929E1,-8.457769400E-1,3.632465780E-2,-8.986140617E-1,1.234570915E0
1.016103529E1,-1.211112143E0,1.546079832E-1,-1.369324204E0,1.834596694E0
1.017102129E1,-1.635871430E0,2.472097528E-1,-1.862182649E0,2.490966121E0
1.018100729E1,-2.117697787E0,3.906150556E-1,-2.355435051E0,3.191441417E0
1.019099329E1,-2.569941911E0,5.066296613E-1,-2.641211869E0,3.719848811E0
1.020097929E1,-3.060782336E0,5.904904282E-1,-2.672381036E0,4.105933250E0
1.021096429E1,-3.572818333E0,6.298451132E-1,-2.588002206E0,4.456398897E0
1.022095029E1,-3.952493833E0,6.861292416E-1,-2.228674578E0,4.589114425E0
1.023093629E1,-4.115352237E0,6.749920499E-1,-1.694311573E0,4.501380900E0
1.024092229E1,-3.941754836E0,6.178793710E-1,-9.285860851E-1,4.096520258E0
1.025090829E1,-3.164340034E0,4.978909975E-1,1.678159663E-1,3.207663557E0
1.026089429E1,-1.931193827E0,2.982916135E-1,1.272566965E0,2.331933568E0
1.027088029E1,-4.692940199E-1,-1.134739906E-1,2.200533537E0,2.252878397E0
1.028086637E1,1.047200655E0,-3.668946558E-1,2.744580409E0,2.960399048E0
1.029085237E1,2.561742361E0,-4.482972533E-1,2.865223378E0,3.869496008E0
1.030083837E1,4.010742626E0,-5.577635622E-1,2.584621638E0,4.803896920E0
1.031082337E1,5.613002506E0,-5.983672124E-1,2.151656369E0,6.040982170E0
1.032080937E1,6.729554647E0,-5.848045957E-1,1.663493092E0,6.956731376E0
1.033079537E1,7.477466154E0,-7.793818063E-1,1.267520818E0,7.624076673E0
1.034078137E1,7.703164585E0,-1.120616541E0,9.905101454E-1,7.847014490E0
1.035076737E1,7.740054669E0,-1.536815504E0,5.496107894E-1,7.910266758E0
1.036075337E1,7.762350102E0,-1.924498181E0,-5.654374480E-2,7.997560225E0
1.037073937E1,7.313899652E0,-2.295337368E0,-7.017787296E-1,7.697674658E0
1.038072537E1,6.637186182E0,-2.776476093E0,-1.267639224E0,7.305338398E0
1.039071137E1,5.782391081E0,-3.291992353E0,-1.802107186E0,6.893536870E0
1.040069637E1,4.876483714E0,-3.687015039E0,-2.273825170E0,6.522610997E0
1.041068237E1,4.113798632E0,-4.046213590E0,-2.574892164E0,6.318643308E0
1.042066837E1,3.523453215E0,-4.452724301E0,-2.795637419E0,6.329065084E0
1.043065437E1,2.992827165E0,-4.785463616E0,-3.139469779E0,6.458633521E0
1.044064037E1,2.535338674E0,-4.998885818E0,-3.575545474E0,6.648407858E0
1.045062637E1,2.212693992E0,-5.292090354E0,-4.038405218E0,7.015051797E0
1.046061237E1,2.115554198E0,-5.537430167E0,-4.503194543E0,7.444290666E0
1.047059837E1,1.951528105E0,-5.612379777E0,-4.966731395E0,7.744397294E0
1.048058437E1,1.895228773E0,-5.733954501E0,-5.479943851E0,8.154747754E0
1.049056937E1,1.751643961E0,-5.930054326E0,-5.904852827E0,8.549917414E0
1.050055537E1,1.222518307E0,-5.967043228E0,-6.123849764E0,8.637227091E0
1.051054137E1,6.016410685E-1,-6.029130718E0,-6.039545778E0,8.555027901E0
1.052052737E1,3.283153117E-2,-6.080190943E0,-5.523051864E0,8.214249918E0
1.053051337E1,-7.856663936E-1,-6.150352854E0,-4.850436122E0,7.872156152E0
1.054049937E1,-1.417725847E0,-6.353274041E0,-4.192315629E0,7.742709341E0
1.055048537E1,-1.993289503E0,-6.531950918E0,-3.641284550E0,7.739414643E0
1.056047137E1,-2.551631355E0,-6.752345340E0,-3.517472098E0,8.029794525E0
1.057045737E1,-3.098892733E0,-6.659272869E0,-3.670437598E0,8.211039123E0
1.058044237E1,-3.386200937E0,-6.285163334E0,-4.094554861E0,8.230128458E0
1.059042837E1,-3.822420182E0,-6.183624680E0,-4.633590961E0,8.620804801E0
1.060041437E1,-4.320238674E0,-6.043620703E0,-4.978760287E0,8.943034574E0
1.061040037E1,-4.989514486E0,-5.868703001E0,-5.080816419E0,9.227763824E0
1.062038637E1,-5.907706853E0,-5.698429742E0,-5.001176172E0,9.611704578E0
1.063037237E1,-6.608482785E0,-5.623104740E0,-4.847222493E0,9.939160806E0
1.064035837E1,-6.945097049E0,-5.418825830E0,-4.564723624E0,9.921428736E0
1.065034437E1,-7.328076226E0,-5.150434538E0,-4.152996612E0,9.872945759E0
1.066033037E1,-7.642320213E0,-5.145967265E0,-3.863628434E0,9.990678756E0
1.067031537E1,-7.662256295E0,-4.810419825E0,-3.653846124E0,9.757094953E0
1.068030137E1,-7.694784940E0,-4.415314693E0,-3.346396016E0,9.481723758E0
1.069028737E1,-7.751706415E0,-4.233672400E0,-2.893823279E0,9.294468651E0
1.070027337E1,-7.954397807E0,-4.077510519E0,-2.397857770E0,9.254634428E0
1.071025937E1,-8.175944715E0,-3.778428655E0,-1.880303755E0,9.200985670E0
1.072024537E1,-8.453244240E0,-3.584092349E0,-1.195930360E0,9.259228130E0
1.073023137E1,-8.618534501E0,-3.530317261E0,-4.572471477E-1,9.324770875E0
1.074021737E1,-8.680436634E0,-3.533710985E0,3.794959172E-1,9.379824659E0
1.075020337E1,-8.260469726E0,-3.556952790E0,1.287165123E0,9.085376563E0
1.076018937E1,-7.663805807E0,-3.496713313E0,2.247774947E0,8.718567294E0
1.077017437E1,-7.154041454E0,-3.400583333E0,3.539076975E0,8.675790567E0
1.078016037E1,-6.251854085E0,-3.368233613E0,4.703082780E0,8.517609102E0
1.079014637E1,-5.173541565E0,-3.469143399E0,5.540880024E0,8.336776337E0
1.080013237E1,-3.775006864E0,-3.663415092E0,6.209202740E0,8.137904253E0
1.081011837E1,-2.230155532E0,-3.479326617E0,6.782812257E0,7.942660103E0
1.082010437E1,-9.347475886E-1,-3.024210049E0,7.242109877E0,7.903654531E0
1.083009037E1,3.710338998E-1,-2.729834023E0,7.507813203E0,7.997306987E0
1.084007637E1,1.614940152E0,-2.641213623E0,7.632811471E0,8.236737950E0
1.085006237E1,2.665271991E0,-2.580819486E0,7.836541328E0,8.670391225E0
1.086004737E1,3.803593317E0,-2.905033561E0,7.801076796E0,9.152231492E0
1.087003337E1,5.059025016E0,-3.055645265E0,7.329533937E0,9.415559985E0
1.088001937E1,6.105504125E0,-2.898541397E0,6.677797433E0,9.501142111E0
1.089000537E1,6.632292062E0,-2.453286158E0,5.581564951E0,9.008872198E0
1.089999137E1,5.972565338E0,-1.595005532E0,4.472853341E0,7.630333962E0
1.090997737E1,4.438822546E0,-1.070237223E0,3.702742588E0,5.878678081E0
1.091996337E1,2.494746133E0,-1.160254231E0,3.455078799E0,4.416731558E0
1.092994937E1,3.573525846E-1,-1.267177586E0,3.666382847E0,3.895613313E0
1.093993537E1,-1.265400617E0,-1.535247865E0,3.897766525E0,4.376163687E0
1.094992037E1,-1.770412939E0,-1.918317674E0,3.589214803E0,4.438104051E0
1.095990637E1,-1.113734953E0,-2.565236657E0,2.638591146E0,3.844867733E0
1.096989237E1,1.109035546E-1,-2.532068911E0,1.340636887E0,2.867225110E0
1.097987837E1,1.744817922E0,-2.444949490E0,-5.865458965E-2,3.004264960E0
1.098986437E1,3.846113684E0,-2.427376853E0,-1.286731406E0,4.726566044E0
1.099985037E1,5.806671059E0,-2.610668353E0,-2.181591482E0,6.729959839E0
1.100983637E1,7.193921219E0,-2.942450479E0,-2.880791005E0,8.289117814E0
1.101982237E1,8.079141721E0,-3.077414741E0,-3.480525881E0,9.319714204E0
1.102980837E1,8.576066174E0,-3.214726660E0,-4.145500481E0,1.005328567E1
1.103979337E1,8.394190870E0,-3.477298218E0,-4.659239187E0,1.021090364E1
1.104977937E1,7.580465443E0,-3.791991271E0,-4.832124982E0,9.756643171E0
1.105976537E1,6.328299998E0,-4.093649127E0,-4.883506805E0,8.980756246E0
1.106975137E1,5.072689374E0,-4.372851920E0,-5.048788880E0,8.387149728E0
1.107973737E1,3.826997967E0,-4.465810955E0,-5.079583826E0,7.771200214E0
1.108972337E1,2.708819130E0,-4.542916433E0,-4.913020041E0,7.218971999E0
1.109970937E1,1.553588242E0,-4.400277700E0,-4.868028055E0,6.743424754E0
1.110969537E1,6.198949063E-1,-4.178294590E0,-5.210310026E0,6.707439597E0
1.111968137E1,1.266050828E-1,-3.757089534E0,-5.695559928E0,6.824306083E0
1.112966637E1,-5.485039115E-2,-3.250843450E0,-6.070257109E0,6.886146460E0
1.113965237E1,-1.900245684E-1,-2.878046907E0,-6.337186012E0,6.962699899E0
1.114963837E1,-2.056635314E-1,-2.518600142E0,-6.301379417E0,6.789184540E0
1.115962437E1,-2.813241631E-1,-2.171461766E0,-5.949005152E0,6.339168067E0
1.116961037E1,-4.387528431E-1,-1.920765026E0,-5.497056897E0,5.839475736E0
1.117959637E1,-6.197709453E-1,-1.595278012E0,-5.015444548E0,5.299406757E0
1.118958237E1,-1.023466807E0,-1.322224151E0,-4.333351055E0,4.644748903E0
1.119956837E1,-1.631846207E0,-1.120190571E0,-3.369296052E0,3.907672561E0
1.120955437E1,-2.032823698E0,-8.617208353E-1,-2.718576964E0,3.502227247E0
1.121953937E1,-2.176588020E0,-6.192619452E-1,-2.421641904E0,3.314418543E0
1.122952537E1,-2.226217432E0,-3.220529437E-1,-2.199643006E0,3.146139143E0
1.123951137E1,-2.304646720E0,-1.221515509E-1,-1.938014020E0,3.013671490E0
1.124949737E1,-2.262477186E0,3.816623837E-2,-1.618197051E0,2.781873716E0
1.125948337E1,-2.004757063E0,1.128761128E-1,-1.364513261E0,2.427691978E0
1.126946937E1,-1.728931037E0,2.059529686E-1,-1.160546007E0,2.092483259E0
1.127945479E1,-1.632355499E0,3.838998207E-1,-8.623017561E-1,1.885610741E0
1.128944079E1,-1.564116154E0,4.154259610E-1,-6.713328624E-1,1.752063322E0
1.129942679E1,-1.412087962E0,3.331404340E-1,-6.875448525E-1,1.605519506E0
1.130941179E1,-1.284750223E0,4.179043034E-1,-9.215937654E-1,1.635408882E0
1.131939779E1,-1.261154954E0,5.589072776E-1,-1.027599034E0,1.720130500E0
1.132938379E1,-1.337782130E0,6.141149336E-1,-8.946848059E-1,1.722573389E0
1.133936979E1,-1.308480563E0,5.132080713E-1,-7.430372679E-1,1.589845367E0
1.134935579E1,-1.137133756E0,4.165407327E-1,-5.946325958E-1,1.349135755E0
1.135934179E1,-1.018244659E0,4.759946367E-1,-4.498390178E-1,1.210680892E0
1.136932779E1,-9.960959905E-1,4.727748674E-1,-3.463737794E-1,1.155724056E0
1.137931379E1,-9.239115286E-1,3.842696571E-1,-1.720355364E-1,1.015318624E0
1.138929979E1,-9.084713709E-1,3.361850792E-1,3.775430202E-2,9.694153014E-1
1.139928579E1,-8.628747833E-1,2.675978243E-1,1.231049395E-1,9.117654925E-1
1.140927079E1,-7.547527492E-1,2.666839045E-1,9.487706736E-2,8.060854020E-1
1.141925679E1,-7.695795339E-1,2.521217063E-1,-1.107895339E-1,8.173691545E-1
1.142924279E1,-7.910382307E-1,3.450778171E-1,-5.443570662E-1,1.020365032E0
1.143922879E1,-8.696856201E-1,5.157483941E-1,-9.693724608E-1,1.400725688E0
1.144921479E1,-9.315240186E-1,5.069661686E-1,-1.211375853E0,1.610025823E0
1.145920079E1,-9.152225661E-1,4.641923243E-1,-1.365842918E0,1.708400930E0
1.146918679E1,-8.830839300E-1,4.033327496E-1,-1.545904416E0,1.825468432E0
1.147917279E1,-8.527362961E-1,4.227536917E-1,-1.778884385E0,2.017500812E0
1.148915879E1,-7.104788017E-1,4.835053852E-1,-1.924622580E0,2.107778371E0
1.149914379E1,-6.979517269E-1,3.205607343E-1,-1.985359948E0,2.128743742E0
1.150912979E1,-5.876937050E-1,5.374322087E-2,-2.070945644E0,2.153389905E0
1.151911579E1,-3.303249997E-1,1.967669928E-1,-2.203357012E0,2.236652404E0
1.152910179E1,-4.714802939E-1,3.116992790E-1,-2.062384297E0,2.138429119E0
1.153908779E1,-7.679545927E-1,2.647856060E-1,-1.527555853E0,1.730113452E0
1.154907379E1,-8.650534558E-1,2.485742006E-1,-7.697488108E-1,1.184322526E0
1.155905979E1,-5.918504906E-1,1.132248992E-1,1.602835831E-1,6.235364528E-1
1.156904579E1,-3.301343805E-1,4.697711527E-2,8.373914480E-1,9.013434394E-1
1.157903179E1,-2.965795487E-1,1.759690315E-2,1.184648522E0,1.221335827E0
1.158901679E1,-3.498137695E-1,2.757488430E-2,1.349250859E0,1.394133397E0
1.159900279E1,-4.457741797E-1,1.028952080E-1,1.261972687E0,1.342340160E0
1.160898879E1,-5.189105684E-1,1.890983695E-1,1.002958868E0,1.144968498E0
1.161897479E1,-3.863641298E-1,3.687716120E-1,9.122524729E-1,1.057106578E0
1.162896079E1,2.418104339E-1,3.657322294E-1,1.282232412E0,1.355120773E0
1.163894679E1,8.513452435E-1,2.570190418E-1,1.932199841E0,2.127026971E0
1.164893279E1,1.173428008E0,9.265147090E-2,2.550291173E0,2.808825850E0
1.165891879E1,1.324758627E0,-1.194258714E-1,2.758029297E0,3.062021156E0
1.166890479E1,1.574158747E0,-3.825815660E-1,2.457528605E0,2.943431885E0
1.167888979E1,1.973874409E0,-4.126725072E-1,1.522242196E0,2.526598520E0
1.168887579E1,2.499813915E0,-2.195682102E-1,3.876695207E-1,2.539206070E0
1.169886179E1,3.001902629E0,-2.113037556E-1,-4.255349198E-1,3.039267780E0
1.170884779E1,3.386032537E0,-3.570654863E-1,-8.059041917E-1,3.498884632E0
1.171883379E1,3.813162285E0,-6.611025739E-1,-8.106202635E-1,3.954031922E0
1.172881979E1,4.485670438E0,-9.917696357E-1,-8.540340856E-1,4.672710189E0
1.173880579E1,5.168780762E0,-1.216632500E0,-7.917887208E-1,5.368744600E0
1.174879179E1,5.500678663E0,-1.644929352E0,-7.820864359E-1,5.794386725E0
1.175877779E1,5.422636460E0,-2.020241659E0,-1.012549471E0,5.874659051E0
1.176876279E1,4.968290847E0,-2.366286314E0,-1.353933602E0,5.667129878E0
1.177874879E1,4.653117152E0,-2.725659111E0,-1.811846309E0,5.688893027E0
1.178873479E1,4.186943207E0,-2.991893950E0,-2.277191412E0,5.627390474E0
1.179872079E1,3.890308694E0,-3.369401886E0,-2.671688726E0,5.798731884E0
1.180870679E1,4.112505228E0,-3.667430668E0,-3.011959839E0,6.279701348E0
1.181869279E1,4.067175858E0,-3.826061535E0,-3.364755689E0,6.519374754E0
1.182867879E1,4.390470750E0,-4.289565350E0,-3.609609599E0,7.120806538E0
1.183866479E1,4.800333086E0,-4.366235796E0,-3.751904515E0,7.495598725E0
1.184865079E1,5.029499500E0,-4.340612127E0,-3.916511237E0,7.712058035E0
1.185863579E1,4.961871774E0,-4.809178753E0,-3.712664143E0,7.844249283E0
1.186862179E1,4.398480851E0,-5.361268762E0,-3.112114457E0,7.600992891E0
1.187860779E1,3.518687149E0,-5.967983460E0,-2.291448824E0,7.297172298E0
1.188859379E1,2.044574847E0,-6.674119534E0,-1.490825983E0,7.137697106E0
1.189857979E1,2.853792071E-2,-7.393679647E0,-8.634195976E-1,7.443977870E0
1.190856579E1,-1.799854839E0,-7.785370005E0,-8.177869034E-1,8.032449127E0
1.191855179E1,-3.042315075E0,-7.538039215E0,-1.737669554E0,8.312473260E0
1.192853779E1,-3.780396827E0,-6.934804780E0,-3.497550342E0,8.638042366E0
1.193852379E1,-4.133816575E0,-6.263985888E0,-5.407654724E0,9.250334497E0
1.194850879E1,-4.239874542E0,-5.396213477E0,-6.825516812E0,9.679015227E0
1.195849479E1,-4.253704376E0,-4.799784032E0,-7.803872935E0,1.010110689E1
1.196848079E1,-4.265465466E0,-4.428692537E0,-8.459787859E0,1.045827538E1
1.197846679E1,-4.112436231E0,-3.952156741E0,-8.585908792E0,1.030774003E1
1.198845279E1,-4.046804159E0,-3.817998517E0,-8.231037766E0,9.934974548E0
1.199843879E1,-4.223785343E0,-3.914143407E0,-7.422732707E0,9.394564497E0
1.200842479E1,-4.525435597E0,-4.158628650E0,-6.347863612E0,8.835673830E0
1.201841079E1,-4.735675160E0,-4.590080075E0,-5.541823765E0,8.614363874E0
1.202839679E1,-4.885596600E0,-4.623465630E0,-4.882251992E0,8.311550582E0
1.203838179E1,-5.205536944E0,-4.852593160E0,-4.350875745E0,8.341186666E0
1.204836779E1,-5.285922126E0,-4.839459144E0,-4.223046255E0,8.318380684E0
1.205835379E1,-5.230681726E0,-4.528178819E0,-3.964032143E0,7.973580473E0
1.206833979E1,-5.017812670E0,-4.466720489E0,-3.561125071E0,7.603397115E0
1.207832579E1,-4.714041047E0,-4.505229959E0,-2.997799637E0,7.176773832E0
1.208831179E1,-4.192475258E0,-4.852392601E0,-2.684689425E0,6.951986770E0
1.209829779E1,-3.610353949E0,-4.814055039E0,-2.435168853E0,6.491519768E0
1.210828379E1,-3.143798180E0,-4.681254831E0,-2.172980872E0,6.043133266E0
1.211826979E1,-2.813479028E0,-4.424714384E0,-1.890518256E0,5.573851532E0
1.212825479E1,-3.022203577E0,-4.078154882E0,-1.193465904E0,5.214347761E0
1.213824079E1,-3.633346955E0,-3.918742827E0,-2.553116548E-1,5.350041073E0
1.214822679E1,-4.410944191E0,-3.737808048E0,7.411883783E-1,5.828979145E0
1.215821279E1,-4.915231458E0,-3.380432659E0,1.728459166E0,6.210828957E0
1.216819879E1,-5.158588480E0,-3.084436370E0,2.520114863E0,6.517343151E0
1.217818479E1,-5.030881782E0,-2.726517482E0,3.236921521E0,6.574293120E0
1.218817079E1,-4.819959265E0,-2.358905373E0,3.798189905E0,6.574396431E0
1.219815679E1,-4.710276024E0,-2.050896857E0,4.317605380E0,6.710781949E0
1.220814279E1,-4.369902585E0,-1.871995008E0,4.866727050E0,6.803340803E0
1.221812779E1,-3.664661719E0,-1.806970316E0,5.318044975E0,6.706451341E0
1.222811379E1,-2.843344266E0,-1.860345162E0,5.658562256E0,6.600364955E0
1.223809979E1,-1.981528414E0,-1.887954691E0,5.751083919E0,6.369128199E0
1.224808579E1,-1.409161431E0,-1.691553295E0,5.777392881E0,6.182665848E0
1.225807179E1,-1.539194151E0,-1.435644640E0,5.884131464E0,6.249255736E0
1.226805779E1,-1.946160945E0,-1.247770092E0,5.886019530E0,6.323740865E0
1.227804379E1,-1.662669219E0,-1.382579404E0,5.520251632E0,5.928673783E0
1.228802975E1,-7.862546235E-1,-1.715600847E0,5.131762040E0,5.467765927E0
1.229801575E1,6.417845428E-2,-2.063278190E0,4.880478532E0,5.299085436E0
1.230800075E1,1.005159175E0,-2.292296962E0,4.518771526E0,5.165681604E0
1.231798675E1,1.759523084E0,-1.994760663E0,3.954635960E0,4.765935078E0
1.232797275E1,1.800118548E0,-1.276127042E0,3.636571110E0,4.253654482E0
1.233795875E1,1.216320258E0,-1.064428307E0,3.843918055E0,4.169909903E0
1.234794475E1,2.835496134E-1,-1.386736774E0,4.637817036E0,4.848998466E0
1.235793075E1,-3.133394229E-1,-1.912229261E0,5.428481922E0,5.763958563E0
1.236791675E1,2.918228388E-2,-2.346609556E0,5.670472450E0,6.136911749E0
1.237790275E1,1.426529415E0,-2.851406992E0,5.132369565E0,6.042079556E0
1.238788875E1,3.326979167E0,-2.706367977E0,4.476619240E0,6.199462705E0
1.239787375E1,5.008911454E0,-2.273258867E0,4.084797612E0,6.851457608E0
1.240785975E1,5.973144212E0,-1.856790347E0,3.987581512E0,7.418013783E0
1.241784575E1,5.895007285E0,-1.889432428E0,4.417603293E0,7.605017071E0
1.242783175E1,5.475848461E0,-3.070163609E0,4.708642897E0,7.847428807E0
1.243781775E1,5.312561456E0,-4.658138157E0,4.110343805E0,8.174135214E0
1.244780375E1,5.456673687E0,-5.587506891E0,2.724993990E0,8.271705582E0
1.245778975E1,5.870832556E0,-6.216410018E0,5.250996999E-1,8.566572133E0
1.246777575E1,6.638736278E0,-6.342163162E0,-2.195892602E0,9.440222310E0
1.247776175E1,7.017432370E0,-6.424226494E0,-4.758068826E0,1.063739922E1
1.248774775E1,7.171074978E0,-6.662858967E0,-6.860558006E0,1.195346235E1
1.249773275E1,6.848291132E0,-6.388449721E0,-8.236404340E0,1.247195805E1
1.250771875E1,5.971706382E0,-6.052478065E0,-8.865427335E0,1.228371156E1
1.251770475E1,4.770070236E0,-5.989667274E0,-8.631413578E0,1.153824009E1
1.252769075E1,3.392819400E0,-6.000296928E0,-7.709857308E0,1.034198658E1
1.253767675E1,1.928246246E0,-5.857954649E0,-6.815667762E0,9.191686096E0
1.254766275E1,7.644158578E-1,-5.574016196E0,-6.098175809E0,8.297092042E0
1.255764875E1,-2.175924361E-2,-5.192793522E0,-5.501580888E0,7.565247537E0
1.256763475E1,-7.493908525E-1,-4.861256980E0,-5.115537770E0,7.096628266E0
1.257761975E1,-1.260170283E0,-4.575924843E0,-4.880639915E0,6.807919160E0
1.258760575E1,-1.451839088E0,-4.162859403E0,-4.795765826E0,6.514338416E0
1.259759175E1,-1.377526240E0,-3.688257573E0,-4.817698731E0,6.221819953E0
1.260757775E1,-1.372032196E0,-3.279438965E0,-4.850188785E0,6.013445229E0
1.261756375E1,-1.433204597E0,-3.018510183E0,-4.738319855E0,5.798030199E0
1.262754975E1,-1.462987390E0,-2.728172829E0,-4.633955242E0,5.572862844E0
1.263753575E1,-1.417469739E0,-2.367442600E0,-4.662980236E0,5.418245990E0
1.264752175E1,-1.371439288E0,-2.053826897E0,-4.564730056E0,5.189972170E0
1.265750775E1,-1.442406360E0,-1.746604538E0,-4.229714420E0,4.798087910E0
1.266749375E1,-1.669888192E0,-1.430603755E0,-3.895402789E0,4.473177457E0
1.267747875E1,-1.941283783E0,-1.219146510E0,-3.596632288E0,4.265051553E0
1.268746475E1,-2.056807222E0,-1.023154858E0,-3.025067543E0,3.798464881E0
1.269745075E1,-2.199096876E0,-8.826442194E-1,-2.291448385E0,3.296334872E0
1.270743675E1,-2.327606397E0,-7.245626977E-1,-1.807149240E0,3.034556149E0
1.271742275E1,-2.066725270E0,-5.945174056E-1,-1.567973562E0,2.661455500E0
1.272740875E1,-1.483368444E0,-5.091369474E-1,-1.340495238E0,2.063135928E0
1.273739475E1,-1.161324272E0,-3.409742412E-1,-9.969075841E-1,1.568044077E0
1.274738075E1,-1.062765359E0,-2.085003081E-1,-6.624860251E-1,1.269578796E0
1.275736675E1,-1.047146276E0,-9.221322209E-2,-5.642890549E-1,1.193080358E0
1.276735175E1,-1.097172714E0,4.242768914E-2,-6.643512869E-1,1.283335773E0
1.277733775E1,-1.107256238E0,2.129117399E-2,-8.933340991E-1,1.422854702E0
1.278732375E1,-1.199090268E0,6.117678612E-2,-1.181664981E0,1.684604463E0
1.279730975E1,-1.359657733E0,1.886814630E-1,-1.397532488E0,1.958919830E0
1.280729575E1,-1.597694959E0,2.703024539E-1,-1.606299137E0,2.281641847E0
1.281728175E1,-1.757048542E0,3.590140709E-1,-1.842115005E0,2.570894470E0
1.282726775E1,-1.826611698E0,5.504220906E-1,-1.894766843E0,2.688794556E0
1.283725375E1,-1.943628516E0,6.347690535E-1,-1.639071611E0,2.620530348E0
1.284723975E1,-2.050044333E0,5.011028731E-1,-1.205430404E0,2.430400855E0
1.285722475E1,-1.786382854E0,2.609954408E-1,-7.941208827E-1,1.972285552E0
1.286721075E1,-1.392955872E0,3.109970284E-1,-3.894140009E-1,1.479421670E0
1.287719675E1,-1.030775242E0,2.599502510E-1,-6.375102282E-2,1.064958180E0
1.288718275E1,-5.434601033E-1,2.010418922E-2,9.540792145E-2,5.521374229E-1
1.289716875E1,-7.501100600E-2,-3.870681345E-2,-1.166074769E-1,1.439519784E-1
1.290715475E1,2.634550720E-1,-4.136320353E-3,-6.122186085E-1,6.665112968E-1
1.291714075E1,5.074050021E-1,7.100887924E-2,-1.096083963E0,1.209918241E0
1.292712675E1,4.927442783E-1,9.701612502E-2,-1.267214423E0,1.363099940E0
1.293711275E1,1.634583288E-1,-1.767759472E-2,-1.221227242E0,1.232244740E0
1.294709775E1,-2.579317921E-1,-1.009559789E-1,-1.015691764E0,1.052782351E0
1.295708375E1,-7.038164842E-1,-9.198985845E-2,-1.123461650E0,1.328904006E0
1.296706975E1,-1.063850017E0,9.257779598E-2,-1.522630159E0,1.859771520E0
1.297705575E1,-1.388237754E0,2.671256617E-1,-1.693100907E0,2.205708698E0
1.298704175E1,-1.679139072E0,3.893894792E-2,-1.701180590E0,2.390614913E0
1.299702775E1,-1.535688745E0,-1.737637541E-1,-1.761358964E0,2.343271039E0
1.300701375E1,-9.957632840E-1,-3.019326746E-2,-1.756324365E0,2.019190785E0
1.301699975E1,-4.371097755E-1,-3.163109779E-2,-1.496240213E0,1.559102388E0
1.302698575E1,-2.327951968E-2,-2.250043666E-1,-9.888252702E-1,1.014368925E0
1.303697075E1,4.514296067E-1,-2.773907411E-1,-4.500683749E-1,6.951948325E-1
1.304695675E1,9.795419383E-1,-3.593312824E-1,1.745940587E-1,1.057877339E0
1.305694275E1,1.660568315E0,-5.206407595E-1,9.617523694E-1,1.988346436E0
1.306692875E1,2.447091326E0,-6.228290391E-1,1.850941962E0,3.130839842E0
1.307691475E1,3.072754510E0,-6.611826807E-1,2.617681211E0,4.090383569E0
1.308690075E1,3.782912884E0,-7.297412843E-1,3.255883457E0,5.044177764E0
1.309688675E1,4.517790948E0,-7.752916789E-1,3.762055574E0,5.929972544E0
1.310687275E1,5.156167733E0,-8.886750376E-1,4.127134669E0,6.664011524E0
1.311685775E1,5.798132370E0,-1.255846267E0,4.231395202E0,7.286988005E0
1.312684375E1,6.488759290E0,-1.784409419E0,3.937655061E0,7.797002083E0
1.313682975E1,7.232329239E0,-2.201097794E0,3.341288474E0,8.265326756E0
1.314681575E1,7.370673777E0,-2.647131590E0,2.590080014E0,8.248797007E0
1.315680175E1,6.745254421E0,-3.237289896E0,1.601887997E0,7.651440925E0
1.316678775E1,5.977788656E0,-3.876665386E0,3.783465739E-1,7.134818698E0
1.317677375E1,5.309886940E0,-4.686704729E0,-1.142052433E0,7.173868154E0
1.318675975E1,4.874813164E0,-4.890029374E0,-2.726093559E0,7.423461238E0
1.319674575E1,4.600772878E0,-4.974163206E0,-3.975909008E0,7.856033548E0
1.320673075E1,4.135249143E0,-5.332031515E0,-4.757252555E0,8.256046113E0
1.321671675E1,3.498392048E0,-5.960915930E0,-5.221005753E0,8.661995540E0
1.322670275E1,2.950910815E0,-6.429274396E0,-5.420464804E0,8.912063879E0
1.323668875E1,2.016459095E0,-6.660790222E0,-5.335930438E0,8.769514656E0
1.324667475E1,7.760295975E-1,-6.834232671E0,-5.341285318E0,8.708518071E0
1.325666075E1,-2.818942666E-1,-6.802658876E0,-5.312776634E0,8.636042364E0
1.326664675E1,-1.415368835E0,-6.665051672E0,-5.169201761E0,8.552591981E0
1.327663275E1,-2.422449405E0,-6.601554419E0,-5.363731610E0,8.844116612E0
1.328661929E1,-2.841856735E0,-6.120782315E0,-5.993277930E0,9.025492019E0
1.329660429E1,-2.713386975E0,-5.501611878E0,-6.736835600E0,9.111265337E0
1.330659029E1,-2.579895626E0,-5.002526295E0,-7.331147768E0,9.242665112E0
1.331657629E1,-2.650348728E0,-4.646074766E0,-7.659951907E0,9.342656064E0
1.332656229E1,-2.877876168E0,-4.340786959E0,-7.752568295E0,9.339535204E0
1.333654829E1,-3.314258550E0,-4.205533552E0,-7.627142011E0,9.319019125E0
1.334653429E1,-3.792323393E0,-4.242062570E0,-7.287402409E0,9.245704161E0
1.335652029E1,-4.040364620E0,-4.149228081E0,-6.666269063E0,8.830616238E0
1.336650629E1,-4.226997219E0,-4.068356119E0,-5.960924116E0,8.363709901E0
1.337649229E1,-4.521800383E0,-4.063969537E0,-5.273823652E0,8.048337904E0
1.338647829E1,-4.828064091E0,-4.027601902E0,-4.393975571E0,7.670645427E0
1.339646329E1,-5.201976575E0,-4.262636290E0,-3.503802477E0,7.583354154E0
1.340644929E1,-5.401130401E0,-4.455123706E0,-2.766117750E0,7.528063779E0
1.341643529E1,-5.381637538E0,-4.322495407E0,-2.213181649E0,7.248735210E0
1.342642129E1,-4.997326950E0,-4.109696518E0,-2.167728903E0,6.823630318E0
1.343640729E1,-4.504739377E0,-3.709992258E0,-2.249913858E0,6.254504919E0
1.344639329E1,-4.224772353E0,-3.582168323E0,-2.390303167E0,6.032758951E0
1.345637929E1,-4.140618641E0,-3.449157031E0,-2.485753115E0,5.934675686E0
1.346636529E1,-4.435173883E0,-3.414753183E0,-2.420950763E0,6.098549768E0
1.347635129E1,-4.760793044E0,-3.717706490E0,-2.500965232E0,6.537684532E0
1.348633629E1,-5.166081687E0,-3.441346028E0,-2.320785620E0,6.627013534E0
1.349632229E1,-5.722627859E0,-3.323763491E0,-1.814537197E0,6.862100160E0
1.350630829E1,-6.078298784E0,-3.553733313E0,-1.057933220E0,7.119969050E0
1.351629429E1,-6.487027345E0,-3.753343807E0,-1.329095141E-1,7.495784045E0
1.352628029E1,-6.721438127E0,-3.951694226E0,8.680261803E-1,7.845195167E0
1.353626629E1,-6.377707801E0,-4.109077882E0,1.770829114E0,7.790732545E0
1.354625229E1,-5.720876618E0,-4.137285143E0,2.381670338E0,7.451034239E0
1.355623829E1,-4.804241949E0,-3.990156041E0,2.654228940E0,6.785795252E0
1.356622329E1,-3.187583885E0,-3.680760857E0,3.096511163E0,5.770361591E0
1.357620929E1,-1.090821469E0,-3.769518960E0,3.594567636E0,5.321661503E0
1.358619529E1,9.701349378E-1,-3.773667852E0,4.190038723E0,5.721726606E0
1.359618129E1,2.123548511E0,-3.325881645E0,5.162150019E0,6.497594926E0
1.360616729E1,2.381178002E0,-2.881449109E0,6.143961847E0,7.191733089E0
1.361615329E1,2.546076500E0,-2.381133125E0,7.076923111E0,7.888925226E0
1.362613929E1,2.519734209E0,-1.810936043E0,7.930193843E0,8.515663463E0
1.363612529E1,1.974977193E0,-1.291911308E0,8.675988073E0,8.991236777E0
1.364611129E1,4.981471056E-1,-9.851555577E-1,9.094750455E0,9.161504672E0
1.365609729E1,-8.107451016E-1,-8.363980061E-1,8.951476715E0,9.026948799E0
1.366608229E1,-9.332173723E-1,-9.121627182E-1,8.387894003E0,8.488798578E0
1.367606829E1,-5.940531367E-1,-1.187442322E0,7.824206042E0,7.936064427E0
1.368605429E1,2.967777693E-1,-2.023147433E0,7.096193195E0,7.384927924E0
1.369604029E1,1.083335863E0,-2.496756406E0,6.294618282E0,6.857815137E0
1.370602629E1,1.782507904E0,-2.969672776E0,5.325328851E0,6.352591455E0
1.371601229E1,2.317245716E0,-3.156289295E0,4.015108157E0,5.608287023E0
1.372599829E1,2.556942966E0,-3.268899359E0,2.597784013E0,4.896135428E0
1.373598429E1,3.307025544E0,-3.576044242E0,8.507400566E-1,4.944519088E0
1.374596929E1,3.787947922E0,-2.885737165E0,-5.812307775E-1,4.797276066E0
1.375595529E1,3.890118660E0,-2.533625439E0,-1.414926201E0,4.853276956E0
1.376594129E1,3.387771499E0,-2.251732342E0,-1.397704689E0,4.301264078E0
1.377592729E1,2.828998708E0,-2.618064496E0,-6.042705613E-1,3.901619959E0
1.378591329E1,3.156491901E0,-3.326801412E0,-1.061167315E-1,4.587189719E0
1.379589929E1,4.454689550E0,-3.786711820E0,-3.810101268E-1,5.859062563E0
1.380588529E1,5.672324263E0,-4.155079390E0,-1.402544721E0,7.169873010E0
1.381587129E1,6.499536878E0,-4.053288136E0,-2.570861386E0,8.079755727E0
1.382585729E1,7.224239616E0,-4.123237792E0,-3.628420676E0,9.075029726E0
1.383584229E1,7.764092572E0,-4.503562918E0,-4.299914922E0,9.952511279E0
1.384582829E1,7.720045497E0,-4.673284199E0,-4.694066373E0,1.017216530E1
1.385581429E1,7.120168533E0,-4.797294872E0,-4.883239002E0,9.877087688E0
1.386580029E1,5.763423298E0,-5.130696677E0,-4.762326769E0,9.067571492E0
1.387578629E1,4.310905933E0,-5.453241372E0,-4.707924274E0,8.395612091E0
1.388577229E1,3.476881312E0,-5.537580441E0,-4.840992284E0,8.135644233E0
1.389575829E1,2.496852300E0,-5.521204728E0,-5.121872059E0,7.934201059E0
1.390574429E1,1.420402118E0,-5.312324644E0,-5.470875404E0,7.756855870E0
1.391573029E1,3.368686187E-1,-4.963399066E0,-5.646046291E0,7.525068071E0
1.392571529E1,-7.759108990E-1,-4.667682567E0,-5.897391195E0,7.560986785E0
1.393570129E1,-1.700300730E0,-4.177782666E0,-6.341308883E0,7.781843543E0
1.394568729E1,-2.384851808E0,-3.505312228E0,-6.718349628E0,7.944240284E0
1.395567329E1,-2.906885959E0,-2.820977497E0,-6.938461629E0,8.034310785E0
1.396565929E1,-3.356153850E0,-2.185296278E0,-6.877962243E0,7.958998247E0
1.397564529E1,-3.617893934E0,-1.709239368E0,-6.538601541E0,7.665765836E0
1.398563129E1,-3.620792983E0,-1.306665003E0,-6.145839972E0,7.251817994E0
1.399561729E1,-3.565382429E0,-9.649908498E-1,-5.765116067E0,6.846876840E0
1.400560329E1,-3.535245295E0,-6.761831278E-1,-5.206438585E0,6.329469619E0
1.401558829E1,-3.586490293E0,-4.893669266E-1,-4.481702517E0,5.760907052E0
1.402557429E1,-3.321360578E0,-3.004471895E-1,-3.823348719E0,5.073430795E0
1.403556029E1,-2.775648127E0,-9.031697005E-2,-3.325644248E0,4.332700006E0
1.404554629E1,-2.333310356E0,8.276909173E-2,-2.915412953E0,3.735079735E0
1.405553229E1,-1.740405613E0,2.207645506E-1,-2.363693073E0,2.943602152E0
1.406551829E1,-8.940784496E-1,3.372027871E-1,-1.525908692E0,1.800410879E0
1.407550429E1,-3.282463145E-1,3.816308087E-1,-4.742659440E-1,6.916038626E-1
1.408549029E1,-1.877698821E-1,2.894842449E-1,3.068980936E-1,4.617846863E-1
1.409547629E1,-1.896222800E-1,2.101886916E-1,6.602154782E-1,7.183455803E-1
1.410546129E1,-8.981907964E-2,1.640512365E-1,7.786134821E-1,8.007616561E-1
1.411544729E1,-9.062248707E-2,2.778982794E-1,6.792487498E-1,7.394719420E-1
1.412543329E1,-2.451035857E-1,3.576066461E-1,3.032207797E-1,5.290568233E-1
1.413541929E1,-4.831782335E-1,4.507121533E-1,-2.401498612E-1,7.030466601E-1
1.414540529E1,-8.157947570E-1,5.802639404E-1,-7.534517437E-1,1.252963230E0
1.415539129E1,-1.290245436E0,5.756773844E-1,-1.042359161E0,1.755747806E0
1.416537729E1,-1.563950678E0,4.104605055E-1,-1.118520899E0,1.966089660E0
1.417536329E1,-1.425896747E0,3.206820640E-1,-9.677165294E-1,1.752853045E0
1.418534829E1,-1.168780641E0,3.110537463E-1,-8.186990690E-1,1.460503607E0
1.419533429E1,-9.805207622E-1,2.546205139E-1,-6.907029337E-1,1.226100776E0
1.420532029E1,-8.914062721E-1,2.617330670E-1,-6.434241021E-1,1.130090224E0
1.421530629E1,-8.668128830E-1,2.414373815E-1,-6.416810471E-1,1.105174714E0
1.422529229E1,-8.058410418E-1,1.678916878E-1,-6.029403198E-1,1.020345252E0
1.423527829E1,-5.265101945E-1,-3.009211063E-2,-4.439235359E-1,6.893378169E-1
1.424526429E1,9.756079316E-3,-1.642468259E-1,-2.460782983E-1,2.960181241E-1
1.425525029E1,7.452042460E-1,-3.528300557E-1,-4.252388497E-2,8.256068661E-1
1.426523629E1,1.209857331E0,-4.871870846E-1,1.590126908E-1,1.313922012E0
1.427522229E1,1.526831383E0,-5.709227210E-1,1.678694683E-1,1.638702836E0
1.428520679E1,1.608514647E0,-5.826689002E-1,-2.055762252E-2,1.710919353E0
1.429519279E1,1.496437556E0,-6.653324497E-1,-3.504949701E-1,1.674765462E0
1.430517879E1,1.315593116E0,-6.941095215E-1,-4.750009024E-1,1.561473385E0
1.431516479E1,9.560355467E-1,-6.524834856E-1,-7.189666200E-1,1.362590058E0
1.432515079E1,5.921387583E-1,-6.427852938E-1,-1.117407589E0,1.418591189E0
1.433513679E1,2.001712418E-1,-5.287195650E-1,-1.543860229E0,1.644115967E0
1.434512279E1,-2.249312764E-1,-4.977842858E-1,-1.856786839E0,1.935469100E0
1.435510879E1,-8.022941208E-1,-4.265383020E-1,-2.070059352E0,2.260698233E0
1.436509479E1,-1.209610578E0,-3.567535374E-1,-2.395830540E0,2.707477574E0
1.437507979E1,-1.305693780E0,-2.474073887E-1,-2.804109449E0,3.103075324E0
1.438506579E1,-1.108099406E0,-1.994853634E-1,-3.212597104E0,3.404182554E0
1.439505179E1,-8.143329531E-1,-2.154909468E-1,-3.622453008E0,3.719104771E0
1.440503779E1,-4.196874118E-1,-1.787891436E-1,-3.981400713E0,4.007449902E0
1.441502379E1,1.143113118E-1,-1.675964034E-1,-4.131669477E0,4.136646988E0
1.442500979E1,4.801300800E-1,-1.326914495E-1,-4.044045442E0,4.074608626E0
1.443499579E1,5.554983509E-1,-1.630227113E-1,-3.594693936E0,3.641013501E0
1.444498179E1,4.877992880E-1,-2.528534853E-1,-2.853697346E0,2.906109354E0
1.445496779E1,3.806777126E-1,-2.629960656E-1,-2.083314844E0,2.134076660E0
1.446495279E1,2.134409130E-1,-3.331334174E-1,-1.469281186E0,1.521618251E0
1.447493879E1,-5.025506437E-2,-3.535390306E-1,-8.303398521E-1,9.038692868E-1
1.448492479E1,-2.778783989E-1,-3.388052166E-1,-1.490646766E-1,4.628451762E-1
1.449491079E1,-2.263077110E-1,-1.984574229E-1,5.545218658E-1,6.309477224E-1
1.450489679E1,-3.494465643E-1,-7.372578800E-2,1.391019275E0,1.436134748E0
1.451488279E1,-6.926611662E-1,-8.181599557E-2,2.306321217E0,2.409479384E0
1.452486879E1,-1.110974482E0,3.596973181E-2,3.542641730E0,3.712932608E0
1.453485479E1,-1.504105010E0,5.820610821E-2,5.025145079E0,5.245741406E0
1.454484079E1,-1.598542221E0,-1.472931165E-1,6.228490366E0,6.432038925E0
1.455482579E1,-1.310980248E0,-6.068690640E-1,6.051534909E0,6.221578098E0
1.456481179E1,-1.478047478E-1,-1.038107650E0,4.117277141E0,4.248703895E0
1.457479779E1,2.226263040E0,-4.903422421E-1,1.584404530E0,2.776152077E0
1.458478379E1,4.936757398E0,1.202684551E-1,-5.816364281E-1,4.972357493E0
1.459476979E1,6.923749450E0,1.520445639E-1,-1.778928677E0,7.150245537E0
1.460475579E1,7.785533727E0,-1.282580906E-1,-1.366363174E0,7.905563477E0
1.461474179E1,7.395319791E0,-1.053902149E0,-4.538945004E-2,7.470175684E0
1.462472779E1,6.528049656E0,-1.988358546E0,1.002466532E0,6.897386546E0
1.463471279E1,6.435201718E0,-2.573875333E0,1.079601831E0,7.014427667E0
1.464469879E1,6.944191316E0,-2.888327481E0,2.421742038E-1,7.524817407E0
1.465468479E1,7.345939470E0,-3.194806951E0,-7.507918453E-1,8.045701122E0
1.466467079E1,7.420708401E0,-3.833872538E0,-1.118334957E0,8.427108928E0
1.467465679E1,6.715392106E0,-4.633190426E0,-1.084037456E0,8.230314810E0
1.468464279E1,5.710027694E0,-5.436580315E0,-1.203533567E0,7.975544799E0
1.469462879E1,4.653137618E0,-5.899273413E0,-1.419231505E0,7.646393566E0
1.470461479E1,3.206556931E0,-6.321579208E0,-1.775381902E0,7.307280748E0
1.471460079E1,1.658473842E0,-6.576997283E0,-2.333055418E0,7.172905710E0
1.472458579E1,6.270226622E-1,-6.643852007E0,-2.920436881E0,7.284427122E0
1.473457179E1,4.392136037E-2,-6.592679515E0,-3.715925428E0,7.567922704E0
1.474455779E1,2.749360800E-3,-6.266010779E0,-4.519648608E0,7.725938272E0
1.475454379E1,-2.542176408E-1,-5.937273883E0,-4.852839328E0,7.672411441E0
1.476452979E1,-8.875488639E-1,-5.694285235E0,-5.147610333E0,7.727258212E0
1.477451579E1,-1.192375326E0,-5.433518128E0,-5.399262800E0,7.752220131E0
1.478450179E1,-1.069512461E0,-5.153165188E0,-5.374283495E0,7.522093554E0
1.479448779E1,-1.274158577E0,-4.992400671E0,-5.193565940E0,7.315782372E0
1.480447379E1,-1.727834099E0,-4.996445190E0,-4.781399217E0,7.128229351E0
1.481445879E1,-2.403305036E0,-5.069816052E0,-4.227229353E0,7.024840063E0
1.482444479E1,-2.998757996E0,-5.289227557E0,-3.846089126E0,7.194503404E0
1.483443079E1,-3.209470013E0,-5.154017127E0,-3.631898600E0,7.074975460E0
1.484441679E1,-3.411642172E0,-4.636338567E0,-3.521202621E0,6.747874148E0
1.485440279E1,-3.743693855E0,-4.320219963E0,-3.625397666E0,6.769272667E0
1.486438879E1,-4.243724349E0,-3.870683392E0,-3.857617496E0,6.919002747E0
1.487437479E1,-5.064934212E0,-3.396428594E0,-4.095485737E0,7.345902885E0
1.488436079E1,-6.191589172E0,-3.471585196E0,-4.300998995E0,8.299775455E0
1.489434679E1,-6.902234620E0,-3.430238072E0,-4.655187067E0,9.004340209E0
1.490433179E1,-6.749925177E0,-3.151516213E0,-5.138536624E0,9.049757067E0
1.491431779E1,-6.178604261E0,-2.945429343E0,-5.526556685E0,8.797359457E0
1.492430379E1,-5.717841913E0,-2.709781289E0,-5.604319975E0,8.452516381E0
1.493428979E1,-5.575761589E0,-2.856049974E0,-5.344824053E0,8.234882082E0
1.494427579E1,-5.345559633E0,-3.333635053E0,-4.990271115E0,8.036848652E0
1.495426179E1,-5.169924477E0,-3.533638772E0,-4.326646053E0,7.611477395E0
1.496424779E1,-5.175179955E0,-4.083783705E0,-3.661428501E0,7.540943945E0
1.497423379E1,-5.209998955E0,-4.482930140E0,-2.879742307E0,7.452091485E0
1.498421979E1,-5.384909640E0,-4.301685458E0,-1.726471113E0,7.105100430E0
1.499420479E1,-5.722679315E0,-4.373479326E0,-6.179407668E-1,7.228985458E0
1.500419079E1,-6.167441341E0,-4.548727396E0,3.808478665E-1,7.672893764E0
1.501417679E1,-5.994841475E0,-4.299437204E0,1.326344684E0,7.495496969E0
1.502416279E1,-5.313819192E0,-4.071168337E0,1.791687740E0,6.929735276E0
1.503414879E1,-4.265918625E0,-3.730165737E0,2.383849303E0,6.147758586E0
1.504413479E1,-3.045983033E0,-3.413426450E0,3.370270198E0,5.682271903E0
1.505412079E1,-2.041932490E0,-3.242309438E0,4.341816946E0,5.790805918E0
1.506410679E1,-1.284405237E0,-2.929015039E0,5.244441394E0,6.142718571E0
1.507409279E1,-8.011199999E-1,-2.458251614E0,6.273355467E0,6.785262196E0
1.508407779E1,-5.168605345E-1,-1.873239296E0,7.220834198E0,7.477741423E0
1.509406379E1,-5.319212079E-1,-1.678449685E0,7.715144361E0,7.913506557E0
1.510404979E1,-3.955202848E-1,-1.759071387E0,7.682558997E0,7.891291478E0
1.511403579E1,-8.003961146E-2,-1.689852633E0,7.486895959E0,7.675651071E0
1.512402179E1,-1.000166237E-2,-1.694010149E0,7.030952302E0,7.232154636E0
1.513400779E1,8.401279449E-2,-1.837400980E0,6.582995941E0,6.835125169E0
1.514399379E1,3.211179739E-1,-2.020188011E0,6.202028207E0,6.530653124E0
1.515397979E1,6.957742238E-1,-2.844175448E0,5.561791422E0,6.285456194E0
1.516396579E1,1.030452476E0,-3.323539250E0,4.583659247E0,5.754796047E0
1.517395079E1,1.030815588E0,-3.193756791E0,3.453397724E0,4.815456267E0
1.518393679E1,1.226058796E0,-2.760065297E0,2.293372704E0,3.792194480E0
1.519392279E1,1.168169607E0,-1.928925985E0,1.651942502E0,2.795405108E0
1.520390879E1,6.803890300E-1,-1.633355666E0,1.862528220E0,2.569005903E0
1.521389479E1,3.049428213E-1,-1.806577675E0,2.897049188E0,3.427769977E0
1.522388079E1,8.050388038E-1,-2.984057219E0,3.887185696E0,4.966175349E0
1.523386679E1,2.370284640E0,-3.664536588E0,3.987743772E0,5.911782986E0
1.524385279E1,3.887296209E0,-3.843573654E0,3.159427788E0,6.313961846E0
1.525383779E1,5.521691802E0,-3.927095867E0,1.418183684E0,6.922601192E0
1.526382379E1,6.970493846E0,-3.392233509E0,-8.929867744E-2,7.752612907E0
1.527380979E1,7.934386881E0,-3.230550395E0,-8.184938318E-1,8.605863303E0
1.528379575E1,8.632437426E0,-3.757976264E0,-1.112171700E0,9.480415993E0
1.529378175E1,8.942173210E0,-4.036983175E0,-1.171548713E0,9.880901844E0
1.530376775E1,8.674772437E0,-4.510056251E0,-1.317732320E0,9.865531039E0
1.531375375E1,8.004844660E0,-5.241552284E0,-1.958747369E0,9.766683144E0
1.532373975E1,7.264604700E0,-5.807662747E0,-3.005165083E0,9.774172354E0
1.533372575E1,6.564839752E0,-6.264679953E0,-4.497245586E0,1.012761343E1
1.534371075E1,6.095408322E0,-6.116836613E0,-5.997961550E0,1.051404944E1
1.535369675E1,5.110089335E0,-5.945730711E0,-6.864508384E0,1.042047034E1
1.536368275E1,3.831758185E0,-5.720910532E0,-7.060901155E0,9.862429378E0
1.537366875E1,2.645866252E0,-5.362111931E0,-6.604447621E0,8.909072958E0
1.538365475E1,1.347362208E0,-5.248443813E0,-5.948236828E0,8.046307770E0
1.539364075E1,1.913653350E-1,-5.125823607E0,-5.579672792E0,7.579144860E0
1.540362675E1,-6.144213277E-1,-4.725034104E0,-5.761608907E0,7.476603377E0
1.541361275E1,-1.037176189E0,-4.094492880E0,-6.323836234E0,7.604703222E0
1.542359875E1,-1.215829092E0,-3.322849864E0,-6.781324725E0,7.648917350E0
1.543358375E1,-1.339659086E0,-2.673569483E0,-6.779665285E0,7.409893496E0
1.544356975E1,-1.728281411E0,-2.132561117E0,-6.253847401E0,6.829742372E0
1.545355575E1,-2.177603681E0,-1.738382768E0,-5.709077522E0,6.352755197E0
1.546354175E1,-2.419107721E0,-1.258784200E0,-5.278467511E0,5.941282613E0
1.547352775E1,-2.649597945E0,-6.808822426E-1,-4.910538483E0,5.621152737E0
1.548351375E1,-2.973828392E0,-2.699624383E-1,-4.382996839E0,5.303507926E0
1.549349975E1,-3.300394217E0,2.708634943E-2,-3.805559735E0,5.037422015E0
1.550348575E1,-3.420514153E0,2.827134615E-1,-3.342594742E0,4.790906342E0
1.551347175E1,-3.492911453E0,5.787243685E-1,-2.920679541E0,4.589740874E0
1.552345675E1,-3.412756652E0,7.299906680E-1,-2.341807530E0,4.202839141E0
1.553344275E1,-3.230724642E0,6.776174498E-1,-1.632643182E0,3.682698859E0
1.554342875E1,-3.042639595E0,6.510532567E-1,-1.231300825E0,3.346285668E0
1.555341475E1,-2.590520017E0,5.985803434E-1,-1.115559869E0,2.883325547E0
1.556340075E1,-2.121837031E0,5.513944826E-1,-1.128530163E0,2.465726787E0
1.557338675E1,-1.868383037E0,5.203463522E-1,-1.159365966E0,2.259589552E0
1.558337275E1,-1.500727658E0,4.835585949E-1,-1.245120134E0,2.009063605E0
1.559335875E1,-1.029664271E0,3.752778089E-1,-1.086554244E0,1.543256968E0
1.560334475E1,-8.307811707E-1,2.607782167E-1,-8.937270319E-1,1.247778281E0
1.561332975E1,-8.679910970E-1,2.000730085E-1,-7.043053114E-1,1.135554369E0
1.562331575E1,-1.039884619E0,2.016432783E-1,-6.194411623E-1,1.227080839E0
1.563330175E1,-1.121162086E0,2.571400791E-1,-7.909400705E-1,1.395962621E0
1.564328775E1,-1.009163348E0,2.546889263E-1,-1.021724921E0,1.458492005E0
1.565327375E1,-8.879096371E-1,2.792478168E-1,-1.143245339E0,1.474236335E0
1.566325975E1,-8.878850788E-1,2.673200816E-1,-1.158080821E0,1.483560288E0
1.567324575E1,-1.080138021E0,1.341813201E-1,-1.135124725E0,1.572644561E0
1.568323175E1,-1.237394793E0,4.277384430E-2,-1.281108577E0,1.781632583E0
1.569321675E1,-1.205982966E0,-2.692058086E-3,-1.526896287E0,1.945716946E0
1.570320275E1,-1.031629520E0,5.089474976E-2,-1.477230037E0,1.802514445E0
1.571318875E1,-9.230274296E-1,4.636052638E-2,-1.033808850E0,1.386682975E0
1.572317475E1,-9.573821604E-1,-9.351510465E-2,-7.226690769E-1,1.203152638E0
1.573316075E1,-9.056986213E-1,-9.933805436E-2,-7.777486789E-1,1.197936162E0
1.574314675E1,-7.501749641E-1,1.722063482E-2,-9.892120636E-1,1.241611668E0
1.575313275E1,-6.539134222E-1,1.844533414E-2,-1.163774840E0,1.335033659E0
1.576311875E1,-4.409198213E-1,-2.319941282E-2,-1.340739652E0,1.411570514E0
1.577310475E1,-2.129491621E-1,1.253146023E-2,-1.561932803E0,1.576432195E0
1.578308975E1,-1.522047776E-1,-3.499412388E-2,-1.759823631E0,1.766739963E0
1.579307575E1,-1.582788652E-1,5.742462784E-2,-2.006411240E0,2.013463645E0
1.580306175E1,-3.779277670E-1,1.949832997E-1,-2.149920623E0,2.191576275E0
1.581304775E1,-7.481430566E-1,1.804544306E-1,-2.207083150E0,2.337412643E0
1.582303375E1,-1.170641810E0,2.067560837E-1,-2.256447391E0,2.550432346E0
1.583301975E1,-1.523456370E0,3.884091935E-1,-2.452590047E0,2.913242000E0
1.584300575E1,-1.963572199E0,3.266918322E-1,-2.443191233E0,3.151432489E0
1.585299175E1,-2.198382931E0,4.015145579E-1,-2.062455633E0,3.041023625E0
1.586297775E1,-2.098029508E0,3.717498913E-1,-1.665735938E0,2.704552091E0
1.587296275E1,-1.685101478E0,2.695028472E-1,-9.533978677E-1,1.954780363E0
1.588294875E1,-1.315826420E0,2.078568220E-1,-2.588480508E-1,1.357057825E0
1.589293475E1,-9.372876191E-1,9.645216107E-2,1.684160368E-1,9.571703410E-1
1.590292075E1,-4.343066204E-1,1.354975283E-1,4.782504925E-1,6.600798090E-1
1.591290675E1,3.128722304E-1,8.338948131E-2,6.701428078E-1,7.442675735E-1
1.592289275E1,1.209851484E0,-7.072265804E-2,8.797279206E-1,1.497552510E0
1.593287875E1,2.210091396E0,-3.204163080E-1,1.181208898E0,2.526346186E0
1.594286475E1,3.252743502E0,-5.563479513E-1,1.498260133E0,3.624175322E0
1.595285075E1,4.182143812E0,-8.604557902E-1,1.788383186E0,4.629149539E0
1.596283575E1,5.015641015E0,-1.125906517E0,2.089906848E0,5.549056758E0
1.597282175E1,5.363421707E0,-1.291224845E0,2.184105785E0,5.933285101E0
1.598280775E1,5.327285914E0,-1.562343278E0,1.977320173E0,5.893274709E0
1.599279375E1,5.422342930E0,-1.734356083E0,1.588968867E0,5.910551238E0
1.600277975E1,5.421331946E0,-1.810696161E0,1.311862885E0,5.864336696E0
1.601276575E1,5.346813861E0,-2.028417236E0,1.298639699E0,5.864244198E0
1.602275175E1,5.594283230E0,-2.469415995E0,1.178750436E0,6.227637819E0
1.603273775E1,6.150375073E0,-2.911045083E0,1.017253848E0,6.880123720E0
1.604272375E1,6.430159664E0,-3.501513877E0,7.971544182E-1,7.364985262E0
1.605270875E1,6.640962898E0,-4.223607588E0,2.009133996E-1,7.872840368E0
1.606269475E1,7.075670053E0,-4.924563614E0,-8.830487005E-1,8.665806858E0
1.607268075E1,6.778957188E0,-5.378308133E0,-2.167208501E0,8.920608254E0
1.608266675E1,6.083903925E0,-5.970307728E0,-3.362806227E0,9.163346936E0
1.609265275E1,4.994445443E0,-6.531135231E0,-4.364783932E0,9.308681510E0
1.610263875E1,3.602330984E0,-6.964761820E0,-5.191487839E0,9.404054536E0
1.611262475E1,2.135345854E0,-7.179676816E0,-5.913787372E0,9.543602160E0
1.612261075E1,7.328642821E-1,-7.144101187E0,-6.525126632E0,9.703223660E0
1.613259575E1,-5.859149820E-1,-7.017158135E0,-7.176969556E0,1.005448639E1
1.614258175E1,-1.762820914E0,-6.623477969E0,-7.949442877E0,1.049626791E1
1.615256775E1,-2.774788002E0,-6.178668580E0,-8.697210542E0,1.102346883E1
1.616255375E1,-3.494993647E0,-5.633748427E0,-9.336435174E0,1.145090056E1
1.617253975E1,-3.875809354E0,-5.054348413E0,-9.986788226E0,1.184501056E1
1.618252575E1,-3.973366054E0,-4.596208541E0,-1.041361860E1,1.205637686E1
1.619251175E1,-4.264545699E0,-4.246314080E0,-1.023902308E1,1.187666312E1
1.620249775E1,-4.945256910E0,-4.234710866E0,-9.263818603E0,1.132283874E1
1.621248375E1,-5.646427529E0,-4.274094202E0,-7.655078838E0,1.042833913E1
1.622246875E1,-6.513600601E0,-4.477971117E0,-5.776693554E0,9.790271014E0
1.623245475E1,-7.573806633E0,-4.617983572E0,-4.168377128E0,9.801208450E0
1.624244075E1,-8.473204880E0,-4.566300033E0,-2.928731157E0,1.006100209E1
1.625242675E1,-9.024092701E0,-4.369210859E0,-1.984775373E0,1.022074292E1
1.626241275E1,-8.897777640E0,-4.256637047E0,-1.635591348E0,9.998228090E0
1.627239875E1,-8.123230897E0,-3.805936881E0,-2.094124153E0,9.211807190E0
1.628238475E1,-7.377185821E0,-3.127433578E0,-2.596604630E0,8.422948832E0
1.629237104E1,-6.805426363E0,-2.916964220E0,-2.906060332E0,7.954099251E0
1.630235704E1,-6.479025430E0,-3.006305290E0,-3.139304595E0,7.801978939E0
1.631234204E1,-6.300564900E0,-2.947786063E0,-3.140873988E0,7.632276865E0
1.632232804E1,-6.154025490E0,-3.015843560E0,-2.830954016E0,7.414960738E0
1.633231404E1,-5.832505227E0,-3.429510679E0,-2.572413529E0,7.238575280E0
1.634230004E1,-5.481451263E0,-3.772891049E0,-2.200435596E0,7.008775331E0
1.635228604E1,-5.078895609E0,-4.252084697E0,-1.753062934E0,6.851907364E0
1.636227204E1,-4.666154104E0,-4.401217056E0,-1.292772603E0,6.543314657E0
1.637225804E1,-4.508613743E0,-4.428181783E0,-5.249255991E-1,6.341288408E0
1.638224404E1,-4.396116822E0,-4.544471208E0,6.072555649E-1,6.351914750E0
