"Time (s)","Linear Acceleration x (m/s^2)","Linear Acceleration y (m/s^2)","Linear Acceleration z (m/s^2)","Absolute acceleration (m/s^2)"
-5.100416602E-4,1.222009599E-1,2.012734419E-1,-2.862932000E-1,3.706856747E-1
9.474958351E-3,8.239305729E-1,2.515619450E-1,-2.164844253E-1,8.882626343E-1
1.946095831E-2,8.305852890E-1,2.229470604E-1,-2.087397516E-1,8.849573989E-1
2.944695833E-2,8.836581266E-1,2.285597661E-1,2.675455648E-2,9.131303618E-1
3.943195834E-2,1.205101790E0,1.218474409E-1,1.632273456E-1,1.222194866E0
4.941795830E-2,1.179060046E0,-7.189584704E-2,7.766324455E-1,1.413686514E0
5.940295832E-2,1.206146103E0,-4.170822214E-1,1.275560739E0,1.804383884E0
6.938895833E-2,1.575082022E0,-3.959468392E-1,1.860229679E0,2.469435509E0
7.937395835E-2,1.580103611E0,-5.276350527E-1,2.053526934E0,2.644257748E0
8.935995831E-2,1.407037137E0,-5.454396050E-1,1.945848119E0,2.462434318E0
9.934495832E-2,1.274166178E0,-4.239444406E-1,1.670370587E0,2.143213997E0
1.093309583E-1,9.830830121E-1,-2.829430744E-1,1.313562963E0,1.664919412E0
1.193169584E-1,8.210572511E-1,-2.140922928E-1,8.993462062E-1,1.236444143E0
1.293019583E-1,7.220440096E-1,-2.076582725E-1,4.267929482E-1,8.640727577E-1
1.392879583E-1,6.291919792E-1,-1.512195949E-1,-3.796831012E-2,6.482218024E-1
1.492729583E-1,5.592218578E-1,-5.765124399E-2,-3.504786344E-1,6.624862454E-1
1.592589584E-1,4.060411799E-1,-1.726424408E-1,-4.823087525E-1,6.536792676E-1
1.692439583E-1,1.937790656E-1,-9.668327227E-2,-2.487475340E-1,3.298080003E-1
1.792299583E-1,-1.011287642E-1,2.739193954E-2,3.635542146E-1,3.783503829E-1
1.892149583E-1,-5.138334310E-1,-7.170937568E-2,9.797348233E-1,1.108624081E0
1.992009583E-1,-7.367860097E-1,-2.685299436E-1,1.288037382E0,1.507979526E0
2.091859583E-1,-6.387714726E-1,-1.743199705E-1,1.424156030E0,1.570553038E0
2.191719583E-1,-7.177387047E-1,-1.200126395E-2,1.814952203E0,1.951754180E0
2.291579584E-1,-1.155641947E0,6.990185514E-2,1.700521024E0,2.057222966E0
2.391429583E-1,-1.489039659E0,2.216142241E-1,1.593114835E0,2.191886596E0
2.491289583E-1,-9.984149963E-1,3.133806458E-1,1.298473346E0,1.667654930E0
2.591139583E-1,-3.643329906E-1,2.846171688E-1,1.128812875E0,1.219821286E0
2.690999584E-1,-8.630548775E-2,1.079183317E-1,9.151828051E-1,9.255563571E-1
2.790849583E-1,2.241787398E-1,9.197977200E-2,6.622229004E-1,7.051634957E-1
2.890709583E-1,3.104444665E-1,3.724111383E-1,5.137699887E-1,7.064173158E-1
2.990559583E-1,-2.960971534E-1,5.350727841E-1,4.267847621E-1,7.457356379E-1
3.090419583E-1,-8.160976428E-1,2.385145777E-1,3.560188347E-1,9.217667693E-1
3.190269583E-1,-9.242389727E-1,6.552163281E-2,2.125632459E-1,9.506281589E-1
3.290129583E-1,-9.040806967E-1,1.563264068E-1,-2.883238649E-1,9.617330725E-1
3.389989584E-1,-6.766889119E-1,2.766223439E-1,-7.695780721E-1,1.061450995E0
3.489839583E-1,-4.219964772E-1,2.755987157E-1,-8.461581784E-1,9.848955995E-1
3.589699583E-1,-2.572517610E-1,1.446708960E-1,-9.050349623E-1,9.519434960E-1
3.689549583E-1,-1.513007981E-1,6.622092325E-2,-1.292455099E0,1.302964821E0
3.789409584E-1,-8.482789636E-2,5.762763586E-2,-1.998402309E0,2.001031860E0
3.889259583E-1,2.280121744E-1,1.469279213E-1,-2.850309470E0,2.863187287E0
3.989119583E-1,5.507281923E-1,4.732347509E-1,-3.611888843E0,3.684154406E0
4.088969583E-1,9.206698322E-1,7.952529037E-1,-3.949483686E0,4.132611947E0
4.188829584E-1,9.951680374E-1,5.958612420E-1,-3.885515147E0,4.054952281E0
4.288679583E-1,8.568322706E-1,1.915147679E-1,-3.711639419E0,3.814066940E0
4.388539583E-1,8.390579045E-1,-9.340090122E-2,-3.463038613E0,3.564460455E0
4.488399583E-1,7.006531405E-1,-1.111202304E-1,-3.279587485E0,3.355436871E0
4.588249583E-1,3.203069651E-1,-1.487059134E-1,-3.458228694E0,3.476212838E0
4.688109583E-1,-1.670561206E-1,-6.059224728E-2,-4.011539016E0,4.015473129E0
4.787959583E-1,-6.871677071E-1,1.175549451E-1,-4.685923541E0,4.737499135E0
4.887819584E-1,-1.243135005E0,3.805329940E-1,-5.507197139E0,5.658569636E0
4.987669583E-1,-1.389545192E0,5.485922045E-1,-6.064657230E0,6.245947211E0
5.087529583E-1,-1.610966969E0,5.518290769E-1,-5.790737981E0,6.035923813E0
5.187379583E-1,-1.851026162E0,3.121270028E-1,-5.029608843E0,5.368490126E0
5.287239584E-1,-2.375559413E0,-2.230975165E-1,-4.255131682E0,4.878442441E0
5.387099583E-1,-3.043294483E0,-6.291907366E-1,-3.463579481E0,4.653375669E0
5.486949583E-1,-3.583594751E0,-7.690624939E-1,-2.899653538E0,4.673499663E0
5.586809583E-1,-3.786807130E0,-8.635558377E-1,-2.606970574E0,4.677812790E0
5.686659584E-1,-3.772359245E0,-9.776408623E-1,-2.447224057E0,4.601671600E0
5.786519583E-1,-3.891758219E0,-1.106123632E0,-2.494378343E0,4.753021654E0
5.886369583E-1,-3.920173933E0,-1.153200735E0,-2.735464307E0,4.917357072E0
5.986229584E-1,-4.009717609E0,-1.010840914E0,-2.582746144E0,4.875470470E0
6.086079583E-1,-4.190425224E0,-1.113942675E0,-2.023669882E0,4.784952626E0
6.185939583E-1,-4.114431301E0,-1.426184283E0,-1.101558126E0,4.491767675E0
6.285789583E-1,-3.697467522E0,-1.660925141E0,1.563896298E-2,4.053416211E0
6.385649584E-1,-3.568235870E0,-1.789133677E0,1.111126510E0,4.143417509E0
6.485509583E-1,-3.964438525E0,-1.865260916E0,2.169729820E0,4.889140885E0
6.585359583E-1,-4.643744650E0,-1.899143630E0,3.051791072E0,5.872353843E0
6.685226667E-1,-5.630181625E0,-1.944097755E0,3.772414793E0,7.050501726E0
6.785076667E-1,-6.176423834E0,-2.198726748E0,4.182758939E0,7.776765589E0
6.884936666E-1,-5.735552545E0,-2.370622755E0,4.482665554E0,7.655762908E0
6.984786667E-1,-5.043908209E0,-2.323518463E0,5.215413476E0,7.618417539E0
7.084646667E-1,-4.692797527E0,-2.404301548E0,6.355142226E0,8.257774959E0
7.184496667E-1,-4.864662398E0,-2.670461103E0,7.562479992E0,9.380160253E0
7.284356666E-1,-5.029736897E0,-2.866414456E0,8.658534719E0,1.041560409E1
7.384206667E-1,-4.745504329E0,-2.726674188E0,9.598062406E0,1.104886263E1
7.484066667E-1,-4.389172668E0,-2.552497620E0,1.009301693E1,1.129818886E1
7.583926666E-1,-4.035909626E0,-2.796285875E0,1.023130007E1,1.134844846E1
7.683776667E-1,-3.739776805E0,-3.372699716E0,1.021864202E1,1.139217621E1
7.783636667E-1,-2.469545218E0,-5.244438470E0,9.403358896E0,1.104653552E1
7.883486667E-1,-2.599824107E-1,-5.872419491E0,8.789775474E0,1.057416921E1
7.983346666E-1,2.262744988E0,-5.057998829E0,8.352610735E0,1.002344617E1
8.083196667E-1,4.043537904E0,-3.956853224E0,7.824248727E0,9.655348485E0
8.183056667E-1,4.973629940E0,-3.571914353E0,7.340900924E0,9.559518466E0
8.282906667E-1,5.483625843E0,-3.784687222E0,6.846573805E0,9.553511533E0
8.382766666E-1,6.258792391E0,-4.298805705E0,6.780264040E0,1.017959690E1
8.482616667E-1,7.174176341E0,-4.564677431E0,6.690634410E0,1.081987408E1
8.582476667E-1,7.209171342E0,-4.188150949E0,6.268811595E0,1.043123955E1
8.682336666E-1,6.198391238E0,-3.898031404E0,5.852461774E0,9.373687193E0
8.782186667E-1,5.119893361E0,-4.199908530E0,5.658038346E0,8.710105488E0
8.882046667E-1,4.911307392E0,-4.922699522E0,5.232504888E0,8.702471963E0
8.981896667E-1,4.896050836E0,-4.886665763E0,4.609375302E0,8.312469954E0
9.081756666E-1,4.925959929E0,-4.753897130E0,3.872670568E0,7.865252474E0
9.181606667E-1,5.316586679E0,-5.061621180E0,3.487681704E0,8.127116743E0
9.281466667E-1,6.136086232E0,-5.704965760E0,3.159049473E0,8.954204718E0
9.381316667E-1,7.242602797E0,-6.253490721E0,2.269074014E0,9.834131297E0
9.481176666E-1,8.060675629E0,-6.666026988E0,7.420373940E-1,1.048623035E1
9.581036667E-1,8.348408341E0,-6.486525069E0,-1.075153270E0,1.062670616E1
9.680886667E-1,8.173838548E0,-6.362620815E0,-2.829524372E0,1.073782047E1
9.780746666E-1,7.548151975E0,-6.429945656E0,-4.087547557E0,1.072505685E1
9.880596666E-1,6.333247327E0,-6.527017037E0,-4.656865802E0,1.021755216E1
9.980456667E-1,4.720382352E0,-6.931920934E0,-5.068748351E0,9.799272790E0
1.008030667E0,2.570052423E0,-7.003165748E0,-5.691065174E0,9.382841934E0
1.018016667E0,2.526149189E-1,-6.775504407E0,-6.444931485E0,9.354593316E0
1.028001667E0,-2.143915533E0,-6.281048064E0,-7.033834979E0,9.670717300E0
1.037987667E0,-4.061811622E0,-5.589070437E0,-7.822784584E0,1.043704846E1
1.047972667E0,-5.147803291E0,-4.793676615E0,-8.788773846E0,1.125707599E1
1.057958667E0,-5.306846387E0,-3.759998816E0,-9.609843376E0,1.160384847E1
1.067944667E0,-4.618527364E0,-2.663563435E0,-1.022727368E1,1.153353771E1
1.077929667E0,-4.039018006E0,-1.689932447E0,-1.060185801E1,1.147035010E1
1.087915667E0,-4.045737627E0,-6.865286795E-1,-1.041683573E1,1.119597165E1
1.097900667E0,-4.472921754E0,-7.953623928E-2,-9.046227921E0,1.009195693E1
1.107886667E0,-5.192737974E0,-2.454024515E-1,-6.850776783E0,8.599877474E0
1.117871667E0,-5.416792753E0,-6.555991745E-1,-4.811391925E0,7.274678430E0
1.127857667E0,-4.754772166E0,-7.816049176E-1,-3.432502699E0,5.916150723E0
1.137842667E0,-3.546614621E0,-5.677242941E-1,-2.840536433E0,4.579239388E0
1.147828667E0,-1.793817004E0,-2.435470569E-1,-2.743860909E0,3.287227905E0
1.157813667E0,-4.827344298E-2,9.087040901E-2,-2.532896876E0,2.534986064E0
1.167799667E0,1.187026293E0,1.811033253E-1,-2.017340856E0,2.347657122E0
1.177785667E0,1.788148128E0,7.128925323E-2,-1.373092150E0,2.255645792E0
1.187770667E0,2.127661443E0,-7.066974074E-2,-7.506609408E-1,2.257305756E0
1.197756667E0,2.041032604E0,-8.496267468E-2,1.196223378E-2,2.042835246E0
1.207741667E0,1.488302325E0,-1.265334544E-1,7.401311287E-1,1.666987886E0
1.217727667E0,8.964378011E-1,-4.240737006E-1,1.058826674E0,1.450707814E0
1.227712667E0,3.611620456E-1,-6.161754924E-1,1.165924276E0,1.367292828E0
1.237698667E0,-2.189139068E-2,-6.803175478E-1,9.806610954E-1,1.193736731E0
1.247683667E0,-3.740171492E-2,-5.990500210E-1,5.465241174E-1,8.117563839E-1
1.257669667E0,2.118656731E-1,-2.918305863E-1,3.927633957E-1,5.332121900E-1
1.267655667E0,5.166202140E-1,-1.990402441E-1,4.373601095E-1,7.055475389E-1
1.277640667E0,8.451711684E-1,-3.598981699E-1,4.533910552E-1,1.024404435E0
1.287626667E0,1.206715622E0,-2.499209605E-1,5.150226085E-1,1.335616474E0
1.297611667E0,1.170900841E0,-8.984129906E-2,5.133165371E-1,1.281629473E0
1.307597667E0,7.168505126E-1,-3.507035695E-1,3.945221651E-1,8.902333345E-1
1.317582667E0,3.621028626E-1,-3.702439409E-1,5.178036904E-1,7.323385288E-1
1.327568667E0,1.302326953E-1,5.298059776E-2,8.517394920E-1,8.632656954E-1
1.337553667E0,5.994916320E-2,2.047333856E-1,9.618760380E-1,9.852487878E-1
1.347539667E0,3.006790316E-1,3.002311349E-1,1.017410553E0,1.102574645E0
1.357524667E0,5.088270450E-1,3.741260536E-1,1.015085408E0,1.195522334E0
1.367510667E0,7.450440323E-1,9.508712858E-2,6.889955467E-1,1.019238459E0
1.377496667E0,9.745764828E-1,1.627034533E-1,2.291874647E-2,9.883304121E-1
1.387481667E0,1.498008118E0,7.643141162E-1,-3.921885413E-1,1.726851540E0
1.397467667E0,1.489861193E0,9.298594625E-1,-6.754253286E-1,1.881628116E0
1.407452667E0,1.590181287E0,5.104835612E-1,-7.278801155E-1,1.821834091E0
1.417438667E0,1.896340914E0,2.507625210E-1,3.127453458E-1,1.938246722E0
1.427423667E0,3.303344137E0,-2.071010694E-1,2.019791424E0,3.877438682E0
1.437409667E0,4.356225947E0,-3.229903986E-1,3.688585601E0,5.717227566E0
1.447394667E0,4.473663180E0,-4.302107920E-1,4.132603862E0,6.105502294E0
1.457380667E0,4.431188421E0,-7.848223481E-1,3.642448146E0,5.789542766E0
1.467366667E0,3.483198059E0,-8.331491469E-1,3.108638288E0,4.742408483E0
1.477351667E0,2.293485555E0,-1.164018084E0,1.988190147E0,3.250832839E0
1.487337667E0,1.323982701E0,-1.129342048E0,5.337315059E-1,1.820223331E0
1.497322667E0,1.177698814E0,-8.144268009E-1,-9.362012064E-1,1.710771233E0
1.507308667E0,1.327599497E0,-4.456876409E-1,-1.976926070E0,2.422683344E0
1.517293667E0,1.319435614E0,-5.383674708E-1,-2.872205538E0,3.206292957E0
1.527279667E0,7.960835007E-1,-6.269579042E-1,-3.482843717E0,3.627261434E0
1.537264667E0,1.235733014E-1,-8.132298759E-1,-3.866017606E0,3.952556808E0
1.547250667E0,-5.809869486E-1,-1.077548582E0,-4.127196357E0,4.304928170E0
1.557235667E0,-1.071549338E0,-1.254889662E0,-4.478091277E0,4.772448798E0
1.567221667E0,-1.182275430E0,-1.019664509E0,-4.653831682E0,4.908731020E0
1.577207667E0,-1.105436000E0,-6.012881890E-1,-4.370470934E0,4.548027311E0
1.587192667E0,-1.513249178E0,-5.355988142E-1,-3.736085458E0,4.066340334E0
1.597178667E0,-2.161635228E0,-8.908036434E-1,-2.996227906E0,3.800470978E0
1.607163667E0,-2.650298442E0,-1.395438308E0,-2.747047641E0,4.064185114E0
1.617149667E0,-2.852938963E0,-1.250420782E0,-3.149940680E0,4.430004418E0
1.627134667E0,-2.774156502E0,-7.973374361E-1,-3.632329540E0,4.639559157E0
1.637120667E0,-2.766984015E0,-6.148213504E-1,-3.691873491E0,4.654474805E0
1.647105667E0,-3.141307266E0,-6.370820658E-1,-3.244235219E0,4.560564335E0
1.657091667E0,-3.851760925E0,-7.497184427E-1,-2.370840125E0,4.584650790E0
1.667077667E0,-4.639814152E0,-1.093128926E0,-1.506911674E0,4.999358860E0
1.677061542E0,-5.417271640E0,-1.109744667E0,-8.089494216E-1,5.588628133E0
1.687047542E0,-6.273275360E0,-9.448468995E-1,-9.052951634E-2,6.344676114E0
1.697032542E0,-6.965244216E0,-9.707984506E-1,3.812489855E-1,7.042899077E0
1.707018542E0,-7.561987656E0,-8.655728348E-1,6.250767088E-1,7.636988578E0
1.717003542E0,-8.308328601E0,-8.252147676E-1,6.083115721E-1,8.371340784E0
1.726989542E0,-9.056072293E0,-9.564806660E-1,1.395923334E-1,9.107512649E0
1.736974542E0,-9.472174777E0,-1.104303248E0,-4.914491200E-1,9.548984391E0
1.746960542E0,-9.433183789E0,-9.924332947E-1,-5.903734839E-1,9.503600427E0
1.756946542E0,-8.812539854E0,-8.789552110E-1,-2.270356894E-1,8.859174123E0
1.766931542E0,-7.632043732E0,-1.152181858E0,3.590845299E-1,7.726872346E0
1.776917542E0,-6.290863200E0,-1.569164640E0,1.706505795E0,6.704431333E0
1.786902542E0,-5.438455517E0,-2.045166878E0,3.683487414E0,6.879504742E0
1.796888542E0,-5.010750988E0,-2.457844063E0,5.769675726E0,8.027314674E0
1.806873542E0,-4.900331583E0,-2.886904269E0,7.448703700E0,9.371800931E0
1.816859542E0,-5.165877035E0,-3.300738033E0,8.490388677E0,1.047224221E1
1.826844542E0,-5.356692731E0,-3.595290644E0,8.872227647E0,1.096980835E1
1.836830542E0,-4.422183124E0,-3.597044224E0,9.102022052E0,1.073970373E1
1.846815542E0,-3.327994244E0,-3.651144710E0,9.777708752E0,1.095490720E1
1.856801542E0,-2.411534992E0,-3.789604438E0,1.055879093E1,1.147452259E1
1.866787542E0,-1.115617172E0,-5.119516216E0,1.067714325E1,1.189350394E1
1.876772542E0,4.708084488E-1,-6.860146362E0,1.009801513E1,1.221692180E1
1.886758542E0,2.248744415E0,-7.014281305E0,9.011581414E0,1.163896874E1
1.896743542E0,3.732346748E0,-6.356971820E0,7.389414103E0,1.043766946E1
1.906729542E0,4.189883772E0,-4.659648492E0,6.668057141E0,9.150433658E0
1.916714542E0,3.789625488E0,-3.887726564E0,7.313924795E0,9.108741685E0
1.926700542E0,4.144150944E0,-5.483662096E0,8.212416723E0,1.070926353E1
1.936685542E0,6.830558281E0,-7.794144337E0,8.372267320E0,1.332291531E1
1.946671542E0,9.878338748E0,-7.531568102E0,7.067928924E0,1.429201573E1
1.956657542E0,1.232313095E1,-6.156137504E0,4.637554203E0,1.453494047E1
1.966642542E0,1.347586975E1,-4.518842277E0,3.290179716E0,1.458918379E1
1.976628542E0,1.279196772E1,-4.668981526E0,3.633482026E0,1.409382908E1
1.986613542E0,1.128594599E1,-6.779224405E0,4.445564970E0,1.389580902E1
1.996599542E0,1.060599784E1,-7.820788929E0,4.157375591E0,1.381794853E1
2.006584542E0,1.052517295E1,-7.785771709E0,2.349309508E0,1.330100605E1
2.016570542E0,1.023021951E1,-6.997188140E0,3.791398948E-1,1.240007178E1
2.026555542E0,9.105169609E0,-6.336076795E0,-8.350163090E-1,1.112417345E1
2.036541542E0,7.464343833E0,-6.156106514E0,-8.173049466E-1,9.709895140E0
2.046527542E0,5.514535979E0,-6.470595499E0,-3.554493159E-2,8.501763148E0
2.056512542E0,3.337694775E0,-6.770464107E0,4.642993283E-1,7.562735252E0
2.066498542E0,1.669759553E0,-6.850277431E0,1.401706231E-1,7.052236925E0
2.076483542E0,9.976934499E-1,-7.064604782E0,-1.261453454E0,7.245363881E0
2.086469542E0,9.188829231E-1,-6.721059812E0,-3.617616191E0,7.687921548E0
2.096454542E0,1.158375521E0,-5.548883693E0,-5.509446563E0,7.904805217E0
2.106440542E0,1.209287227E0,-4.860886559E0,-6.541290675E0,8.238875981E0
2.116425542E0,8.769256425E-1,-4.548692313E0,-6.695689913E0,8.141981562E0
2.126411542E0,7.321439052E-1,-4.506391801E0,-6.399031427E0,7.860738194E0
2.136396542E0,2.742092711E-1,-4.483863648E0,-6.516758097E0,7.915071702E0
2.146382542E0,-4.697080028E-1,-3.993112393E0,-7.191787570E0,8.239379870E0
2.156368542E0,-1.607079740E0,-3.239248421E0,-8.145742092E0,8.912269624E0
2.166353542E0,-2.489667826E0,-2.543073955E0,-8.902919097E0,9.587890251E0
2.176339542E0,-3.022576044E0,-1.853033657E0,-8.850834439E0,9.534514667E0
2.186324542E0,-3.657913447E0,-1.335588255E0,-8.044771203E0,8.937699395E0
2.196310542E0,-4.069973166E0,-1.145888499E0,-7.095127248E0,8.259453534E0
2.206295542E0,-4.204007721E0,-8.944296480E-1,-5.992426575E0,7.374473647E0
2.216281542E0,-4.086072305E0,-6.357776982E-1,-4.944534194E0,6.445821791E0
2.226266542E0,-3.773778949E0,-4.540195212E-1,-4.170021365E0,5.642394834E0
2.236252542E0,-3.413496324E0,-3.002615039E-1,-3.588736793E0,4.961969961E0
2.246238542E0,-3.008212359E0,-1.827726323E-1,-3.060192937E0,4.295058584E0
2.256223542E0,-2.689535598E0,-2.189779704E-1,-2.478873281E0,3.664200571E0
2.266209542E0,-2.285309393E0,-3.671666975E-1,-1.990423491E0,3.052742387E0
2.276194542E0,-1.647819046E0,-4.448805059E-1,-1.523939789E0,2.288147450E0
2.286180542E0,-1.018275649E0,-2.976614298E-1,-1.263008083E0,1.649447496E0
2.296165542E0,-5.314692181E-1,-1.299045935E-1,-1.302710531E0,1.412936467E0
2.306151542E0,-1.839452183E-1,-6.458856337E-2,-1.489555968E0,1.502259800E0
2.316136542E0,3.387537611E-1,-1.645421103E-2,-1.434235607E0,1.473789886E0
2.326122542E0,7.869469339E-1,-7.132492125E-2,-9.851902024E-1,1.262922189E0
2.336108542E0,8.707720327E-1,-2.300081214E-1,-4.799102247E-1,1.020520207E0
2.346093542E0,8.760602546E-1,-4.443006083E-1,-2.444872892E-1,1.012254234E0
2.356079542E0,7.369631803E-1,-5.856388472E-1,-4.639751002E-2,9.424650219E-1
2.366064542E0,5.475689417E-1,-7.224962917E-1,-1.648549363E-2,9.066997347E-1
2.376050542E0,3.425515276E-1,-6.929769158E-1,-1.626271471E-1,7.899405952E-1
2.386035542E0,3.848877078E-1,-5.770154466E-1,-3.113956623E-1,7.602977258E-1
2.396021542E0,6.716778481E-1,-5.962041446E-1,-4.579960299E-1,1.008152209E0
2.406006542E0,8.296561664E-1,-6.081802655E-1,-7.578085041E-1,1.277687880E0
2.415992542E0,1.099037976E0,-7.358527941E-1,-1.306141385E0,1.858862320E0
2.425977542E0,1.526822028E0,-6.364461811E-1,-1.847398111E0,2.479743742E0
2.435963542E0,1.770487783E0,-2.893086822E-1,-2.262709028E0,2.887590457E0
2.445949542E0,1.705408857E0,-3.480718474E-1,-2.636780849E0,3.159459863E0
2.455934542E0,1.910611628E0,-1.672810557E-1,-2.649013516E0,3.270426938E0
2.465920542E0,1.953772851E0,3.147829543E-1,-1.857229765E0,2.713967402E0
2.475905542E0,1.436671996E0,1.199551449E-1,-5.641007745E-1,1.548103790E0
2.485891542E0,8.085284221E-1,-3.296306794E-1,1.069654841E0,1.380773722E0
2.495876542E0,4.065259141E-1,-7.748657092E-1,2.492741123E0,2.641862694E0
2.505862542E0,7.308364677E-1,-9.286061119E-1,4.036803666E0,4.206211489E0
2.515847542E0,1.645667270E0,-6.560440014E-1,5.584758700E0,5.859022464E0
2.525833542E0,3.107944223E0,-7.403528843E-1,6.541291260E0,7.279830426E0
2.535819542E0,4.089604023E0,-7.687170696E-1,7.017866818E0,8.158813742E0
2.545804542E0,4.286911299E0,-7.088275480E-1,6.921973650E0,8.172745205E0
2.555790542E0,3.696882216E0,-5.617055723E-1,6.049500663E0,7.111885090E0
2.565775542E0,2.963586994E0,-2.831422452E-1,5.160699325E0,5.957838108E0
2.575761542E0,2.230381234E0,-2.719908375E-1,4.311822191E0,4.862138426E0
2.585746542E0,1.024022292E0,-1.854031485E-2,3.309565575E0,3.464417655E0
2.595732542E0,1.800492185E-1,3.298460031E-1,2.542545952E0,2.570166536E0
2.605717542E0,-3.475684386E-1,3.137832632E-1,1.697645509E0,1.761040610E0
2.615703542E0,-9.252166271E-1,2.026416904E-1,4.293856037E-1,1.039933391E0
2.625689542E0,-1.323544160E0,-8.970683137E-2,-9.399147731E-1,1.625809411E0
2.635674542E0,-1.411345366E0,-6.164685841E-1,-2.208616143E0,2.692566531E0
2.645660542E0,-1.944159443E0,-2.404232368E-1,-3.005503929E0,3.587563677E0
2.655645542E0,-3.002921798E0,1.445447972E-1,-3.831278713E0,4.870023522E0
2.665631542E0,-3.264274796E0,3.054977403E-1,-4.342781444E0,5.441375698E0
2.675619292E0,-2.528841248E0,2.331474184E-1,-4.240932888E0,4.943167763E0
2.685605292E0,-1.275186810E0,9.293749111E-2,-3.637822999E0,3.855968743E0
2.695590292E0,-5.106057680E-1,-3.214658833E-1,-2.963566529E0,3.024365245E0
2.705576292E0,-3.876300520E-1,-7.729793975E-1,-2.620053134E0,2.759063724E0
2.715562292E0,-5.075380263E-1,-1.308943370E0,-2.902219881E0,3.223942901E0
2.725547292E0,-6.788675845E-1,-1.457659553E0,-3.619149916E0,3.960287702E0
2.735533292E0,-9.075714844E-1,-8.854565109E-1,-4.248358852E0,4.433539462E0
2.745518292E0,-1.283496288E0,-7.441738936E-1,-4.717690294E0,4.945478664E0
2.755504292E0,-1.978948915E0,-4.499634174E-1,-4.889130657E0,5.293609776E0
2.765489292E0,-2.337655422E0,-4.806455120E-1,-4.897220280E0,5.447790327E0
2.775475292E0,-2.410180484E0,-8.146247292E-1,-4.769750394E0,5.405839642E0
2.785460292E0,-2.454264397E0,-9.476094165E-1,-4.085860636E0,4.859592007E0
2.795446292E0,-2.382449187E0,-1.128550628E0,-3.087930374E0,4.060172982E0
2.805432292E0,-2.624501111E0,-1.342133920E0,-1.791590969E0,3.449511232E0
2.815417292E0,-3.339876956E0,-1.403626164E0,-3.832779694E-1,3.643054555E0
2.825403292E0,-4.360510787E0,-1.334695677E0,8.333814275E-1,4.635729875E0
2.835388292E0,-5.192935610E0,-1.207345952E0,2.104122307E0,5.731631110E0
2.845374292E0,-5.592938955E0,-1.351258793E0,3.212141021E0,6.589743274E0
2.855359292E0,-5.576388996E0,-1.528941351E0,3.748971552E0,6.891194641E0
2.865345292E0,-5.295152541E0,-1.516264003E0,3.691147851E0,6.630404921E0
2.875330292E0,-4.776145201E0,-1.439768681E0,3.485515310E0,6.085500293E0
2.885316292E0,-4.219348184E0,-1.279946736E0,3.404419692E0,5.570568748E0
2.895301292E0,-4.365259895E0,-1.280602208E0,3.311702732E0,5.626971739E0
2.905287292E0,-4.603209997E0,-1.273797804E0,2.984011903E0,5.631734205E0
2.915273292E0,-4.148336965E0,-1.040439228E0,2.773201652E0,5.097240505E0
2.925258292E0,-4.017909558E0,-8.885858676E-1,2.861712710E0,5.012243180E0
2.935244292E0,-4.177005864E0,-7.215116206E-1,3.297253093E0,5.370273267E0
2.945229292E0,-3.980302021E0,-4.918084314E-1,4.031695538E0,5.686760820E0
2.955215292E0,-3.932368301E0,-5.862915426E-1,4.854678277E0,6.274962901E0
2.965200292E0,-4.291717125E0,-8.634378701E-1,5.760078106E0,7.234836600E0
2.975186292E0,-4.463211575E0,-1.199191717E0,6.639109915E0,8.089258236E0
2.985171292E0,-4.472552794E0,-1.446576302E0,7.527318345E0,8.874504660E0
2.995157292E0,-4.732917613E0,-1.799700472E0,8.212646518E0,9.648160123E0
3.005143292E0,-4.354624687E0,-2.422467823E0,8.566383185E0,9.910299057E0
3.015128292E0,-3.188773794E0,-3.123399584E0,8.562300074E0,9.655924908E0
3.025114292E0,-1.890753899E0,-4.014281945E0,8.250061097E0,9.367652745E0
3.035099292E0,-4.790489298E-1,-5.113056797E0,7.599586422E0,9.172052741E0
3.045085292E0,7.580347914E-1,-5.709263463E0,6.848675879E0,8.948444967E0
3.055070292E0,1.198488005E0,-5.511311240E0,6.200566987E0,8.382001911E0
3.065056292E0,1.269581376E0,-5.443440853E0,5.527058376E0,7.860741663E0
3.075041292E0,2.036219176E0,-5.813677193E0,5.063840198E0,7.974177612E0
3.085027292E0,3.771310254E0,-6.411641532E0,5.080541600E0,9.007987074E0
3.095013292E0,5.967305768E0,-6.555916901E0,5.522244948E0,1.044432735E1
3.104998292E0,7.438945282E0,-6.092046758E0,6.188084936E0,1.143430522E1
3.114984292E0,9.046800948E0,-6.735558568E0,5.861806210E0,1.271114191E1
3.124969292E0,1.040016649E1,-6.911447493E0,4.718586672E0,1.334903104E1
3.134955292E0,1.102875972E1,-6.561581683E0,3.369918780E0,1.326816670E1
3.144940292E0,1.080166906E1,-5.860764821E0,2.015843968E0,1.245344313E1
3.154926292E0,9.572308345E0,-5.260962701E0,1.638950574E0,1.104504299E1
3.164911292E0,7.542533385E0,-5.520752739E0,2.119288815E0,9.584357347E0
3.174897292E0,5.688854342E0,-5.958237906E0,2.793706376E0,8.698761864E0
3.184883292E0,4.794461312E0,-6.593327971E0,2.941811963E0,8.666780869E0
3.194868292E0,4.860841243E0,-6.742384608E0,2.265341737E0,8.615062447E0
3.204854292E0,6.278276483E0,-6.561018012E0,8.722312054E-1,9.122746309E0
3.214839292E0,8.214665562E0,-6.104711827E0,-6.850293803E-1,1.025755829E1
3.224825292E0,9.772745635E0,-5.683331062E0,-1.826236599E0,1.145172255E1
3.234810292E0,1.013657167E1,-5.700430659E0,-2.487675680E0,1.189258278E1
3.244796292E0,8.976975837E0,-6.313810598E0,-3.115283064E0,1.140856205E1
3.254781292E0,7.846906103E0,-6.691086985E0,-3.979361204E0,1.105350153E1
3.264767292E0,6.510039062E0,-6.388428671E0,-4.717672752E0,1.026883955E1
3.274753292E0,4.102065024E0,-6.141494322E0,-5.094682506E0,8.972217107E0
3.284738292E0,1.044334935E0,-6.191493863E0,-5.099343907E0,8.088791009E0
3.294724292E0,-1.985746011E0,-6.110327493E0,-5.061441085E0,8.179087672E0
3.304709292E0,-3.968618699E0,-5.674863709E0,-5.358719376E0,8.756134184E0
3.314695292E0,-4.923962520E0,-4.781092530E0,-6.056862892E0,9.153679084E0
3.324680292E0,-5.543687273E0,-3.637065492E0,-7.021278083E0,9.657073050E0
3.334666292E0,-5.900477355E0,-2.724738175E0,-8.112398930E0,1.039475096E1
3.344651292E0,-5.728400815E0,-1.910603004E0,-8.919182543E0,1.077110937E1
3.354637292E0,-5.256022974E0,-1.149277546E0,-9.173797209E0,1.063509152E1
3.364623292E0,-4.806743973E0,-6.332337208E-1,-8.771721611E0,1.002241850E1
3.374608292E0,-4.151411431E0,-3.121496607E-1,-7.550748138E0,8.622380862E0
3.384594292E0,-3.588966588E0,-3.002783512E-1,-5.924369663E0,6.933181388E0
3.394579292E0,-3.028487579E0,-4.211609101E-1,-4.371801760E0,5.334956810E0
3.404565292E0,-2.189558898E0,-4.147346739E-1,-3.106014057E0,3.822760304E0
3.414550292E0,-1.748468923E0,-3.380366001E-1,-2.100484608E0,2.753806076E0
3.424536292E0,-1.565448149E0,-5.617748983E-1,-1.393649937E0,2.169903014E0
3.434521292E0,-1.223208278E0,-7.559324250E-1,-9.958637099E-1,1.749118879E0
3.444507292E0,-7.309510732E-1,-6.346313515E-1,-8.413405113E-1,1.282536658E0
3.454493292E0,-1.495986736E-1,-4.903817108E-1,-7.394469313E-1,8.997976160E-1
3.464478292E0,2.617903697E-1,-3.702423330E-1,-4.958577745E-1,6.719289511E-1
3.474464292E0,3.811045593E-1,-3.050198583E-1,-1.464566723E-1,5.096345317E-1
3.484449292E0,3.981369138E-1,-4.492621900E-1,1.340614522E-1,6.150788490E-1
3.494435292E0,4.004594278E-1,-5.776655839E-1,3.485662660E-1,7.845786908E-1
3.504420292E0,4.779034603E-1,-6.656845982E-1,3.978365131E-1,9.109344613E-1
3.514406292E0,7.578751624E-1,-6.514888743E-1,3.309863198E-1,1.052788896E0
3.524391292E0,1.151311499E0,-5.419601463E-1,1.787327179E-1,1.284984184E0
3.534377292E0,1.179638336E0,-4.296456586E-1,1.111084995E-1,1.260351972E0
3.544363292E0,9.501871616E-1,-4.615581536E-1,1.596406817E-1,1.068352338E0
3.554348292E0,5.905722892E-1,-5.563668086E-1,2.037377509E-1,8.365576643E-1
3.564334292E0,2.228736413E-1,-5.747468001E-1,2.142899287E-1,6.526306135E-1
3.574319292E0,-6.486257851E-2,-5.397842512E-1,1.163897046E-1,5.559862905E-1
3.584305292E0,-3.016315430E-1,-4.323545274E-1,-8.731413245E-2,5.343554836E-1
3.594290292E0,-4.290868109E-1,-2.937706925E-1,-2.666505754E-1,5.843964754E-1
3.604276292E0,-2.981618053E-1,-1.329892190E-1,-3.145302084E-1,4.533385561E-1
3.614261292E0,-6.077011228E-2,-4.248776928E-2,-2.015432909E-1,2.147508212E-1
3.624247292E0,1.660767120E-1,-1.447772057E-1,7.270895720E-2,2.320097111E-1
3.634233292E0,7.400201046E-1,-3.356281319E-1,2.698387697E-1,8.562061433E-1
3.644218292E0,1.623271850E0,-1.857667722E-1,4.086212638E-1,1.684188864E0
3.654204292E0,2.547890307E0,8.395446852E-2,4.857568556E-1,2.595140283E0
3.664189292E0,3.099319580E0,2.175083824E-1,6.990960270E-1,3.184623527E0
3.674173167E0,3.005156019E0,1.136144699E-1,6.532702285E-1,3.077439348E0
3.684158167E0,2.565423183E0,1.498648681E-1,2.059909755E-1,2.578039540E0
3.694144167E0,2.352852920E0,5.637280145E-1,1.243901575E-1,2.422638861E0
3.704129167E0,2.264282806E0,8.535004541E-1,5.223855686E-1,2.475545664E0
3.714115167E0,1.842596231E0,9.004142732E-1,1.204599515E0,2.378437875E0
3.724101167E0,1.387516792E0,5.894095704E-1,1.875780934E0,2.406483036E0
3.734086167E0,7.746660268E-1,3.242018685E-1,2.390473321E0,2.533688419E0
3.744072167E0,6.003424019E-1,3.406880200E-3,2.703501672E0,2.769358030E0
3.754057167E0,1.125533465E0,-5.473483555E-2,3.186937183E0,3.380294379E0
3.764043167E0,1.105632466E0,3.737174794E-2,3.689001338E0,3.851305061E0
3.774028167E0,7.741818774E-1,-2.479211397E-1,3.896561122E0,3.980453623E0
3.784014167E0,2.371613127E-1,-7.642617837E-1,3.570454888E0,3.659028515E0
3.793999167E0,-4.369577479E-1,-9.586559764E-1,2.242731723E0,2.477861767E0
3.803985167E0,-8.353928697E-1,-3.367602991E-1,4.734396958E-1,1.017562721E0
3.813971167E0,-1.272981532E0,1.744013929E-1,-1.261466610E0,1.800609851E0
3.823956167E0,-1.863226962E0,3.277890623E-1,-2.718483993E0,3.311980616E0
3.833942167E0,-2.574185236E0,1.709834030E-1,-4.087538202E0,4.833594263E0
3.843927167E0,-3.005509776E0,4.155563539E-1,-5.178021702E0,6.001473556E0
3.853913167E0,-2.828185360E0,6.754842393E-1,-5.474643350E0,6.198921777E0
3.863898167E0,-2.243194823E0,7.139488319E-1,-4.724570128E0,5.278561247E0
3.873884167E0,-1.813283554E0,4.587135563E-1,-3.385522660E0,3.867839068E0
3.883869167E0,-1.498676163E0,-1.611864663E-1,-1.835080805E0,2.374770068E0
3.893855167E0,-1.301313046E0,-6.221947624E-1,-4.539415705E-1,1.512152412E0
3.903841167E0,-1.053295208E0,-4.462450267E-1,8.481444776E-1,1.424048621E0
3.913826167E0,-1.060094351E0,-3.199869031E-1,1.657087467E0,1.993020453E0
3.923812167E0,-1.641002654E0,-5.191783708E-1,1.952975875E0,2.603180874E0
3.933797167E0,-2.155567572E0,-6.131089932E-1,2.090871931E0,3.064982810E0
3.943783167E0,-2.325009649E0,-5.966102703E-1,1.861025485E0,3.037273372E0
3.953768167E0,-2.540921010E0,-5.325957573E-1,9.018260103E-1,2.748313660E0
3.963754167E0,-2.477964039E0,-1.135709447E-1,4.604682326E-2,2.480992634E0
3.973739167E0,-2.001612723E0,-6.547141984E-2,-3.891380489E-1,2.040139314E0
3.983725167E0,-1.923002463E0,-3.287283078E-1,-6.707785463E-1,2.062994094E0
3.993711167E0,-1.889718357E0,-4.231933292E-1,-7.672388935E-1,2.082974696E0
4.003696167E0,-1.766403503E0,-4.620448612E-1,-7.391652417E-1,1.969779694E0
4.013682167E0,-1.930153608E0,-6.686704789E-1,-9.386336482E-1,2.248031647E0
4.023667167E0,-2.149665685E0,-7.306015559E-1,-1.308944832E0,2.620720848E0
4.033653167E0,-2.456725783E0,-7.954628918E-1,-2.088009135E0,3.320850031E0
4.043638167E0,-2.714943211E0,-6.270322370E-1,-2.909638828E0,4.028657863E0
4.053624167E0,-2.917011290E0,-4.849306806E-1,-3.801895870E0,4.816484697E0
4.063609167E0,-3.308306377E0,-5.019615002E-1,-4.774204803E0,5.830084727E0
4.073595167E0,-3.928255370E0,-6.014416419E-1,-5.406983464E0,6.710319849E0
4.083581167E0,-4.749346827E0,-8.076089475E-1,-5.454730657E0,7.277541758E0
4.093566167E0,-5.350344994E0,-1.081417538E0,-4.945628209E0,7.365792138E0
4.103552167E0,-5.876954591E0,-1.402501891E0,-4.346932383E0,7.443213551E0
4.113537167E0,-6.469606150E0,-1.620527605E0,-3.621430914E0,7.589247349E0
4.123523167E0,-6.976144595E0,-2.022936056E0,-2.515249979E0,7.686699302E0
4.133508167E0,-7.267530647E0,-2.585724423E0,-9.187577927E-1,7.768338843E0
4.143494167E0,-7.736621768E0,-3.130470329E0,1.087433007E0,8.416511832E0
4.153479167E0,-7.607587752E0,-3.581813982E0,2.656280143E0,8.818197492E0
4.163465167E0,-6.819884773E0,-3.875025534E0,3.558470435E0,8.613324739E0
4.173451167E0,-5.793310171E0,-3.692760806E0,4.466826616E0,8.194599754E0
4.183436167E0,-5.265476752E0,-3.322872668E0,5.540903413E0,8.334766873E0
4.193422167E0,-5.515913583E0,-2.927364662E0,6.320474085E0,8.884996296E0
4.203407167E0,-5.451404761E0,-2.339820938E0,6.982979990E0,9.162673487E0
4.213393167E0,-5.211582381E0,-1.501633977E0,8.080491843E0,9.731898270E0
4.223378167E0,-5.138654737E0,-1.024013814E0,9.515458206E0,1.086270324E1
4.233364167E0,-5.276131548E0,-1.108090928E0,1.106369449E1,1.230734599E1
4.243349167E0,-5.607071090E0,-1.670027940E0,1.242900414E1,1.373711700E1
4.253335167E0,-5.284287245E0,-3.413674372E0,1.319775747E1,1.462045370E1
4.263321167E0,-4.393333547E0,-5.834502636E0,1.375024099E1,1.556958342E1
4.273306167E0,-2.872151744E0,-7.930741727E0,1.350639924E1,1.592384188E1
4.283292167E0,-7.637925446E-1,-9.017000613E0,1.217717041E1,1.517145868E1
4.293277167E0,1.598694248E0,-8.223867325E0,1.093483121E1,1.377528042E1
4.303263167E0,4.056750273E0,-7.132619010E0,1.015073597E1,1.305254448E1
4.313248167E0,6.120480598E0,-8.393945872E0,9.191929425E0,1.387119954E1
4.323234167E0,8.148478589E0,-9.735578978E0,8.276817371E0,1.515535902E1
4.333219167E0,9.946242464E0,-8.562567877E0,7.578847518E0,1.515533693E1
4.343205167E0,1.166345860E1,-7.319988357E0,6.570239655E0,1.525734398E1
4.353191167E0,1.260101169E1,-6.726048657E0,5.510165770E0,1.530970780E1
4.363176167E0,1.285724954E1,-7.274128060E0,4.495663329E0,1.544126917E1
4.373162167E0,1.346806021E1,-8.247038087E0,3.436651591E0,1.616208084E1
4.383147167E0,1.399623102E1,-7.900147340E0,1.854194768E0,1.617853049E1
4.393133167E0,1.362290384E1,-7.042568965E0,1.207181060E-1,1.533609662E1
4.403118167E0,1.218835731E1,-6.944501803E0,-1.037339326E0,1.406620887E1
4.413104167E0,1.020049460E1,-6.740591267E0,-1.439897612E0,1.231092872E1
4.423089167E0,8.443747192E0,-6.679993647E0,-1.076824404E0,1.082029263E1
4.433075167E0,6.570933720E0,-6.824166105E0,-7.282180846E-1,9.501405925E0
4.443061167E0,5.053517523E0,-6.654606791E0,-8.235627830E-1,8.396432967E0
4.453046167E0,3.618342415E0,-6.642024168E0,-1.091711561E0,7.642036444E0
4.463032167E0,2.721815736E0,-6.816742480E0,-1.461359671E0,7.484105225E0
4.473017167E0,2.020734580E0,-6.729617212E0,-1.826812842E0,7.260052426E0
4.483003167E0,1.484020409E0,-6.708847318E0,-2.417113820E0,7.283775678E0
4.492988167E0,1.339328719E0,-6.770488080E0,-3.124121715E0,7.575846273E0
4.502974167E0,9.041315675E-1,-6.655931770E0,-4.069269161E0,7.853523612E0
4.512959167E0,2.535662609E-1,-6.395952868E0,-5.748217029E0,8.603168483E0
4.522945167E0,-6.931827378E-1,-5.581059752E0,-7.696259608E0,9.532111110E0
4.532931167E0,-1.844590132E0,-4.345322644E0,-9.107606728E0,1.025830600E1
4.542916167E0,-2.938246331E0,-3.323883651E0,-9.964048405E0,1.090705068E1
4.552902167E0,-3.732227465E0,-2.652947230E0,-1.010274202E1,1.109202629E1
4.562887167E0,-4.359215629E0,-2.091835406E0,-9.378577226E0,1.055159927E1
4.572873167E0,-4.916047145E0,-1.758056018E0,-8.406861202E0,9.896140447E0
4.582858167E0,-4.864822612E0,-1.409910897E0,-7.364247102E0,8.937923873E0
4.592844167E0,-4.344700500E0,-9.469621298E-1,-6.100525221E0,7.549143506E0
4.602829167E0,-3.846760386E0,-6.334263866E-1,-4.896035634E0,6.258590846E0
4.612815167E0,-3.252499089E0,-5.179470934E-1,-3.846783775E0,5.064066047E0
4.622801167E0,-2.701166294E0,-4.632405438E-1,-2.828889365E0,3.938718851E0
4.632786167E0,-2.080000788E0,-4.882207261E-1,-2.089466261E0,2.988416305E0
4.642772167E0,-1.137180533E0,-4.293791717E-1,-1.510886026E0,1.939155131E0
4.652757167E0,-3.440975314E-1,-2.798171894E-1,-1.108142091E0,1.193599457E0
4.662743167E0,7.507824898E-3,-1.894313684E-1,-8.038179052E-1,8.258715611E-1
4.672727667E0,2.074100947E-1,-1.754261175E-1,-5.324790323E-1,5.977685086E-1
4.682713667E0,2.887144589E-1,-1.274875738E-1,-2.822404218E-1,4.234014359E-1
4.692699667E0,1.842457652E-2,-7.881008819E-2,-1.242299438E-2,8.188300073E-2
4.702684667E0,-4.310807115E-1,-1.919662826E-1,1.933241888E-1,5.099567388E-1
4.712670667E0,-6.179115307E-1,-2.344724706E-1,3.666566376E-1,7.557969894E-1
4.722655667E0,-5.446570283E-1,-3.479366671E-1,4.558313541E-1,7.908814236E-1
4.732641667E0,-2.975010699E-1,-4.388645250E-1,3.327474280E-1,6.259631049E-1
4.742626667E0,2.366900271E-1,-3.522427028E-1,9.035117626E-2,4.338898774E-1
4.752612667E0,7.144876528E-1,-3.858877279E-1,-2.146418580E-1,8.399244440E-1
4.762597667E0,9.675656712E-1,-4.509232378E-1,-6.475942632E-1,1.248556536E0
4.772583667E0,1.159629164E0,-2.914810690E-1,-9.137630280E-1,1.504880023E0
4.782569667E0,1.171805990E0,-1.475093172E-1,-8.420575261E-1,1.450499623E0
4.792554667E0,9.086842096E-1,-1.134969409E-1,-4.738465159E-1,1.031076655E0
4.802540667E0,6.130606806E-1,-3.598250797E-1,-1.130288713E-1,7.197867822E-1
4.812525667E0,5.448868239E-1,-6.429810293E-1,-2.546433181E-2,8.431931493E-1
4.822511667E0,5.470608187E-1,-2.447122608E-1,-3.820921540E-2,6.005160898E-1
4.832496667E0,4.716147798E-1,1.165540114E-2,9.744618773E-2,4.817178722E-1
4.842482667E0,7.896080017E-3,-1.755556333E-1,3.011219582E-1,3.486496267E-1
4.852467667E0,-4.478435093E-1,1.185347557E-2,7.077993152E-1,8.376659145E-1
4.862453667E0,-4.673492360E-1,6.015783571E-1,1.255385799E0,1.468436356E0
4.872439667E0,-1.255654478E-1,8.391210544E-1,1.825918218E0,2.013422003E0
4.882424667E0,4.591999716E-1,7.486814390E-1,2.534680277E0,2.682534738E0
4.892410667E0,9.309965998E-1,6.202423771E-1,3.214648892E0,3.403736590E0
4.902395667E0,1.306691315E0,6.137448049E-1,3.541100696E0,3.824071001E0
4.912381667E0,1.484244942E0,5.093573874E-1,3.391316081E0,3.736770365E0
4.922366667E0,1.801875637E0,3.768919328E-1,3.086429978E0,3.593724161E0
4.932352667E0,1.547744535E0,4.580919242E-1,2.617701969E0,3.075341437E0
4.942337667E0,1.211708559E0,3.802622679E-1,1.854025199E0,2.247275342E0
4.952323667E0,1.321664865E0,1.787824193E-1,1.202741269E0,1.795925313E0
4.962309667E0,1.666255901E0,-4.821730971E-2,4.282500744E-1,1.721084473E0
4.972294667E0,1.621100779E0,1.190209517E-1,-3.482777059E-1,1.662357086E0
4.982280667E0,1.370289726E0,-1.393166372E-1,-1.053627915E0,1.734138068E0
4.992265667E0,9.612997949E-1,-3.912635118E-1,-1.868350877E0,2.137269153E0
5.002251667E0,2.095051521E-1,-4.418208772E-1,-3.006903752E0,3.046402513E0
5.012236667E0,-7.016220242E-1,-3.465212023E-1,-4.055559779E0,4.130365060E0
5.022222667E0,-1.478051864E0,-9.714622557E-2,-4.452162384E0,4.692102364E0
5.032207667E0,-2.253934988E0,-7.437512130E-2,-4.206870518E0,4.773207951E0
5.042193667E0,-3.073095110E0,-3.781768584E-1,-3.688541747E0,4.815835495E0
5.052179667E0,-3.621406356E0,-4.921238887E-1,-2.887826375E0,4.657929915E0
5.062164667E0,-3.360382849E0,-4.549899763E-1,-1.874168857E0,3.874493215E0
5.072150667E0,-2.433868432E0,-6.056490424E-1,-6.040050977E-1,2.579796206E0
5.082135667E0,-1.697637908E0,-6.126329568E-1,7.418631470E-1,1.951321228E0
5.092121667E0,-1.379703743E0,-6.317016041E-1,1.910495853E0,2.439799939E0
5.102106667E0,-1.104582599E0,-8.623418096E-1,2.630875161E0,2.980812008E0
5.112092667E0,-9.655422422E-1,-9.293029538E-1,2.700192733E0,3.014451293E0
5.122078667E0,-9.306463516E-1,-8.291436580E-1,2.222962287E0,2.548557075E0
5.132063667E0,-5.814497557E-1,-9.045119289E-1,1.142050095E0,1.568599396E0
5.142049667E0,-2.064780486E-1,-6.706940541E-1,-2.278075218E-1,7.378075397E-1
5.152034667E0,4.392837703E-2,-3.370346797E-1,-1.487320578E0,1.525662013E0
5.162020667E0,3.434104836E-1,-2.507730460E-1,-2.032589809E0,2.076593175E0
5.172005667E0,2.629302844E-1,-5.189792731E-1,-1.941069190E0,2.026381361E0
5.181991667E0,-2.759707448E-1,-9.725018907E-1,-1.958805549E0,2.204277423E0
5.191976667E0,-7.447069404E-1,-1.076208692E0,-2.217122673E0,2.574576960E0
5.201962667E0,-1.094526265E0,-8.872737524E-1,-2.698329225E0,3.044047152E0
5.211948667E0,-1.345495485E0,-7.398404489E-1,-3.405627142E0,3.735775451E0
5.221933667E0,-1.526635501E0,-7.936830725E-1,-4.011529076E0,4.364964410E0
5.231919667E0,-1.795348974E0,-9.463372086E-1,-4.453753996E0,4.894359683E0
5.241904667E0,-2.151486800E0,-1.284602435E0,-5.094960834E0,5.677827469E0
5.251890667E0,-2.522030118E0,-1.281294957E0,-5.855193594E0,6.502741322E0
5.261875667E0,-2.862658789E0,-1.137554317E0,-6.300046252E0,7.012804570E0
5.271861667E0,-3.250999570E0,-1.079684277E0,-6.245765964E0,7.123503971E0
5.281846667E0,-3.772684058E0,-1.314862653E0,-5.885249451E0,7.113239058E0
5.291832667E0,-4.686829859E0,-1.730505253E0,-5.292478024E0,7.278141672E0
5.301818667E0,-5.669289558E0,-2.093290340E0,-4.335080076E0,7.437447668E0
5.311803667E0,-6.542164249E0,-2.468923952E0,-3.028621480E0,7.620239276E0
5.321789667E0,-7.235507201E0,-2.636765061E0,-1.720048531E0,7.890732627E0
5.331774667E0,-7.363279388E0,-2.740527411E0,-4.489492178E-1,7.869557118E0
5.341760667E0,-7.033015784E0,-2.763629760E0,1.226333030E0,7.655380668E0
5.351745667E0,-6.724997327E0,-2.892873399E0,2.952480208E0,7.893759873E0
5.361731667E0,-6.518527465E0,-2.916292667E0,4.172636824E0,8.270844050E0
5.371716667E0,-5.751259335E0,-2.668135958E0,4.637130280E0,7.854865414E0
5.381702667E0,-4.552120535E0,-2.401123293E0,4.820329978E0,7.051437835E0
5.391688667E0,-3.481232517E0,-2.256666223E0,4.978329347E0,6.480376946E0
5.401673667E0,-2.661223379E0,-2.210810896E0,5.082782253E0,6.148533982E0
5.411659667E0,-2.092592767E0,-2.140860947E0,4.880562732E0,5.725567453E0
5.421644667E0,-1.724278407E0,-2.039597405E0,4.693941243E0,5.400572006E0
5.431630667E0,-1.739245525E0,-1.866842296E0,4.979045046E0,5.594726510E0
5.441615667E0,-2.314035302E0,-1.785037117E0,5.711858457E0,6.416108160E0
5.451601667E0,-2.267309909E0,-1.716466527E0,6.378082607E0,6.983329386E0
5.461587667E0,-1.127539644E0,-1.489866017E0,7.452327220E0,7.682982975E0
5.471572667E0,-6.106598139E-2,-1.314590026E0,8.758474159E0,8.856790931E0
5.481558667E0,3.850607854E-1,-1.560223224E0,1.023645615E1,1.036183395E1
5.491543667E0,8.108450890E-1,-2.754961263E0,1.165121336E1,1.199991892E1
5.501529667E0,1.632413971E0,-5.110201601E0,1.224836845E1,1.337166652E1
5.511514667E0,2.390155233E0,-6.669109055E0,1.185808318E1,1.381318190E1
5.521500667E0,3.429344325E0,-6.661066210E0,1.026854216E1,1.271114329E1
5.531485667E0,4.912483267E0,-6.161994660E0,8.347258193E0,1.147952043E1
5.541471667E0,5.973574567E0,-5.372283747E0,6.814177891E0,1.053461182E1
5.551457667E0,6.346709372E0,-5.300972275E0,5.833050188E0,1.011956034E1
5.561442667E0,7.036665616E0,-7.017671521E0,4.908126506E0,1.108386586E1
5.571428667E0,8.399662694E0,-7.325389431E0,4.460696980E0,1.200472745E1
5.581413667E0,1.011364825E1,-7.346111963E0,3.721231776E0,1.304219337E1
5.591399667E0,1.083375157E1,-6.501963472E0,2.935343773E0,1.297158221E1
5.601384667E0,1.020856961E1,-6.144770517E0,2.554274297E0,1.218595156E1
5.611370667E0,9.298203154E0,-7.547916332E0,2.619757850E0,1.225931295E1
5.621355667E0,9.107684496E0,-9.223003868E0,1.910019305E0,1.310198042E1
5.631341667E0,9.680066682E0,-9.088577549E0,-2.466706395E-2,1.327804735E1
5.641327667E0,9.876562364E0,-8.545149021E0,-2.478296161E0,1.329315643E1
5.651312667E0,9.582808190E0,-7.934491546E0,-4.553625901E0,1.324846700E1
5.661298667E0,8.359007004E0,-7.465476438E0,-5.805802163E0,1.262195212E1
5.671283667E0,6.519276493E0,-7.116895262E0,-5.612653427E0,1.116481270E1
5.681269542E0,4.483152627E0,-7.285488031E0,-5.018399731E0,9.917728025E0
5.691254542E0,2.644832464E0,-7.434354633E0,-5.268188106E0,9.487811839E0
5.701240542E0,1.252134454E0,-7.005869501E0,-6.353766961E0,9.540461349E0
5.711225542E0,2.450737649E-1,-5.979698356E0,-7.488748941E0,9.586355631E0
5.721211542E0,-5.949962926E-1,-5.058340892E0,-7.903646314E0,9.402577212E0
5.731197542E0,-1.427986541E0,-4.712347400E0,-7.581014496E0,9.039753557E0
5.741182542E0,-2.295551961E0,-4.527761912E0,-6.774695152E0,8.465617588E0
5.751168542E0,-3.067824138E0,-4.109486018E0,-5.820488030E0,7.757415883E0
5.761153542E0,-3.903232795E0,-3.585155373E0,-5.262413396E0,7.468705380E0
5.771139542E0,-4.590215730E0,-3.090354337E0,-5.066519977E0,7.502665863E0
5.781124542E0,-4.826509901E0,-2.552194442E0,-5.310409681E0,7.616386628E0
5.791110542E0,-4.616743378E0,-1.912760188E0,-5.648826642E0,7.542029792E0
5.801095542E0,-4.202020252E0,-1.284104691E0,-5.817327025E0,7.290212121E0
5.811081542E0,-3.622184036E0,-9.205438247E-1,-5.850740354E0,6.942534178E0
5.821067542E0,-2.845412427E0,-6.648687655E-1,-5.389411411E0,6.130593586E0
5.831052542E0,-2.227454703E0,-4.978386649E-1,-4.575413504E0,5.113101458E0
5.841038542E0,-1.728336375E0,-4.438568777E-1,-3.800487860E0,4.198554933E0
5.851023542E0,-1.424516219E0,-3.656208399E-1,-3.127503744E0,3.456038878E0
5.861009542E0,-1.282763339E0,-2.666612466E-1,-2.426716118E0,2.757814555E0
5.870994542E0,-1.317604558E0,-2.469948676E-1,-1.387436539E0,1.929266282E0
5.880980542E0,-1.260322895E0,-2.720589575E-1,-5.700988483E-1,1.409766851E0
5.890966542E0,-8.362845701E-1,-2.928510717E-1,-1.385649776E-1,8.968466343E-1
5.900951542E0,-3.667496449E-1,-2.313196519E-1,6.621518567E-2,4.386325731E-1
5.910937542E0,-4.264959097E-3,-2.147577059E-1,1.612626994E-1,2.685976924E-1
5.920922542E0,2.368069714E-1,-3.425272617E-1,2.076660566E-1,4.653253247E-1
5.930908542E0,4.750792551E-1,-2.923261379E-1,3.545152232E-2,5.589379929E-1
5.940893542E0,5.076324588E-1,-2.099286367E-1,-2.582177210E-1,6.069902282E-1
5.950879542E0,3.765525019E-1,-1.701342411E-1,-4.506915419E-1,6.114411768E-1
5.960864542E0,1.648160523E-1,-3.112833957E-1,-4.706725010E-1,5.878726791E-1
5.970850542E0,9.936115086E-2,-3.241895163E-1,-4.294532852E-1,5.471760274E-1
5.980836542E0,1.067455995E-1,-2.825143638E-1,-3.747623768E-1,4.813063763E-1
5.990821542E0,-7.935607195E-2,-3.751117480E-1,-2.978517567E-1,4.855119757E-1
6.000807542E0,-2.888050908E-1,-4.483516324E-1,-1.962071219E-1,5.682647283E-1
6.010792542E0,-3.887024313E-1,-5.695148577E-1,-1.254403174E-1,7.008366618E-1
6.020778542E0,-3.668046087E-1,-5.551190127E-1,-1.122079222E-1,6.747542939E-1
6.030763542E0,-3.567146534E-1,-3.745178171E-1,1.748682931E-2,5.175081916E-1
6.040749542E0,-4.949703133E-1,-4.853126134E-1,8.247146845E-2,6.980870196E-1
6.050734542E0,-7.415023738E-1,-7.654332733E-1,-4.905813932E-4,1.065698882E0
6.060720542E0,-8.172951525E-1,-8.672774443E-1,-3.209840727E-1,1.234168670E0
6.070706542E0,-6.163064700E-1,-4.653581129E-1,-7.372476473E-1,1.067673139E0
6.080691542E0,-4.998088843E-1,3.424275666E-2,-8.311814126E-1,9.704864903E-1
6.090677542E0,-7.106594807E-1,1.674696650E-1,-5.708013913E-1,9.267670767E-1
6.100662542E0,-9.189092356E-1,1.353064705E-1,-3.897777343E-1,1.007287797E0
6.110648542E0,-7.288642019E-1,7.390398189E-2,-4.953688011E-1,8.843613924E-1
6.120633542E0,8.438643157E-2,4.791774224E-1,-5.376894861E-1,7.251496780E-1
6.130619542E0,1.175062889E0,8.443092889E-1,4.918946779E-1,1.528264160E0
6.140604542E0,1.790748385E0,8.034467532E-1,1.724451485E0,2.612669016E0
6.150590542E0,1.744397507E0,6.320208621E-1,2.191977891E0,2.871783437E0
6.160576542E0,9.056132519E-1,4.290251228E-1,2.155938578E0,2.377450119E0
6.170561542E0,5.394237703E-1,3.550593066E-1,1.976936011E0,2.079740634E0
6.180547542E0,1.810894382E-1,3.888861801E-1,1.187795786E0,1.262887436E0
6.190532542E0,1.297391903E-1,2.682230379E-1,-3.270113826E-2,2.997419223E-1
6.200518542E0,1.489823771E-1,5.286077370E-1,-1.122718615E0,1.249847581E0
6.210503542E0,6.523761892E-1,6.321078394E-1,-1.343635778E0,1.621885359E0
6.220489542E0,9.586872590E-1,4.831656620E-1,-1.158468491E0,1.579423807E0
6.230475542E0,6.742781049E-1,-2.860896438E-2,-1.489304538E0,1.635083313E0
6.240460542E0,1.098281931E0,-1.587526359E-1,-1.639623588E0,1.979846234E0
6.250446542E0,2.154292002E0,1.787411964E-1,-8.347590315E-1,2.317271043E0
6.260431542E0,2.287190150E0,1.812186617E-1,4.430066925E-1,2.336735740E0
6.270417542E0,1.617338680E0,-3.782309452E-1,1.890548662E0,2.516548688E0
6.280402542E0,7.522010243E-1,-7.464475103E-1,3.215491476E0,3.385613046E0
6.290388542E0,-8.792078108E-2,-8.975119346E-1,3.840374057E0,3.944835945E0
6.300373542E0,-9.926195285E-1,-8.988323821E-1,3.625937948E0,3.865309714E0
6.310359542E0,-1.981042218E0,-5.101811139E-1,2.573808675E0,3.287750619E0
6.320345542E0,-2.452840016E0,2.431779514E-1,1.315356304E0,2.793872199E0
6.330330542E0,-2.649101224E0,5.412390384E-1,3.195105743E-1,2.722639161E0
6.340316542E0,-2.746573140E0,5.325016902E-1,-3.139826167E-1,2.815281006E0
6.350301542E0,-2.956911520E0,3.014948644E-1,-5.434454852E-1,3.021515826E0
6.360287542E0,-2.923217817E0,-9.633375496E-2,-8.080021727E-1,3.034361565E0
6.370272542E0,-2.666674739E0,-2.197352944E-1,-1.022419571E0,2.864398635E0
6.380258542E0,-2.315871620E0,-3.291130181E-1,-1.345648974E0,2.698582573E0
6.390244542E0,-1.996411624E0,-4.315423492E-1,-1.677605932E0,2.643151497E0
6.400229542E0,-1.757972110E0,-6.634622177E-1,-2.269409645E0,2.946331310E0
6.410215542E0,-1.347211350E0,-8.080166446E-1,-3.093258941E0,3.469311199E0
6.420200542E0,-7.915796828E-1,-6.959185039E-1,-3.679718299E0,3.827692218E0
6.430186542E0,-4.278594804E-1,-5.048430446E-1,-4.032848024E0,4.086782772E0
6.440171542E0,-2.981375393E-1,-6.429536936E-1,-4.168114003E0,4.227936824E0
6.450157542E0,-5.473084483E-1,-1.197356130E0,-4.125375534E0,4.330350048E0
6.460142542E0,-1.146091105E0,-1.629892506E0,-4.249030112E0,4.693008768E0
6.470128542E0,-1.731371372E0,-1.797139977E0,-4.764752194E0,5.378682217E0
6.480114542E0,-1.922399323E0,-1.835520223E0,-5.330691918E0,5.956595501E0
6.490099542E0,-2.006015091E0,-1.885846623E0,-5.755209714E0,6.379886589E0
6.500085542E0,-2.142761292E0,-1.844093118E0,-5.943863111E0,6.581915683E0
6.510070542E0,-2.550780293E0,-2.448933929E0,-6.378643355E0,7.293205643E0
6.520056542E0,-3.356090115E0,-2.549022035E0,-6.692530078E0,7.908907196E0
6.530041542E0,-3.772691659E0,-2.549143365E0,-6.240359044E0,7.724856973E0
6.540027542E0,-4.042603811E0,-2.404735849E0,-4.694837036E0,6.645817849E0
6.550013542E0,-4.498008063E0,-2.538125457E0,-2.206469631E0,5.616285747E0
6.559998542E0,-5.075386110E0,-2.830321348E0,4.957292819E-1,5.832324632E0
6.569984542E0,-5.214804781E0,-3.120780616E0,3.551774204E0,7.039073842E0
6.579969542E0,-5.149398996E0,-3.474429282E0,5.853387389E0,8.535227752E0
6.589955542E0,-4.963675640E0,-3.392886059E0,6.685523359E0,8.991438942E0
6.599940542E0,-4.968695474E0,-2.891089121E0,6.149414960E0,8.417935339E0
6.609926542E0,-3.615264441E0,-2.288244696E0,4.255346274E0,6.034415687E0
6.619911542E0,-1.655322485E0,-1.718691393E0,2.514030250E0,3.466170904E0
6.629897542E0,-4.856375724E-2,-1.618651965E0,1.300068759E0,2.076673156E0
6.639883542E0,1.378079094E0,-1.399338693E0,5.262102324E-1,2.033260430E0
6.649868542E0,2.307960484E0,-1.010979493E0,6.765906787E-1,2.608933896E0
6.659854542E0,2.801879321E0,-1.020563080E0,1.959156382E0,3.567964470E0
6.669839542E0,2.473354095E0,-1.159239154E0,4.093562003E0,4.921236203E0
6.679826042E0,1.327061553E0,-1.396109276E0,5.939080088E0,6.243627613E0
6.689811042E0,3.375211680E-1,-1.432956675E0,7.286287930E0,7.433523873E0
6.699797042E0,-9.706377983E-4,-1.242250906E0,7.990623647E0,8.086609581E0
6.709782042E0,1.848129451E-1,-9.970409006E-1,7.865626549E0,7.930720483E0
6.719768042E0,5.848297387E-1,-9.040380120E-1,7.375432241E0,7.453610621E0
6.729754042E0,4.520450261E-1,-9.900721890E-1,6.852482416E0,6.938378983E0
6.739739042E0,-8.547285886E-1,-1.241490183E0,6.585952293E0,6.756228715E0
6.749725042E0,-2.785287847E0,-1.662128937E0,6.425794133E0,7.198008838E0
6.759710042E0,-3.741762519E0,-2.407244013E0,6.111365958E0,7.559391799E0
6.769696042E0,-2.725716999E0,-3.182190121E0,5.504010991E0,6.917369739E0
6.779681042E0,1.220604075E-1,-3.732723016E0,4.896137960E0,6.157945013E0
6.789667042E0,2.558608545E0,-4.145175376E0,4.424738942E0,6.580826034E0
6.799653042E0,3.462178195E0,-4.117284742E0,4.653574405E0,7.112978718E0
6.809638042E0,3.269711537E0,-4.441463441E0,5.366433023E0,7.695207237E0
6.819624042E0,3.057705531E0,-5.018236009E0,6.051877556E0,8.435489180E0
6.829609042E0,3.734231890E0,-6.132627019E0,6.243345802E0,9.514881438E0
6.839595042E0,5.258995698E0,-6.873586187E0,5.807979666E0,1.042285233E1
6.849580042E0,7.490921767E0,-8.026989235E0,4.297663743E0,1.179052072E1
6.859566042E0,9.090811186E0,-7.304566911E0,1.972289228E0,1.182748792E1
6.869551042E0,9.542841886E0,-5.826541067E0,-1.451524508E-1,1.118192655E1
6.879537042E0,9.276245105E0,-5.162972138E0,-9.636620700E-1,1.065990850E1
6.889523042E0,8.296002086E0,-4.990944715E0,-3.946087039E-1,9.689628258E0
6.899508042E0,6.970949929E0,-5.699072351E0,8.627864903E-1,9.045328579E0
6.909494042E0,5.886510111E0,-6.047209139E0,1.956619860E0,8.663030701E0
6.919479042E0,4.915174740E0,-5.986957090E0,2.360589371E0,8.097837989E0
6.929465042E0,4.636129237E0,-6.579794006E0,2.175284675E0,8.337820271E0
6.939450042E0,5.410664871E0,-6.841787274E0,1.444684435E0,8.841519132E0
6.949436042E0,7.002364680E0,-6.613724813E0,5.210143965E-1,9.646031465E0
6.959422042E0,8.077396912E0,-6.644457194E0,-3.501534927E-1,1.046497777E1
6.969407042E0,7.845801564E0,-6.783130345E0,-8.331674194E-1,1.040488479E1
6.979393042E0,7.387584509E0,-7.407060415E0,-1.306426436E0,1.054266090E1
6.989378042E0,7.148356206E0,-7.671985477E0,-2.464459310E0,1.077181124E1
6.999364042E0,6.337086609E0,-7.103207515E0,-3.723904831E0,1.022162858E1
7.009349042E0,5.524289719E0,-6.845417810E0,-4.684235449E0,9.965921114E0
7.019335042E0,5.087833663E0,-6.654619655E0,-5.097081034E0,9.805623346E0
7.029321042E0,3.519817416E0,-6.818600140E0,-4.857068911E0,9.081494421E0
7.039306042E0,1.428202888E0,-7.311274252E0,-4.367344135E0,8.635287458E0
7.049292042E0,-5.159840369E-1,-7.411773856E0,-4.302403497E0,8.585528933E0
7.059277042E0,-2.416896304E0,-7.205030344E0,-4.422165290E0,8.792576178E0
7.069263042E0,-4.088535152E0,-6.868190961E0,-4.786306200E0,9.316485056E0
7.079248042E0,-5.612348787E0,-6.277727430E0,-5.171114970E0,9.881738239E0
7.089234042E0,-6.844334321E0,-5.469232922E0,-5.643159521E0,1.042126050E1
7.099219042E0,-7.272863892E0,-4.538034593E0,-6.478292774E0,1.074507257E1
7.109205042E0,-7.119731162E0,-3.553513458E0,-7.377318553E0,1.085093815E1
7.119191042E0,-6.429284336E0,-2.731794010E0,-8.017649478E0,1.063395969E1
7.129176042E0,-5.664213590E0,-2.072582572E0,-8.257591141E0,1.022578728E1
7.139162042E0,-5.151632048E0,-1.598484626E0,-7.827527261E0,9.506032236E0
7.149147042E0,-4.816446258E0,-1.336835174E0,-6.803603786E0,8.442411226E0
7.159133042E0,-4.395478306E0,-1.311486032E0,-5.691438811E0,7.309767499E0
7.169118042E0,-3.452013103E0,-1.332094544E0,-4.680309336E0,5.966252243E0
7.179104042E0,-2.723849983E0,-1.231129209E0,-3.736080780E0,4.784698261E0
7.189089042E0,-2.425846052E0,-1.208734519E0,-2.840970297E0,3.926433552E0
7.199075042E0,-1.849663761E0,-1.320723317E0,-2.158183031E0,3.134217622E0
7.209061042E0,-9.565460086E-1,-1.277163899E0,-1.839012765E0,2.434768129E0
7.219046042E0,1.941977262E-2,-1.065467942E0,-1.714147375E0,2.018390519E0
7.229032042E0,8.408600163E-1,-8.866479541E-1,-1.542009732E0,1.967481683E0
7.239017042E0,1.136703401E0,-7.449785435E-1,-1.167078516E0,1.791412826E0
7.249003042E0,1.068774542E0,-7.825200069E-1,-6.999371490E-1,1.498175089E0
7.258988042E0,8.431649888E-1,-8.595306145E-1,-2.008644292E-1,1.220682839E0
7.268974042E0,4.118848872E-1,-9.095918436E-1,2.093408453E-1,1.020210798E0
7.278960042E0,-1.296438807E-1,-8.977779830E-1,3.600592607E-1,9.759382735E-1
7.288945042E0,-6.388363767E-1,-8.612475032E-1,2.630311489E-1,1.104103511E0
7.298931042E0,-7.956142616E-1,-8.231812522E-1,7.753554136E-2,1.147449863E0
7.308916042E0,-7.393663859E-1,-6.074165095E-1,8.080413491E-2,9.602847374E-1
7.318902042E0,-8.016959506E-1,-4.743210174E-1,9.558268011E-2,9.363935463E-1
7.328887042E0,-7.359633064E-1,-4.897863181E-1,9.489797115E-2,8.891221799E-1
7.338873042E0,-3.514907509E-1,-5.016547041E-1,2.247742787E-1,6.524773302E-1
7.348858042E0,-2.135870934E-2,-4.666521017E-1,5.096675822E-1,6.913620057E-1
7.358844042E0,-1.435549915E-2,-4.876801510E-1,6.677859414E-1,8.270284599E-1
7.368830042E0,-1.212759304E-1,-4.817819184E-1,6.177220809E-1,7.927182586E-1
7.378815042E0,-1.488016981E-1,-4.550912793E-1,5.080622292E-1,6.981240911E-1
7.388801042E0,-2.710272163E-1,-4.102024240E-1,3.887945250E-1,6.268037678E-1
7.398786042E0,-4.219321579E-1,-3.140331951E-1,2.727223241E-1,5.924703027E-1
7.408772042E0,-5.362346989E-1,-2.266329624E-1,1.501518202E-1,6.012118770E-1
7.418757042E0,-7.257844734E-1,-3.114159083E-1,6.226319879E-2,7.922245109E-1
7.428743042E0,-8.161496830E-1,-3.178453604E-1,-7.585271269E-2,8.791357189E-1
7.438729042E0,-7.204225767E-1,-2.228425048E-1,-2.974443519E-1,8.106420995E-1
7.448714042E0,-6.580567592E-1,-1.498512002E-1,-5.417378059E-1,8.654327998E-1
7.458700042E0,-4.542707688E-1,-1.665764297E-1,-6.954549658E-1,8.472114540E-1
7.468685042E0,-1.785844910E-1,-1.114607211E-1,-6.103388017E-1,6.456232382E-1
7.478671042E0,-1.942731553E-1,-7.139815763E-2,-4.198578581E-1,4.681029554E-1
7.488656042E0,-3.982024026E-1,-1.318442611E-1,-3.157929146E-1,5.250459290E-1
7.498642042E0,-5.913066995E-1,-2.156210473E-1,-3.558381557E-1,7.230192543E-1
7.508628042E0,-6.912028706E-1,-1.918836907E-1,-4.873972920E-1,8.672582541E-1
7.518613042E0,-7.794350159E-1,-1.533094628E-1,-7.622971192E-1,1.100963048E0
7.528599042E0,-7.450457865E-1,-1.478608811E-1,-1.066915712E0,1.309681336E0
7.538584042E0,-4.119223094E-1,-4.865833595E-2,-1.240696131E0,1.308195135E0
7.548570042E0,1.050621861E-1,6.719459429E-2,-1.120072457E0,1.126994005E0
7.558555042E0,3.959535635E-1,2.288731769E-2,-7.430293742E-1,8.422563176E-1
7.568541042E0,3.044762135E-1,-3.329366586E-1,-3.661289629E-1,5.810361440E-1
7.578526042E0,2.572926915E-1,-7.902589430E-1,-4.887944841E-1,9.641725851E-1
7.588512042E0,5.414141625E-1,-1.037985590E0,-1.444331263E0,1.859203103E0
7.598498042E0,1.140055025E0,-6.319664830E-1,-2.684343855E0,2.984092664E0
7.608483042E0,1.559603857E0,2.146571338E-2,-3.907541316E0,4.207339314E0
7.618469042E0,1.949925967E0,5.083195066E-1,-4.445346869E0,4.880748794E0
7.628454042E0,2.964483372E0,4.334466411E-1,-3.920183288E0,4.933951223E0
7.638440042E0,4.838182697E0,3.627320230E-2,-2.849347603E0,5.614989699E0
7.648425042E0,5.608434661E0,7.052326798E-3,-2.396984780E0,6.099190530E0
7.658411042E0,4.393129479E0,4.442137040E-2,-2.333575235E0,4.974649059E0
7.668396042E0,1.962265347E0,-3.916193879E-1,-2.403130204E0,3.127121010E0
7.678382042E0,-5.446330547E-2,-6.629582608E-1,-2.238520558E0,2.335263197E0
7.688368042E0,-2.012202322E0,-1.183980770E0,-1.521211624E0,2.786548664E0
7.698353042E0,-3.041557276E0,-1.077152725E0,-1.363170741E0,3.502793617E0
7.708339042E0,-2.526272566E0,-1.862902442E-1,-8.893018591E-1,2.684700156E0
7.718324042E0,-2.341412258E-1,5.789670828E-2,7.239876240E-1,7.631069533E-1
7.728310042E0,1.714457424E0,-5.648098225E-1,3.055646142E0,3.548992496E0
7.738295042E0,2.191907725E0,-1.628652604E0,4.873051983E0,5.586018654E0
7.748281042E0,1.888770816E0,-2.082638028E0,5.961824588E0,6.591524009E0
7.758267042E0,1.495356991E0,-1.620177942E0,5.933224102E0,6.329630110E0
7.768252042E0,1.450079661E0,-6.871894880E-1,5.351854745E0,5.587245263E0
7.778238042E0,1.739263651E0,-8.738309305E-2,4.497252018E0,4.822649642E0
7.788223042E0,1.351165822E0,-1.144371001E-1,3.725056440E0,3.964188493E0
7.798209042E0,-7.510046840E-2,-9.075566471E-1,2.779012030E0,2.924415670E0
7.808194042E0,-1.541191268E0,-8.027629944E-1,1.686600704E0,2.421635993E0
7.818180042E0,-2.217083496E0,1.863357794E-2,7.280871069E-1,2.333648919E0
7.828165042E0,-2.738440540E0,3.117965985E-1,-2.806090486E-1,2.770381769E0
7.838151042E0,-3.648534805E0,1.794814904E-1,-1.122762469E0,3.821598539E0
7.848137042E0,-4.542574371E0,-1.942869694E-1,-1.982445257E0,4.960122835E0
7.858122042E0,-4.823684526E0,1.237080067E-1,-2.743762676E0,5.550808022E0
7.868108042E0,-4.239708188E0,7.047609557E-1,-2.882556864E0,5.175031169E0
7.878093042E0,-3.427127354E0,4.473433166E-1,-2.852976969E0,4.481606356E0
7.888079042E0,-2.956822935E0,-1.596575839E-1,-2.481030904E0,3.863134318E0
7.898064042E0,-2.326342522E0,-7.925286859E-1,-1.782996147E0,3.036288278E0
7.908050042E0,-1.504782995E0,-8.896374893E-1,-1.304337226E0,2.181082833E0
7.918036042E0,-6.942916623E-1,-9.995380271E-1,-1.242072566E0,1.738925369E0
7.928021042E0,-7.202565157E-1,-1.220284817E0,-1.909284310E0,2.377652426E0
7.938007042E0,-1.271605829E0,-1.216451748E0,-2.856922086E0,3.355404602E0
7.947992042E0,-2.249526042E0,-6.374948061E-1,-3.512727667E0,4.219718320E0
7.957978042E0,-3.636557954E0,-3.725582689E-1,-3.685006521E0,5.190628716E0
7.967963042E0,-5.287244766E0,-7.204419456E-1,-3.720750550E0,6.505227012E0
7.977949042E0,-6.712880142E0,-9.479256047E-1,-3.497830131E0,7.628639353E0
7.987935042E0,-7.215383424E0,-1.046383068E0,-2.610846108E0,7.744236107E0
7.997920042E0,-6.918889829E0,-1.243437890E0,-1.139765003E0,7.121533438E0
8.007906042E0,-6.113720632E0,-1.578194202E0,6.436556518E-1,6.346855088E0
8.017891042E0,-5.903588659E0,-2.075277407E0,2.276573653E0,6.658973116E0
8.027877042E0,-6.098444197E0,-2.311881480E0,3.431616846E0,7.369654793E0
8.037862042E0,-5.668320674E0,-2.280145133E0,3.683288024E0,7.134110439E0
8.047848042E0,-4.444986388E0,-2.046020571E0,3.297682278E0,5.900746781E0
8.057833042E0,-3.273540002E0,-1.873179800E0,3.012759154E0,4.827171473E0
8.067819042E0,-2.986803948E0,-1.547267402E0,2.976306442E0,4.491484640E0
8.077805042E0,-3.271720348E0,-9.886162323E-1,3.022830983E0,4.562786785E0
8.087790042E0,-3.352896951E0,-7.131004009E-1,3.214332558E0,4.699187583E0
8.097776042E0,-3.190676185E0,-5.337470010E-1,3.703876655E0,4.917723320E0
8.107761042E0,-3.141272183E0,-3.562544775E-1,4.799727314E0,5.747337685E0
8.117747042E0,-3.122693825E0,-4.711195207E-1,6.319304641E0,7.064473192E0
8.127732042E0,-3.504315570E0,-8.256467307E-1,7.929174088E0,8.708255960E0
8.137718042E0,-4.239952894E0,-1.261444099E0,9.322860863E0,1.031911704E1
8.147704042E0,-4.919364855E0,-1.758652726E0,1.057236933E1,1.179270975E1
8.157689042E0,-5.131304203E0,-2.315689479E0,1.156185972E1,1.285959956E1
8.167675042E0,-5.492038817E0,-3.020892046E0,1.219875365E1,1.371487768E1
8.177660042E0,-5.483662096E0,-4.027386140E0,1.218409702E1,1.395502094E1
8.187646042E0,-3.938656689E0,-5.737521887E0,1.153567004E1,1.347233674E1
8.197631042E0,-1.018768569E0,-7.962176358E0,1.086302156E1,1.350701222E1
8.207617042E0,3.126319098E0,-9.892493688E0,1.026535660E1,1.459495970E1
8.217603042E0,6.448074948E0,-9.872343013E0,1.024619293E1,1.562130906E1
8.227588042E0,8.040571733E0,-9.343179352E0,1.019973096E1,1.599938454E1
8.237574042E0,8.419798751E0,-8.753894620E0,9.156246207E0,1.521053998E1
8.247559042E0,8.678937993E0,-8.758447262E0,8.469017689E0,1.495856356E1
8.257545042E0,1.077323873E1,-9.751063575E0,7.914443198E0,1.654642937E1
8.267530042E0,1.309298706E1,-9.369399437E0,6.436504478E0,1.733898918E1
8.277516042E0,1.384078045E1,-8.391145055E0,4.215197538E0,1.672562134E1
8.287501042E0,1.312647640E1,-7.755573764E0,2.373288354E0,1.543002932E1
8.297487042E0,1.165274767E1,-7.880266807E0,1.265673682E0,1.412398893E1
8.307473042E0,1.136053424E1,-9.338633142E0,2.443940261E-1,1.470821320E1
8.317458042E0,1.239162289E1,-9.113013064E0,-8.661866462E-1,1.540615476E1
8.327444042E0,1.271692689E1,-7.984554237E0,-1.842005370E0,1.512832838E1
8.337429042E0,1.228791200E1,-7.823427778E0,-2.471763360E0,1.477526371E1
8.347415042E0,1.098809701E1,-7.865946391E0,-2.868677621E0,1.381451048E1
8.357400042E0,9.312313070E0,-7.688040177E0,-3.174396075E0,1.248606931E1
8.367386042E0,7.533784196E0,-7.528421130E0,-3.142574358E0,1.110453973E1
8.377372042E0,5.185512570E0,-7.712973874E0,-2.765301479E0,9.696721037E0
8.387357042E0,2.456257421E0,-8.155466012E0,-2.363591917E0,8.839196408E0
8.397343042E0,-5.982578695E-2,-8.455502434E0,-2.349520007E0,8.776066591E0
8.407328042E0,-1.952894599E0,-8.346100445E0,-3.143505235E0,9.129776290E0
8.417314042E0,-2.584857574E0,-7.853064390E0,-4.347548094E0,9.340946602E0
8.427299042E0,-2.773615635E0,-7.294778087E0,-5.679377174E0,9.652049322E0
8.437285042E0,-3.187239484E0,-6.615626328E0,-7.293026846E0,1.034955303E1
8.447270042E0,-3.705049022E0,-5.867352294E0,-8.802361021E0,1.120869175E1
8.457256042E0,-4.284432664E0,-4.990747079E0,-1.005259630E1,1.201326817E1
8.467242042E0,-4.591671102E0,-4.095486907E0,-1.103274050E1,1.263241147E1
8.477227042E0,-4.600974607E0,-3.018078366E0,-1.134323350E1,1.260740697E1
8.487213042E0,-4.253594449E0,-2.109221517E0,-1.084517235E1,1.183890385E1
8.497198042E0,-3.619389651E0,-1.707895532E0,-9.560439667E0,1.036430872E1
8.507184042E0,-3.337302427E0,-1.565538050E0,-7.872801667E0,8.693072124E0
8.517169042E0,-3.115811652E0,-1.454764158E0,-6.340516001E0,7.212958073E0
8.527155042E0,-2.917585194E0,-1.445007932E0,-4.894295502E0,5.878305857E0
8.537141042E0,-2.872546431E0,-1.362563946E0,-3.552661811E0,4.767547530E0
8.547126042E0,-2.445637708E0,-1.246871083E0,-2.363843347E0,3.622649122E0
8.557112042E0,-1.512852445E0,-1.062625903E0,-1.438284658E0,2.342340514E0
8.567097042E0,-9.590433544E-1,-8.361924765E-1,-8.857976228E-1,1.550361068E0
8.577083042E0,-8.021783459E-1,-6.879509416E-1,-5.312856521E-1,1.182806426E0
8.587068042E0,-3.635137957E-1,-4.947381788E-1,-4.227572000E-1,7.454071340E-1
8.597054042E0,1.903806639E-1,-3.591652215E-1,-3.150923816E-1,5.143225277E-1
8.607040042E0,3.502476329E-1,-2.459961632E-1,-1.550933021E-1,4.552377939E-1
8.617025042E0,2.563594759E-1,-2.480749945E-1,-2.257270825E-1,4.221541182E-1
8.627011042E0,9.290290117E-2,-1.518064360E-1,-4.481224215E-1,4.821720105E-1
8.636996042E0,-1.237493026E-1,-9.020631149E-2,-6.092196447E-1,6.281716676E-1
8.646982042E0,8.738079071E-3,-1.710822210E-2,-2.434394499E-1,2.441962552E-1
8.656967042E0,2.320841753E-1,-3.883135915E-2,4.464191276E-1,5.046394519E-1
8.666953042E0,4.119299108E-1,-2.209886451E-1,8.285539663E-1,9.513274450E-1
8.676937667E0,6.030479085E-1,-3.595594700E-1,1.017516096E0,1.236239781E0
8.686923667E0,8.798977822E-1,-4.606588519E-1,1.044800958E0,1.441539360E0
8.696909667E0,8.555967540E-1,-5.893774107E-1,1.094707528E0,1.509236930E0
8.706894667E0,6.029783267E-1,-6.136361928E-1,9.428114837E-1,1.276332924E0
8.716880667E0,4.421418893E-1,-6.899525897E-1,4.187150198E-1,9.202425192E-1
8.726865667E0,2.427085662E-1,-6.056149824E-1,-2.405579603E-1,6.953740628E-1
8.736851667E0,7.618805051E-2,-4.359135814E-1,-9.064119816E-1,1.008666421E0
8.746836667E0,-2.679545045E-2,-3.075699753E-1,-1.289838470E0,1.326273186E0
8.756822667E0,3.110367894E-2,-2.568224292E-1,-1.288229901E0,1.313948811E0
8.766808667E0,1.923733950E-4,-3.369051638E-1,-1.127927315E0,1.177168277E0
8.776793667E0,-1.618643779E-1,-3.900144003E-1,-9.274485093E-1,1.019054487E0
8.786779667E0,-3.067262220E-1,-4.061999318E-1,-7.611168587E-1,9.156299648E-1
8.796764667E0,-4.600940108E-1,-4.077946868E-1,-7.115476727E-1,9.403632787E-1
8.806750667E0,-5.834381014E-1,-5.084594744E-1,-8.435871577E-1,1.144801445E0
8.816735667E0,-5.113471949E-1,-5.342263265E-1,-1.361051710E0,1.548978850E0
8.826721667E0,-2.976969516E-1,-3.485075746E-1,-2.186641138E0,2.234162140E0
8.836706667E0,-1.607329416E-1,-4.710209951E-2,-2.874278376E0,2.879154367E0
8.846692667E0,-3.474041319E-1,7.550356083E-2,-3.165135255E0,3.185038712E0
8.856678667E0,-4.540608537E-1,1.879046604E-2,-2.923551693E0,2.958661664E0
8.866663667E0,-5.149420631E-1,-1.989591870E-1,-2.005037144E0,2.079645171E0
8.876649667E0,-5.816856909E-1,-5.799989884E-1,-1.002501688E0,1.296058141E0
8.886634667E0,-5.375409669E-1,-6.330721184E-1,-3.891685275E-1,9.171601501E-1
8.896620667E0,-4.945054597E-1,-5.115799872E-1,2.397557223E-1,7.508212432E-1
8.906605667E0,-5.168032318E-1,-5.568027916E-1,7.551644663E-1,1.071162126E0
8.916591667E0,-3.322434711E-1,-5.142308955E-1,1.130575519E0,1.285698309E0
8.926577667E0,2.889343143E-2,-3.631984846E-1,1.707477018E0,1.745916875E0
8.936562667E0,2.687064564E-1,-4.207232460E-1,2.110885927E0,2.169112862E0
8.946548667E0,6.116076475E-1,-5.600831527E-1,1.955195624E0,2.123804836E0
8.956533667E0,9.271356833E-1,-3.470436510E-1,1.306967304E0,1.639568054E0
8.966519667E0,1.096793815E0,2.060778067E-2,6.237622547E-1,1.261927376E0
8.976504667E0,1.264142296E0,1.517017709E-1,3.329334426E-1,1.316021979E0
8.986490667E0,1.103673649E0,1.175227489E-1,3.601114471E-1,1.166870761E0
8.996476667E0,7.330923235E-1,6.173855737E-2,5.973562288E-1,9.476658000E-1
9.006461667E0,5.857845891E-1,-7.860061169E-2,7.803074205E-1,9.788775773E-1
9.016447667E0,8.265898865E-1,-1.731302083E-2,1.037428204E0,1.326577498E0
9.026432667E0,1.060969094E0,2.887062728E-3,1.474635043E0,1.816648635E0
9.036418667E0,1.122965367E0,-6.482208654E-2,1.843078626E0,2.159210954E0
9.046403667E0,1.209507083E0,-1.429673463E-1,2.412996796E0,2.702942948E0
9.056389667E0,1.275642015E0,-5.378890224E-1,2.675681205E0,3.012616315E0
9.066374667E0,1.412812432E0,-9.189725317E-1,1.726437784E0,2.412703236E0
9.076360667E0,1.755307826E0,-5.857202697E-1,2.982939523E-1,1.874340706E0
9.086346667E0,2.206079037E0,-7.769239292E-2,-6.808123684E-1,2.310048983E0
9.096331667E0,2.171164727E0,2.555572379E-1,-1.248883987E0,2.517732509E0
9.106317667E0,1.698221460E0,2.052947183E-1,-1.906955949E0,2.561753899E0
9.116302667E0,1.010539198E0,-3.867845446E-2,-2.509888083E0,2.705960769E0
9.126288667E0,3.199719197E-1,-6.320723176E-2,-3.200321460E0,3.216898293E0
9.136273667E0,-3.020876259E-1,4.353971261E-1,-4.002061849E0,4.036994753E0
9.146259667E0,-1.173865964E0,8.567844696E-1,-4.154922100E0,4.401751763E0
9.156245667E0,-2.490187644E0,5.550995708E-1,-4.297797060E0,4.998022569E0
9.166230667E0,-3.605760376E0,6.234178537E-1,-3.773898817E0,5.256659585E0
9.176216667E0,-4.742490674E0,6.189077501E-1,-2.573926789E0,5.431331670E0
9.186201667E0,-5.037697881E0,2.783758508E-1,-9.860586601E-1,5.140836969E0
9.196187667E0,-4.110797256E0,-5.789854467E-2,1.260053923E0,4.299970025E0
9.206172667E0,-3.444874238E0,-1.971293740E-1,2.548821183E0,4.289814440E0
9.216158667E0,-2.722063951E0,-6.540096089E-1,2.518284100E0,3.765516635E0
9.226144667E0,-2.033849007E0,-1.124221203E0,1.677917004E0,2.866325273E0
9.236129667E0,-1.516220733E0,-7.808298692E-1,3.964540851E-1,1.750941586E0
9.246115667E0,-1.380430844E0,3.538954183E-2,-1.046701303E0,1.732750805E0
9.256100667E0,-1.649109234E0,7.034061559E-1,-2.250081673E0,2.877013907E0
9.266086667E0,-1.475087618E0,1.011725013E0,-2.461721059E0,3.042949483E0
9.276071667E0,-1.246302149E0,3.781758352E-1,-1.892551918E0,2.297398261E0
9.286057667E0,-1.176315655E0,-3.698029147E-1,-1.153032335E0,1.688181354E0
9.296042667E0,-8.249566861E-1,-2.796196997E-1,-9.302920103E-2,8.760109261E-1
9.306028667E0,2.083275229E-2,-3.005227648E-1,9.755401039E-1,1.020992865E0
9.316014667E0,1.142569620E0,-6.730588143E-1,2.236054203E0,2.599694579E0
9.325999667E0,1.782306760E0,-9.669574146E-1,3.309407115E0,3.881211084E0
9.335985667E0,1.616246420E0,-1.027123363E0,3.787008859E0,4.243662450E0
9.345970667E0,8.770074304E-1,-1.115937307E0,3.630633262E0,3.898199070E0
9.355956667E0,-2.071915733E-1,-1.342202333E0,2.605966022E0,2.938621166E0
9.365941667E0,-1.350252195E0,-9.723228197E-1,8.575608337E-1,1.871898298E0
9.375927667E0,-2.415512853E0,-7.347562949E-1,-1.363348496E0,2.869370711E0
9.385913667E0,-3.570171883E0,-2.557744619E-1,-3.375457263E0,4.919884103E0
9.395898667E0,-4.273768804E0,4.116774572E-1,-4.492405261E0,6.214200121E0
9.405884667E0,-4.633990325E0,4.740818663E-1,-4.726721318E0,6.636302764E0
9.415869667E0,-4.697867063E0,2.402054463E-1,-4.031418965E0,6.195158793E0
9.425855667E0,-4.496600346E0,-2.708605707E-2,-2.563440392E0,5.176038540E0
9.435840667E0,-4.396572905E0,-8.066504426E-1,-1.610085794E0,4.751096137E0
9.445826667E0,-4.265521014E0,-1.041155146E0,-1.772305098E0,4.734948671E0
9.455812667E0,-4.098454076E0,-9.566332783E-1,-2.591635081E0,4.942574778E0
9.465797667E0,-3.829228972E0,-6.807041949E-1,-3.476801205E0,5.216751799E0
9.475783667E0,-3.922003819E0,-4.826838880E-1,-4.034180020E0,5.647097142E0
9.485768667E0,-4.608931206E0,-5.076376482E-1,-4.292984802E0,6.318992115E0
9.495754667E0,-5.512351459E0,-6.836994311E-1,-4.294450114E0,7.021094309E0
9.505739667E0,-6.831530673E0,-9.488488801E-1,-4.049947622E0,7.998262391E0
9.515725667E0,-8.017750050E0,-1.277215063E0,-3.726865568E0,8.933371208E0
9.525710667E0,-8.283826429E0,-1.929409550E0,-2.613950980E0,8.898153810E0
9.535696667E0,-7.039461170E0,-2.690889813E0,-2.181409049E-1,7.539395665E0
9.545682667E0,-5.606270607E0,-3.268238331E0,2.680761266E0,7.021262911E0
9.555667667E0,-3.937862053E0,-3.855292643E0,5.669144547E0,7.906278442E0
9.565653667E0,-2.370889534E0,-4.297174624E0,8.535107013E0,9.845551211E0
9.575638667E0,-1.619670403E0,-4.061967451E0,9.901696036E0,1.082434738E1
9.585624667E0,-1.594467881E0,-4.096653426E0,8.947042771E0,9.968674509E0
9.595609667E0,-2.085337834E0,-3.532921026E0,8.262792825E0,9.225178054E0
9.605595667E0,-2.995100855E0,-2.437467393E0,7.345817263E0,8.298970279E0
9.615581667E0,-3.313481747E0,-1.674172447E0,5.771884804E0,6.862701280E0
9.625566667E0,-2.847481756E0,-1.058627284E0,4.490608996E0,5.421661483E0
9.635552667E0,-2.399883099E0,-5.904147068E-1,4.092591366E0,4.780934271E0
9.645537667E0,-2.555798374E0,-3.564866120E-1,4.422607048E0,5.120414156E0
9.655523667E0,-2.981766864E0,-3.884711739E-1,5.188607501E0,5.996956835E0
9.665508667E0,-3.415685230E0,-7.544361225E-1,6.425139245E0,7.315633518E0
9.675494667E0,-3.712275888E0,-1.181600954E0,8.423626338E0,9.280875701E0
9.685481167E0,-4.186133660E0,-1.951395665E0,1.059728315E1,1.156002034E1
9.695466167E0,-4.154744637E0,-3.123484953E0,1.252187547E1,1.355785479E1
9.705452167E0,-2.811042785E0,-5.084374450E0,1.364402164E1,1.482943531E1
9.715437167E0,-1.863759059E-1,-7.404790526E0,1.383658449E1,1.569448084E1
9.725423167E0,2.183052701E0,-9.144954649E0,1.360297302E1,1.653592421E1
9.735408167E0,4.050890193E0,-9.858929501E0,1.300428713E1,1.681427031E1
9.745394167E0,6.001772180E0,-9.885154263E0,1.235707287E1,1.692438459E1
9.755380167E0,8.758881710E0,-1.042285486E1,1.162314673E1,1.790115784E1
9.765365167E0,1.137882901E1,-1.126627245E1,1.044205361E1,1.911656685E1
9.775351167E0,1.452267221E1,-1.275571732E1,7.965349642E0,2.090605480E1
9.785336167E0,1.764435447E1,-1.164038783E1,4.636373066E0,2.164065222E1
9.795322167E0,1.901377822E1,-9.078043790E0,1.380407163E0,2.111492755E1
9.805307167E0,1.766393563E1,-7.204595311E0,-7.024429733E-1,1.908963702E1
9.815293167E0,1.400893585E1,-7.023464357E0,-6.496446624E-1,1.568443092E1
9.825278167E0,1.049282849E1,-8.902202228E0,7.171460894E-1,1.377907663E1
9.835264167E0,8.841794643E0,-1.002921211E1,1.134004618E0,1.341821131E1
9.845250167E0,8.225979339E0,-9.128480119E0,-1.700940415E-2,1.228805008E1
9.855235167E0,7.455326841E0,-8.371221253E0,-1.634915410E0,1.132837994E1
9.865221167E0,6.493772693E0,-7.687832601E0,-2.829883976E0,1.045371213E1
9.875206167E0,5.328058332E0,-7.091808368E0,-3.500985289E0,9.536186319E0
9.885192167E0,3.658249077E0,-6.881489868E0,-3.784705641E0,8.663814743E0
9.895177167E0,1.827321550E0,-7.452088069E0,-4.238201653E0,8.765561812E0
9.905163167E0,4.150885767E-1,-7.607939170E0,-5.532717311E0,9.416156211E0
9.915149167E0,-6.199428535E-1,-7.003832331E0,-7.583564467E0,1.034158820E1
9.925134167E0,-1.342807812E0,-5.979300746E0,-9.553569188E0,1.135014777E1
9.935120167E0,-1.822638515E0,-4.787838171E0,-1.095429309E1,1.209305348E1
9.945105167E0,-2.312818204E0,-3.792170489E0,-1.161904081E1,1.243912354E1
9.955091167E0,-2.472996830E0,-3.204900707E0,-1.166595069E1,1.234834026E1
9.965076167E0,-2.419482527E0,-2.938928116E0,-1.093301858E1,1.157679098E1
9.975062167E0,-2.421098698E0,-2.569577630E0,-9.675954920E0,1.029992969E1
9.985048167E0,-2.365556581E0,-2.176331035E0,-8.339318259E0,8.937365593E0
9.995033167E0,-2.303281395E0,-1.918688387E0,-6.941812084E0,7.561430111E0
1.000501917E1,-2.177207825E0,-1.810616055E0,-5.532615570E0,6.215174933E0
1.001500417E1,-2.152325583E0,-1.678735029E0,-4.183126729E0,4.994918012E0
1.002499017E1,-2.117087338E0,-1.582908666E0,-3.128704178E0,4.095906307E0
1.003497517E1,-1.862025359E0,-1.382013247E0,-2.494766014E0,3.406017692E0
1.004496117E1,-1.548978882E0,-1.107933199E0,-2.275275571E0,2.967108100E0
1.005494717E1,-6.246089315E-1,-9.579180577E-1,-1.983990092E0,2.289969434E0
1.006493217E1,5.180311471E-1,-8.066605291E-1,-1.148634644E0,1.496134695E0
1.007491817E1,9.730363262E-1,-6.304884531E-1,-3.683956361E-1,1.216565134E0
1.008490317E1,9.721089578E-1,-6.013829139E-1,2.851084080E-3,1.143094643E0
1.009488917E1,8.325563854E-1,-4.345940110E-1,6.310372691E-2,9.412779449E-1
1.010487417E1,8.148363984E-1,-2.471521577E-1,-9.785139064E-2,8.570982673E-1
1.011486017E1,1.036316063E0,-1.027931741E-1,-1.601271701E-1,1.053640418E0
1.012484517E1,1.148041152E0,-6.808059365E-2,3.080371221E-2,1.150470479E0
1.013483117E1,1.064291482E0,-1.530969165E-1,3.810069108E-1,1.140754702E0
1.014481717E1,9.545082539E-1,-3.103933033E-1,8.486561090E-1,1.314399939E0
1.015480217E1,5.615455413E-1,-3.469136967E-1,1.068034285E0,1.255539622E0
1.016478817E1,6.467605233E-3,-3.259882660E-1,9.609559786E-1,1.014764294E0
1.017477317E1,-3.872125608E-1,-2.320813979E-1,8.024408859E-1,9.207098989E-1
1.018475917E1,-6.740734524E-1,-1.321825956E-1,6.200720769E-1,9.253845894E-1
1.019474417E1,-9.039766163E-1,-1.252751336E-1,4.391867065E-1,1.012794424E0
1.020473017E1,-9.827567375E-1,-1.559654143E-1,3.100965571E-1,1.042255194E0
1.021471617E1,-8.168694752E-1,-1.721906338E-1,1.545682222E-1,8.490092398E-1
1.022470117E1,-6.518242121E-1,-1.761576772E-1,-7.551618716E-2,6.794181520E-1
1.023468717E1,-5.981438488E-1,-1.822319110E-1,-3.433064032E-1,7.133328954E-1
1.024467217E1,-4.716960561E-1,-6.465522163E-2,-6.824747318E-1,8.321353415E-1
1.025465817E1,-3.436151361E-1,-3.046465136E-2,-8.917530119E-1,9.561500359E-1
1.026464317E1,-3.434578460E-1,5.578375295E-2,-8.000955677E-1,8.724838317E-1
1.027462917E1,-4.461361223E-1,2.579374932E-2,-7.958306086E-1,9.127152430E-1
1.028461517E1,-3.958208317E-1,-5.629918501E-3,-7.870048213E-1,8.809553993E-1
1.029460017E1,-1.690950447E-1,-1.021445717E-1,-7.187514424E-1,7.454061200E-1
1.030458617E1,4.277706027E-2,-1.613769393E-1,-5.427642846E-1,5.678604248E-1
1.031457117E1,1.332814336E-2,-1.668311490E-1,-4.210486070E-1,4.530918242E-1
1.032455717E1,-1.027004957E-1,-2.897505856E-1,-3.891426901E-1,4.959181655E-1
1.033454217E1,-1.430527157E-1,-3.264618905E-1,-3.996501732E-1,5.355013598E-1
1.034452817E1,-2.831824082E-1,-5.233358873E-1,-4.172596478E-1,7.267587915E-1
1.035451417E1,-2.941745889E-1,-7.959289880E-1,-6.153972280E-1,1.048215336E0
1.036449917E1,-1.867080277E-1,-7.807186259E-1,-1.206279420E0,1.448962214E0
1.037448517E1,-1.909455049E-1,-5.066051030E-1,-1.885806570E0,1.961982501E0
1.038447017E1,-3.169629425E-1,-3.862064011E-1,-2.264924976E0,2.319376218E0
1.039445617E1,-7.078902394E-1,-1.939591599E-1,-2.223616737E0,2.341623398E0
1.040444117E1,-1.147008533E0,-4.061169013E-2,-1.791946041E0,2.127991659E0
1.041442717E1,-1.153821709E0,7.647558734E-2,-1.012286200E0,1.536839745E0
1.042441217E1,-9.258387709E-1,-2.341046807E-1,-1.487370864E-1,9.664911547E-1
1.043439817E1,-6.069433236E-1,-7.978844431E-1,5.367007220E-1,1.137122442E0
1.044438417E1,-3.229352885E-1,-1.309056952E0,5.198879305E-1,1.445060817E0
1.045436917E1,1.649622327E-1,-7.683293992E-1,-7.125680119E-1,1.060799593E0
1.046435517E1,7.782649881E-1,4.072068223E-1,-2.828366039E0,2.961615815E0
1.047434017E1,1.019533385E0,1.491180325E0,-5.051260498E0,5.364540959E0
1.048432617E1,1.575843914E0,2.128494671E0,-6.172019711E0,6.716219243E0
1.049431117E1,2.249714468E0,1.622690052E0,-5.677447008E0,6.318840299E0
1.050429717E1,3.652436945E0,5.682713011E-1,-3.472421640E0,5.071581603E0
1.051428317E1,4.604497554E0,-2.620473549E-1,-9.712114102E-1,4.713100693E0
1.052426817E1,4.280874048E0,-1.378774620E0,2.767662585E-1,4.505940705E0
1.053425417E1,3.510149630E0,-2.017256948E0,7.947605681E-1,4.125787243E0
1.054423917E1,3.014468295E0,-1.642777576E0,1.673946744E0,3.819402436E0
1.055422517E1,2.880263586E0,-1.289584116E0,2.673090888E0,4.135741822E0
1.056421017E1,2.663424856E0,-9.654853781E-1,3.595100318E0,4.577197863E0
1.057419617E1,2.110385844E0,-1.045408191E0,4.377923210E0,4.971198883E0
1.058418217E1,1.229334114E0,-1.284519258E0,4.836098750E0,5.152582188E0
1.059416717E1,1.119636548E-1,-1.535339374E0,4.539916227E0,4.793812908E0
1.060415317E1,-1.053600433E0,-1.616970598E0,3.086477925E0,3.640194194E0
1.061413817E1,-1.656931054E0,-8.341653930E-1,1.233616907E0,2.227793324E0
1.062412417E1,-2.244980855E0,-3.413059245E-1,-5.417831218E-1,2.334514451E0
1.063410917E1,-2.891069533E0,-2.254218578E-1,-2.102001522E0,3.581551124E0
1.064409517E1,-2.925677448E0,1.802535787E-1,-2.756128367E0,4.023471568E0
1.065408017E1,-2.840017785E0,3.361115505E-1,-2.735792336E0,3.957680091E0
1.066406617E1,-3.026199856E0,-1.149790639E-1,-2.312022398E0,3.810059491E0
1.067405217E1,-3.494304260E0,-6.517759725E-1,-1.607325908E0,3.901085843E0
1.068403721E1,-3.800406584E0,-9.503542458E-1,-1.068162923E0,4.060447688E0
1.069402321E1,-3.840547135E0,-1.194294089E0,-1.044400424E0,4.155347508E0
1.070400821E1,-3.741067870E0,-1.065211980E0,-1.111729358E0,4.045516968E0
1.071399421E1,-3.525436298E0,-9.904816402E-1,-1.319682659E0,3.892469305E0
1.072397921E1,-3.317095911E0,-9.881733057E-1,-1.577813256E0,3.803827867E0
1.073396521E1,-3.274040231E0,-8.334077400E-1,-1.533966740E0,3.710385675E0
1.074395121E1,-3.599325223E0,-7.584606148E-1,-1.437121646E0,3.949142083E0
1.075393621E1,-4.092131774E0,-8.862453733E-1,-1.501052763E0,4.447935782E0
1.076392221E1,-4.423567453E0,-1.089146534E0,-1.813567729E0,4.903388327E0
1.077390721E1,-4.728745624E0,-1.050296610E0,-2.516976662E0,5.458876228E0
1.078389321E1,-4.943603902E0,-7.957411462E-1,-3.458091869E0,6.085295629E0
1.079387821E1,-5.234185377E0,-8.227938011E-1,-4.624321954E0,7.032641022E0
1.080386421E1,-5.184369439E0,-7.859989540E-1,-5.454047703E0,7.565852046E0
1.081385021E1,-4.738617479E0,-9.120573221E-1,-5.719870312E0,7.483532625E0
1.082383521E1,-4.215661222E0,-1.161029133E0,-5.492442275E0,7.020449439E0
1.083382121E1,-3.950155239E0,-1.240347929E0,-4.706230921E0,6.268237302E0
1.084380621E1,-4.068221925E0,-1.560684715E0,-3.510578231E0,5.595563057E0
1.085379221E1,-4.473342753E0,-1.821204777E0,-2.140910064E0,5.283093614E0
1.086377721E1,-5.048264970E0,-1.890173271E0,-9.230227518E-1,5.468976613E0
1.087376321E1,-5.419366697E0,-1.875251907E0,1.989456654E-2,5.734675310E0
1.088374921E1,-5.693612221E0,-1.951523719E0,7.544358301E-1,6.065874906E0
1.089373421E1,-5.790041578E0,-1.998553459E0,1.766801698E0,6.374981227E0
1.090372021E1,-5.611900306E0,-2.072370318E0,2.660457394E0,6.547226689E0
1.091370521E1,-5.452806339E0,-2.316757473E0,3.116065421E0,6.694051528E0
1.092369121E1,-5.521913996E0,-2.669827557E0,3.187160547E0,6.912127438E0
1.093367621E1,-4.869455361E0,-2.843747140E0,3.312996136E0,6.540216870E0
1.094366221E1,-3.306860653E0,-2.743225316E0,3.675570284E0,5.654239951E0
1.095364821E1,-1.579328270E0,-2.464141222E0,4.159226235E0,5.085806978E0
1.096363321E1,-3.314614061E-1,-2.079681238E0,4.849461392E0,5.286985578E0
1.097361921E1,3.401757308E-1,-1.560010531E0,5.841947311E0,6.056211751E0
1.098360421E1,7.602557100E-1,-8.848024267E-1,6.977048575E0,7.073900684E0
1.099359021E1,8.244116525E-1,-4.694574496E-1,7.976620150E0,8.032839715E0
1.100357521E1,1.944430169E-1,-5.505238321E-1,8.903121995E0,8.922245560E0
1.101356121E1,-9.185022694E-1,-6.956555253E-1,1.008530095E1,1.015090529E1
1.102354621E1,-1.595456353E0,-8.564403610E-1,1.159508711E1,1.173563020E1
1.103353221E1,-1.729445445E0,-1.523243532E0,1.298649990E1,1.318940606E1
1.104351821E1,-1.614356308E0,-2.851346181E0,1.367279111E1,1.405992668E1
1.105350321E1,-1.144764080E0,-5.622983703E0,1.336637596E1,1.454607978E1
1.106348921E1,-3.137165684E-1,-8.063094038E0,1.231305503E1,1.472152260E1
1.107347421E1,1.296729999E0,-8.928580188E0,1.069301610E1,1.399077004E1
1.108346021E1,3.478386385E0,-9.443623992E0,8.474312342E0,1.315656397E1
1.109344521E1,6.484039418E0,-1.010239470E1,6.254899900E0,1.353605993E1
1.110343121E1,1.027220135E1,-1.005366517E1,3.958469102E0,1.490851373E1
1.111341721E1,1.331757861E1,-8.267964102E0,2.247215953E0,1.583562787E1
1.112340221E1,1.526557733E1,-7.089903930E0,1.180110791E0,1.687297397E1
1.113338821E1,1.533474171E1,-6.395780375E0,8.059965777E-1,1.663460070E1
1.114337321E1,1.344535430E1,-7.027128807E0,1.147311419E0,1.521428326E1
1.115335921E1,1.101734829E1,-7.804726043E0,1.773906650E0,1.361772583E1
1.116334421E1,9.202305309E0,-7.973142226E0,1.822521570E0,1.231158011E1
1.117333021E1,8.164295892E0,-8.805526704E0,9.313953799E-1,1.204410749E1
1.118331621E1,8.084994199E0,-8.553351495E0,-3.812992716E-1,1.177592214E1
1.119330121E1,8.025486501E0,-7.655051941E0,-1.768136325E0,1.123096433E1
1.120328721E1,7.571844308E0,-7.270427942E0,-2.739756163E0,1.084888070E1
1.121327221E1,6.362430781E0,-7.268201907E0,-3.038145425E0,1.012608572E1
1.122325821E1,4.611751610E0,-7.614682764E0,-3.414430125E0,9.534672495E0
1.123324321E1,3.265559430E0,-7.604049602E0,-4.266944811E0,9.310868207E0
1.124322921E1,2.460237620E0,-6.905328382E0,-5.260296704E0,9.022585584E0
1.125321521E1,1.654970775E0,-6.417567685E0,-6.302239543E0,9.145617886E0
1.126320021E1,7.976806676E-1,-6.163143638E0,-6.891023169E0,9.279376825E0
1.127318621E1,-4.266327345E-1,-5.822916963E0,-7.164581645E0,9.242272858E0
1.128317121E1,-1.945397884E0,-5.496187416E0,-7.315576633E0,9.354694571E0
1.129315721E1,-3.401927024E0,-5.173245111E0,-7.433035501E0,9.673964504E0
1.130314221E1,-4.467563365E0,-4.755336130E0,-7.470192218E0,9.918473466E0
1.131312821E1,-5.193254868E0,-4.077396791E0,-7.222284307E0,9.785522537E0
1.132311321E1,-5.663343524E0,-3.553034571E0,-6.938531796E0,9.635389874E0
1.133309921E1,-5.512311698E0,-3.201576857E0,-6.608946469E0,9.182257242E0
1.134308521E1,-4.961732025E0,-2.912578223E0,-6.171770035E0,8.437573227E0
1.135307021E1,-4.686011834E0,-2.375480768E0,-5.699704435E0,7.751660882E0
1.136305621E1,-4.450918681E0,-2.069584266E0,-5.239822093E0,7.179804434E0
1.137304121E1,-4.027830529E0,-1.925675225E0,-4.733523384E0,6.506757063E0
1.138302721E1,-3.296193577E0,-1.800631349E0,-4.242124550E0,5.665932055E0
1.139301221E1,-2.387077258E0,-1.644701895E0,-3.736803788E0,4.729364092E0
1.140299821E1,-1.886075542E0,-1.323737411E0,-3.197159578E0,3.940988588E0
1.141298421E1,-1.688554843E0,-1.248457433E0,-2.706652737E0,3.425760128E0
1.142296921E1,-1.376688918E0,-1.369938308E0,-2.314224752E0,3.021198363E0
1.143295521E1,-1.049085798E0,-1.190241530E0,-2.053193351E0,2.594775298E0
1.144294021E1,-9.245687556E-1,-9.274609347E-1,-1.966294663E0,2.362482988E0
1.145292621E1,-1.240979136E0,-7.528029951E-1,-1.841582909E0,2.344817514E0
1.146291121E1,-1.609178306E0,-6.055369221E-1,-1.675414688E0,2.400654944E0
1.147289721E1,-1.525186561E0,-5.890887044E-1,-1.533566791E0,2.241661583E0
1.148288321E1,-9.302510798E-1,-6.143483837E-1,-1.326902801E0,1.733049927E0
1.149286821E1,-2.294195992E-1,-6.701017311E-1,-1.067653631E0,1.281231423E0
1.150285421E1,3.032711023E-1,-5.761710356E-1,-6.957751009E-1,9.529162685E-1
1.151283921E1,5.912990981E-1,-5.649003813E-1,-7.950722247E-2,8.216255002E-1
1.152282521E1,5.654058731E-1,-6.289064889E-1,3.740010694E-1,9.247075067E-1
1.153281021E1,3.028916180E-1,-7.119397286E-1,5.126277351E-1,9.281102867E-1
1.154279621E1,4.293259621E-2,-6.569389178E-1,5.300416204E-1,8.451958761E-1
1.155278221E1,-1.133307338E-1,-6.440203719E-1,4.176631057E-1,7.759178852E-1
1.156276721E1,-7.536066949E-2,-6.454090856E-1,1.125496919E-1,6.594691437E-1
1.157275321E1,-2.919339359E-2,-4.523993674E-1,-3.263693583E-1,5.586003937E-1
1.158273821E1,-7.377373517E-2,-3.130073011E-1,-7.028117864E-1,7.728910283E-1
1.159272421E1,-2.042654622E-1,-2.973945044E-1,-9.269937421E-1,9.947287410E-1
1.160270921E1,-2.264907289E-1,-3.062856343E-1,-1.101230390E0,1.165254183E0
1.161269521E1,-1.909899437E-1,-1.767543125E-1,-1.224747996E0,1.252089015E0
1.162268121E1,-1.112391847E-1,-9.055465937E-2,-1.119313635E0,1.128466799E0
1.163266621E1,3.084289312E-2,-1.886073495E-1,-7.633484486E-1,7.869084256E-1
1.164265221E1,-5.394641161E-2,-2.381805555E-1,-3.364784633E-1,4.157618893E-1
1.165263721E1,-2.302744621E-1,-3.739609428E-1,-8.632712245E-2,4.475773528E-1
1.166262321E1,-5.425789279E-1,-4.125015492E-1,1.211601555E-1,6.922638257E-1
1.167260821E1,-8.491940528E-1,-3.227619917E-1,4.877659589E-2,9.097719489E-1
1.168259346E1,-1.167846841E0,-2.507719497E-1,-1.262799776E-1,1.201124243E0
1.169257946E1,-1.441764920E0,-2.057421034E-1,-2.132751444E-1,1.471904272E0
1.170256446E1,-1.599095367E0,-2.086805485E-1,-2.878405926E-1,1.638140950E0
1.171255046E1,-1.566823415E0,-2.273192793E-1,-2.160663128E-1,1.597903101E0
1.172253546E1,-1.406019137E0,-2.977565201E-1,-1.378554180E-1,1.443798073E0
1.173252146E1,-1.182668948E0,-3.441386081E-1,-1.135821640E-1,1.236947100E0
1.174250646E1,-1.011156664E0,-3.228122777E-1,-1.347303736E-1,1.069952260E0
1.175249246E1,-9.516132975E-1,-3.523805510E-1,-2.268474090E-1,1.039807515E0
1.176247846E1,-9.655600762E-1,-3.531989419E-1,-3.274183488E-1,1.079008123E0
1.177246346E1,-1.059257614E0,-3.180772756E-1,-5.108146597E-1,1.218249343E0
1.178244946E1,-1.105678659E0,-2.967548190E-1,-7.194785437E-1,1.352123550E0
1.179243446E1,-1.173105242E0,-2.535894305E-1,-8.805927238E-1,1.488599023E0
1.180242046E1,-1.191644424E0,-2.619798195E-1,-9.575008589E-1,1.550953820E0
1.181240546E1,-1.056388970E0,-3.412418975E-1,-9.255855864E-1,1.445376202E0
1.182239146E1,-8.343134737E-1,-4.081513669E-1,-8.730267191E-1,1.274692968E0
1.183237646E1,-6.545379049E-1,-4.605784526E-1,-8.789461479E-1,1.188738285E0
1.184236246E1,-5.221218592E-1,-5.276064013E-1,-9.844033134E-1,1.232894819E0
1.185234846E1,-2.670113486E-1,-5.636446917E-1,-1.268454033E0,1.413494264E0
1.186233346E1,2.292459369E-2,-6.203561054E-1,-1.672654510E0,1.784135741E0
1.187231946E1,2.232993186E-1,-6.437297653E-1,-2.284980780E0,2.384405117E0
1.188230446E1,3.743007392E-1,-5.074981190E-1,-2.969268733E0,3.035492084E0
1.189229046E1,4.459601212E-1,-2.936806454E-1,-3.451840611E0,3.492897415E0
1.190227546E1,4.025252491E-1,-4.966465639E-1,-3.786395194E0,3.839983457E0
1.191226146E1,3.610603040E-1,-6.160160096E-1,-4.234110064E0,4.293894305E0
1.192224746E1,3.684915304E-1,-4.513943772E-1,-4.494968095E0,4.532579957E0
1.193223246E1,8.786494017E-1,-5.435713466E-1,-4.409625936E0,4.529050174E0
1.194221846E1,1.701702892E0,-6.357065083E-1,-3.986852364E0,4.381199296E0
1.195220346E1,2.225800526E0,-9.208022717E-1,-3.801897039E0,4.500720598E0
1.196218946E1,2.860198866E0,-1.220566653E0,-4.170466338E0,5.202240861E0
1.197217446E1,3.711977972E0,-8.398116106E-1,-3.989254108E0,5.513457386E0
1.198216046E1,3.610058080E0,-5.933979562E-1,-2.888053247E0,4.661061256E0
1.199214646E1,3.554288507E0,-8.999427684E-1,-7.386547798E-1,3.740116931E0
1.200213146E1,3.777037017E0,-1.409077962E0,2.292559356E0,4.637600428E0
1.201211746E1,3.525499740E0,-1.581970042E0,4.803295285E0,6.164691657E0
1.202210246E1,3.295597746E0,-1.497465643E0,6.592130461E0,7.520608478E0
1.203208846E1,3.034952261E0,-1.760113799E0,7.726055265E0,8.485332390E0
1.204207346E1,2.604403061E0,-1.920987512E0,7.960442074E0,8.593122037E0
1.205205946E1,2.419574329E0,-1.448571372E0,7.557179491E0,8.066204858E0
1.206204546E1,1.974013572E0,-1.181859181E0,6.016623523E0,6.441527717E0
1.207203046E1,1.014978404E0,-7.480706242E-1,3.273008782E0,3.507474491E0
1.208201646E1,-5.379824317E-1,-2.035219887E-1,6.240323961E-1,8.486829373E-1
1.209200146E1,-1.670619678E0,7.342787236E-2,-1.583171645E0,2.302779672E0
1.210198746E1,-2.081180464E0,2.314082372E-1,-3.368111991E0,3.965985411E0
1.211197246E1,-2.636581751E0,4.173410703E-1,-4.639658031E0,5.352771576E0
1.212195846E1,-3.033136408E0,5.068772909E-1,-5.083486258E0,5.941268685E0
1.213194446E1,-3.168039859E0,5.297874858E-1,-4.606927072E0,5.616131086E0
1.214192946E1,-3.320358950E0,2.416686389E-1,-3.386286891E0,4.748697316E0
1.215191546E1,-3.818680887E0,-4.277617588E-1,-1.849696505E0,4.264584505E0
1.216190046E1,-4.038083329E0,-1.005655311E0,-3.475824720E-1,4.175915846E0
1.217188646E1,-4.216428961E0,-1.374594153E0,6.485135186E-1,4.482003130E0
1.218187146E1,-4.517381935E0,-1.704629424E0,5.300851822E-1,4.857313179E0
1.219185746E1,-4.458483224E0,-1.235444162E0,-4.393773258E-1,4.647305388E0
1.220184346E1,-3.917131919E0,-5.069958067E-1,-1.500097328E0,4.225075054E0
1.221182846E1,-3.656360134E0,-7.046868423E-1,-2.483510123E0,4.475865895E0
1.222181446E1,-3.513365891E0,-9.993965976E-1,-3.049486685E0,4.758350815E0
1.223179946E1,-3.527242795E0,-7.962526314E-1,-3.107074158E0,4.767532885E0
1.224178546E1,-3.923571750E0,-9.664405207E-1,-3.375399960E0,5.265144580E0
1.225177046E1,-4.214846705E0,-1.092423314E0,-3.671375492E0,5.695377023E0
1.226175646E1,-4.475204799E0,-9.155012590E-1,-3.740519986E0,5.903989356E0
1.227174246E1,-4.788125269E0,-8.627540383E-1,-3.386528381E0,5.927821067E0
1.228172746E1,-5.204869777E0,-8.964516883E-1,-2.519627205E0,5.851736176E0
1.229171346E1,-5.813717539E0,-8.474047317E-1,-1.462880970E0,6.054537731E0
1.230169846E1,-6.630178294E0,-8.051190569E-1,-6.713270152E-1,6.712537587E0
1.231168446E1,-7.656720736E0,-8.248102865E-1,7.464087725E-2,7.701380116E0
1.232166946E1,-8.736938864E0,-8.584031251E-1,5.557766783E-1,8.796581402E0
1.233165546E1,-9.621930156E0,-8.492650965E-1,9.409713650E-1,9.705061475E0
1.234164146E1,-1.000395916E1,-7.866273835E-1,1.181155688E0,1.010411353E1
1.235162646E1,-1.013358959E1,-7.978392734E-1,1.475724964E0,1.027151156E1
1.236161246E1,-9.988388025E0,-1.182616761E0,1.644031219E0,1.019162972E1
1.237159746E1,-9.436012672E0,-1.755975725E0,1.717290984E0,9.750429437E0
1.238158346E1,-8.886570282E0,-2.383199970E0,1.975389422E0,9.410257002E0
1.239156846E1,-8.269010754E0,-2.874773635E0,2.512736846E0,9.107947560E0
1.240155446E1,-7.419875758E0,-3.182850856E0,3.491025141E0,8.796155545E0
1.241154046E1,-6.840037787E0,-3.253624970E0,4.855745394E0,8.997247118E0
1.242152546E1,-6.490140402E0,-3.084608570E0,6.434439241E0,9.645659170E0
1.243151146E1,-6.093836591E0,-2.803095250E0,7.937424510E0,1.039205924E1
1.244149646E1,-4.955553857E0,-2.409822635E0,9.182197904E0,1.070875892E1
1.245148246E1,-3.432331375E0,-2.565594214E0,1.037145900E1,1.122186857E1
1.246146746E1,-2.026204650E0,-2.990790580E0,1.175476872E1,1.229735424E1
1.247145346E1,-6.002441686E-1,-4.249317210E0,1.318816569E1,1.386883932E1
1.248143846E1,1.298862478E0,-7.060100087E0,1.380031538E1,1.555573082E1
1.249142446E1,3.488569896E0,-9.110008764E0,1.401698278E1,1.707741743E1
1.250141046E1,5.963969931E0,-9.001108466E0,1.358847543E1,1.735613884E1
1.251139546E1,8.110031977E0,-7.970683472E0,1.209270855E1,1.659933775E1
1.252138146E1,9.460189154E0,-6.758038189E0,1.097858944E1,1.599048733E1
1.253136646E1,1.039311007E1,-5.930393465E0,1.062563045E1,1.600282244E1
1.254135246E1,1.037425163E1,-5.614225159E0,1.032775457E1,1.567823764E1
1.255133746E1,9.490115204E0,-6.367000964E0,9.632971453E0,1.494640849E1
1.256132346E1,9.297512598E0,-8.291326652E0,8.064610806E0,1.484007364E1
1.257130946E1,1.071881870E1,-9.042137793E0,5.407059478E0,1.502962482E1
1.258129446E1,1.175683279E1,-8.293559704E0,2.596126912E0,1.462005899E1
1.259128046E1,1.154088576E1,-7.120106553E0,5.616709641E-1,1.357215664E1
1.260126546E1,1.144109484E1,-6.187125408E0,-8.991576335E-1,1.303793145E1
1.261125146E1,1.118590130E1,-6.089602622E0,-1.923295408E0,1.288047799E1
1.262123646E1,1.083941401E1,-6.326417195E0,-2.617738806E0,1.282064768E1
1.263122246E1,1.009461439E1,-6.363121337E0,-3.257859231E0,1.236948664E1
1.264120846E1,8.931631849E0,-5.859046909E0,-3.691978741E0,1.130191069E1
1.265119346E1,7.442771700E0,-5.582506353E0,-3.785052381E0,1.004419480E1
1.266117946E1,5.766742762E0,-5.917633671E0,-3.500361975E0,8.973641641E0
1.267116446E1,3.786645747E0,-6.505308664E0,-3.102937253E0,8.141618170E0
1.268115058E1,2.065618392E0,-6.892890769E0,-3.143142707E0,7.852265188E0
1.269113558E1,8.448694521E-1,-6.859172800E0,-3.746360185E0,7.861123999E0
1.270112158E1,3.452944565E-1,-6.455506175E0,-4.731934111E0,8.011491039E0
1.271110758E1,3.500856650E-1,-5.840775529E0,-5.721657806E0,8.183800267E0
1.272109258E1,-6.470061064E-2,-5.264473370E0,-6.550373740E0,8.403943251E0
1.273107858E1,-8.736283976E-1,-4.792131489E0,-7.317452420E0,8.790498319E0
1.274106358E1,-1.650138636E0,-4.315281697E0,-7.963201960E0,9.206367312E0
1.275104958E1,-2.184715065E0,-3.658964484E0,-8.390419416E0,9.410639669E0
1.276103458E1,-2.444460078E0,-2.903566495E0,-8.552610653E0,9.356988428E0
1.277102058E1,-2.495614445E0,-2.402102702E0,-8.245921853E0,8.943903849E0
1.278100658E1,-2.596888804E0,-2.146791047E0,-7.363981054E0,8.098194874E0
1.279099158E1,-2.781767823E0,-1.960276124E0,-6.255000472E0,7.120810741E0
1.280097758E1,-2.650395505E0,-1.756372312E0,-5.507547972E0,6.359443741E0
1.281096258E1,-2.285799390E0,-1.492550327E0,-4.803112852E0,5.524715232E0
1.282094858E1,-2.045747799E0,-1.216765524E0,-4.026206172E0,4.677172066E0
1.283093358E1,-2.139538307E0,-1.202036315E0,-3.230223536E0,4.056705506E0
1.284091958E1,-2.251859812E0,-1.123871101E0,-2.276247963E0,3.393414748E0
1.285090558E1,-2.129048987E0,-1.084157543E0,-1.551014882E0,2.848489834E0
1.286089058E1,-1.906853623E0,-1.024945129E0,-1.204105425E0,2.477190572E0
1.287087658E1,-1.635714725E0,-7.644839779E-1,-1.162725849E0,2.147540410E0
1.288086158E1,-1.112235727E0,-4.649135783E-1,-1.299484037E0,1.772532569E0
1.289084758E1,-5.310961658E-1,-3.261480412E-1,-1.288183708E0,1.431032127E0
1.290083258E1,3.952542365E-2,-2.730636553E-1,-1.072017993E0,1.106954649E0
1.291081858E1,4.641262507E-1,-2.944150557E-1,-8.511604714E-1,1.013196698E0
1.292080458E1,5.943273711E-1,-3.175046870E-1,-7.070967722E-1,9.767395229E-1
1.293078958E1,5.881100267E-1,-3.650381649E-1,-5.124978904E-1,8.612667142E-1
1.294077558E1,3.171272492E-1,-4.073709829E-1,-2.371805354E-1,5.681332734E-1
1.295076058E1,-2.469261628E-1,-5.295019224E-1,4.971532982E-2,5.863586187E-1
1.296074658E1,-7.846741211E-1,-6.237945606E-1,1.228055620E-1,1.009908083E0
1.297073158E1,-1.269924023E0,-6.465951933E-1,4.508082669E-2,1.425771598E0
1.298071758E1,-1.500806596E0,-6.386282158E-1,-1.004317760E-2,1.631063243E0
1.299070358E1,-1.491324751E0,-6.490023458E-1,-6.933043599E-2,1.627900570E0
1.300068858E1,-1.246577260E0,-7.354950906E-1,-2.206843706E-1,1.464107061E0
1.301067458E1,-9.448702884E-1,-7.344522397E-1,-4.506928575E-1,1.278797875E0
1.302065958E1,-6.418178719E-1,-6.602162822E-1,-6.954222214E-1,1.153875117E0
1.303064558E1,-3.160192019E-1,-6.584922306E-1,-8.994058478E-1,1.158624630E0
1.304063058E1,9.733158231E-2,-6.950287038E-1,-1.096680379E0,1.302016202E0
1.305061658E1,4.317203969E-1,-6.159606072E-1,-1.271575277E0,1.477394211E0
1.306060258E1,6.084630150E-1,-5.158054045E-1,-1.364382284E0,1.580449769E0
1.307058758E1,5.731095797E-1,-4.861329778E-1,-1.389206053E0,1.579453488E0
1.308057358E1,3.957015485E-1,-6.787642349E-1,-1.506678954E0,1.699229847E0
1.309055858E1,2.915263849E-1,-8.539292742E-1,-1.902041949E0,2.105218852E0
1.310054458E1,3.096457368E-1,-8.088003176E-1,-2.540950831E0,2.684486834E0
1.311052958E1,3.486203527E-1,-5.578995100E-1,-3.198031690E0,3.264995361E0
1.312051558E1,3.074232101E-1,-2.155692995E-1,-3.501878743E0,3.521950296E0
1.313050158E1,1.272032529E-1,-3.690948169E-1,-3.319106476E0,3.341987351E0
1.314048658E1,2.988044143E-2,-7.736493422E-1,-3.094489195E0,3.189872964E0
1.315047258E1,9.771632910E-2,-7.212363629E-1,-2.821385633E0,2.913751407E0
1.316045758E1,2.790823406E-1,-1.028038160E0,-2.459474851E0,2.680254830E0
1.317044358E1,4.912959230E-1,-1.195897396E0,-2.053586284E0,2.426676511E0
1.318042858E1,6.010896760E-1,-7.181279831E-1,-1.107970183E0,1.450728963E0
1.319041458E1,6.294796622E-1,-9.305829093E-1,-8.388766408E-2,1.126617209E0
1.320039958E1,9.750261337E-1,-1.185890471E0,9.600549227E-1,1.810722957E0
1.321038558E1,1.195238707E0,-1.253482676E0,2.194051899E0,2.795295712E0
1.322037158E1,1.226982656E0,-1.150424185E0,3.010686316E0,3.448651089E0
1.323035658E1,1.432056788E0,-6.902129370E-1,3.126055974E0,3.507050968E0
1.324034258E1,1.791117344E0,-1.428246742E-1,2.720010116E0,3.259901112E0
1.325032758E1,1.901764206E0,2.988815975E-1,2.004699760E0,2.779362955E0
1.326031358E1,2.387567840E0,2.500196323E-1,1.230608515E0,2.697663308E0
1.327029858E1,3.305262316E0,-1.707541922E-1,4.693975157E-1,3.342790750E0
1.328028458E1,3.893864094E0,-1.694926554E-1,-6.841926438E-1,3.957148584E0
1.329027058E1,3.969041745E0,1.138248235E-1,-1.906158389E0,4.404507722E0
1.330025558E1,3.697522193E0,3.940386003E-1,-2.720949179E0,4.607656804E0
1.331024158E1,2.737203269E0,3.255934328E-1,-3.131413193E0,4.171815121E0
1.332022658E1,1.295773686E0,7.852825239E-2,-2.853987368E0,3.135353255E0
1.333021258E1,1.366941610E-1,-1.257467115E-1,-1.769846928E0,1.779566149E0
1.334019758E1,-6.889378054E-1,-4.305446680E-1,-4.947352552E-1,9.511924010E-1
1.335018358E1,-1.359475300E0,-8.169267780E-1,7.145718527E-1,1.739584831E0
1.336016958E1,-1.764991254E0,-9.206949753E-1,1.940830039E0,2.780232833E0
1.337015458E1,-2.242708481E0,-7.275162725E-1,2.764404516E0,3.633311655E0
1.338014058E1,-2.562903618E0,-6.012244543E-1,2.995114596E0,3.987562820E0
1.339012558E1,-2.683598920E0,-5.951860347E-1,2.639747726E0,3.811065157E0
1.340011158E1,-2.758550284E0,-2.263787547E-1,1.931051740E0,3.374878936E0
1.341009658E1,-2.918114952E0,2.106563227E-1,1.177588887E0,3.153805090E0
1.342008258E1,-3.201708419E0,4.269826904E-1,5.635382724E-1,3.278845285E0
1.343006858E1,-3.467062667E0,5.187053311E-1,1.449004358E-1,3.508642885E0
1.344005358E1,-3.539451197E0,5.599260087E-1,-2.271526337E-2,3.583538460E0
1.345003958E1,-3.367350683E0,4.689211138E-1,8.579502583E-2,3.400926112E0
1.346002458E1,-3.178647586E0,2.444023584E-1,2.356626713E-1,3.196727996E0
1.347001058E1,-3.397298952E0,4.111849755E-2,-1.402747035E-2,3.397576735E0
1.347999558E1,-3.422195812E0,1.267397149E-1,-6.099154633E-1,3.478431256E0
1.348998158E1,-3.279066498E0,6.259882897E-2,-1.604528015E0,3.651123918E0
1.349996758E1,-3.285978784E0,1.177797340E-1,-2.711671402E0,4.262005446E0
1.350995258E1,-3.390362985E0,-5.454852864E-2,-3.949473746E0,5.205370264E0
1.351993858E1,-3.303322795E0,1.312635595E-1,-4.717658134E0,5.760683109E0
1.352992358E1,-2.911498535E0,8.585218236E-2,-5.027593308E0,5.810412101E0
1.353990958E1,-2.597284076E0,-1.487663224E-1,-4.989620320E0,5.627106444E0
1.354989458E1,-2.329477945E0,-4.578574508E-1,-4.536368136E0,5.120032891E0
1.355988058E1,-2.190777458E0,-7.055580774E-1,-3.779614470E0,4.425246164E0
1.356986658E1,-2.177288955E0,-9.176952074E-1,-2.741844204E0,3.619455943E0
1.357985158E1,-2.303391469E0,-1.062925719E0,-1.642189347E0,3.021954532E0
1.358983758E1,-2.579558242E0,-1.122035368E0,-8.204965031E-1,2.930238660E0
1.359982258E1,-3.036251220E0,-1.296859953E0,-1.838756365E-1,3.306732142E0
1.360980858E1,-3.496498135E0,-1.535688745E0,1.747498870E-1,3.822875443E0
1.361979358E1,-4.003351453E0,-1.634105571E0,2.222140753E-1,4.329723197E0
1.362977958E1,-4.505420870E0,-1.437150298E0,1.347023070E-1,4.731000202E0
1.363976558E1,-4.899832816E0,-1.221478964E0,9.157558322E-2,5.050619622E0
1.364975058E1,-5.069856983E0,-1.155550000E0,1.708030164E-1,5.202683855E0
1.365973658E1,-5.196211220E0,-1.152873291E0,2.730620474E-1,5.329567595E0
1.366972158E1,-5.599024737E0,-1.267753829E0,7.643375051E-1,5.791415164E0
1.367970842E1,-5.678479042E0,-1.423459919E0,1.531232582E0,6.051118541E0
1.368969342E1,-5.582292345E0,-1.575920513E0,2.388630863E0,6.273043176E0
1.369967942E1,-5.599232898E0,-1.493066052E0,3.043535389E0,6.545514719E0
1.370966542E1,-5.461106461E0,-1.273951878E0,3.321253574E0,6.517465955E0
1.371965042E1,-5.676513208E0,-8.305297405E-1,3.440513969E0,6.689523019E0
1.372963642E1,-5.620678731E0,-3.485007772E-1,3.472850241E0,6.616205180E0
1.373962142E1,-5.407985092E0,-3.526303732E-1,3.420912933E0,6.408845155E0
1.374960742E1,-5.482459908E0,-5.144886115E-1,3.619282647E0,6.589481926E0
1.375959242E1,-5.909255780E0,-7.288294110E-1,3.906853391E0,7.121376244E0
1.376957842E1,-6.733997362E0,-1.288863155E0,4.383093903E0,8.137530391E0
1.377956442E1,-6.947434766E0,-1.584465341E0,5.087185206E0,8.755388831E0
1.378954942E1,-6.153547772E0,-1.821304180E0,6.030469730E0,8.806240075E0
1.379953542E1,-5.213061141E0,-2.087996417E0,7.419557669E0,9.305136834E0
1.380952042E1,-4.299350080E0,-2.435503167E0,9.143099912E0,1.039289963E1
1.381950642E1,-3.306785808E0,-3.084424383E0,1.100379328E1,1.189672109E1
1.382949142E1,-1.844911144E0,-4.117454896E0,1.274137761E1,1.351665030E1
1.383947742E1,1.038138056E-1,-5.110195169E0,1.345530743E1,1.439340718E1
1.384946342E1,1.972971014E0,-5.407015623E0,1.284264670E1,1.407345043E1
1.385944842E1,3.716756902E0,-5.599206001E0,1.098639430E1,1.287890715E1
1.386943442E1,5.616445931E0,-6.214642990E0,8.536318556E0,1.195972353E1
1.387941942E1,7.831716791E0,-6.875429814E0,6.066749364E0,1.205872178E1
1.388940542E1,8.459350487E0,-5.872387916E0,4.320853216E0,1.116760149E1
1.389939042E1,8.490536612E0,-5.229188347E0,3.339170027E0,1.051587748E1
1.390937642E1,8.607038875E0,-4.907083948E0,3.135872279E0,1.039202993E1
1.391936242E1,7.594374214E0,-4.920455360E0,3.334379988E0,9.643831737E0
1.392934742E1,5.894888002E0,-5.164393596E0,3.555922219E0,8.606116929E0
1.393933342E1,4.909685374E0,-5.665496469E0,3.649482639E0,8.337960437E0
1.394931842E1,5.538699013E0,-6.752765170E0,2.977805376E0,9.227369563E0
1.395930442E1,6.523440295E0,-6.616451955E0,1.730695726E0,9.451350034E0
1.396928942E1,7.572329042E0,-6.502548194E0,9.762248129E-2,9.981624631E0
1.397927542E1,8.248908026E0,-6.307568695E0,-1.354847521E0,1.047213055E1
1.398926142E1,8.568800424E0,-6.057727695E0,-2.450265487E0,1.077609421E1
1.399924642E1,8.505766854E0,-6.214665794E0,-3.366782334E0,1.105917556E1
1.400923242E1,8.223822886E0,-6.275790832E0,-4.221562817E0,1.117311085E1
1.401921742E1,7.361765544E0,-6.207939742E0,-4.901847181E0,1.080565655E1
1.402920342E1,5.652295210E0,-6.398081839E0,-5.257516937E0,1.002623442E1
1.403918842E1,3.612824982E0,-6.813013710E0,-5.032133671E0,9.208258763E0
1.404917442E1,1.830521731E0,-7.167485372E0,-4.788843892E0,8.812302887E0
1.405916042E1,5.466099983E-1,-7.291348110E0,-4.908039383E0,8.806326722E0
1.406914542E1,-3.667701101E-1,-7.075757176E0,-5.350622152E0,8.878626997E0
1.407913142E1,-1.436684859E0,-6.459236698E0,-5.901551489E0,8.866459952E0
1.408911642E1,-2.483372714E0,-5.664608277E0,-6.476585387E0,8.955505862E0
1.409910242E1,-3.261035439E0,-4.905499937E0,-7.063496150E0,9.197350685E0
1.410908742E1,-3.968916907E0,-4.135947885E0,-7.527153454E0,9.461310979E0
1.411907342E1,-4.618502221E0,-3.387204319E0,-7.798663065E0,9.675890733E0
1.412905942E1,-4.860122035E0,-2.667020601E0,-7.734432571E0,9.516051297E0
1.413904442E1,-4.705798811E0,-2.113869615E0,-7.349674087E0,8.979459693E0
1.414903042E1,-4.344829724E0,-1.862960329E0,-6.737626144E0,8.230660518E0
1.415901542E1,-3.959157320E0,-1.712734249E0,-5.883535048E0,7.295503406E0
1.416900142E1,-3.530142429E0,-1.449261343E0,-4.991452253E0,6.283061324E0
1.417898642E1,-3.130317425E0,-1.311709396E0,-4.237709903E0,5.429332734E0
1.418897242E1,-3.035598378E0,-1.127492136E0,-3.508150467E0,4.774224097E0
1.419895842E1,-3.085889695E0,-1.106111207E0,-2.806852963E0,4.315625189E0
1.420894342E1,-3.018531525E0,-1.112874243E0,-1.958681734E0,3.766491177E0
1.421892942E1,-2.650406615E0,-1.044389022E0,-1.171734216E0,3.080318933E0
1.422891442E1,-2.049116964E0,-9.022411627E-1,-7.758740616E-1,2.369578023E0
1.423890042E1,-1.533045804E0,-8.286096610E-1,-6.522567599E-1,1.860715531E0
1.424888542E1,-1.130962020E0,-6.914727196E-1,-5.480244398E-1,1.434412911E0
1.425887142E1,-8.579034805E-1,-6.921767244E-1,-5.698683219E-1,1.240909708E0
1.426885742E1,-7.166715878E-1,-6.255754763E-1,-8.209429380E-1,1.256546915E0
1.427884242E1,-4.094395816E-1,-5.537659670E-1,-1.103175320E0,1.300497329E0
1.428882842E1,2.459157640E-1,-6.233788235E-1,-1.408161703E0,1.559485525E0
1.429881342E1,5.903173506E-1,-5.433685943E-1,-1.398618755E0,1.612407648E0
1.430879942E1,6.064088881E-1,-4.866389081E-1,-1.127734941E0,1.369793877E0
1.431878442E1,5.514766359E-1,-6.512843679E-1,-8.562579279E-1,1.208914987E0
1.432877042E1,4.292476094E-1,-7.980211218E-1,-3.247251213E-1,9.625682445E-1
1.433875642E1,9.812212586E-3,-9.423768894E-1,3.347435944E-1,1.000111871E0
1.434874142E1,-5.030739695E-1,-1.035252893E0,7.714361711E-1,1.385621066E0
1.435872742E1,-8.868501216E-1,-1.041730877E0,9.025623210E-1,1.639001252E0
1.436871242E1,-1.178274765E0,-1.016584780E0,6.301697798E-1,1.678955029E0
1.437869842E1,-1.246080832E0,-8.683230726E-1,1.064285342E-1,1.522507613E0
1.438868342E1,-1.050237699E0,-6.755320403E-1,-5.212088165E-1,1.353145001E0
1.439866942E1,-7.780854785E-1,-6.097669441E-1,-1.299421910E0,1.632706354E0
1.440865542E1,-6.678590316E-1,-3.011637658E-1,-2.068292323E0,2.194212486E0
1.441864042E1,-7.214014006E-1,-4.707520232E-2,-2.478145888E0,2.581442058E0
1.442862642E1,-8.595184815E-1,-6.990200132E-3,-2.472137289E0,2.617304655E0
1.443861142E1,-1.229768854E0,-6.402628049E-2,-2.257916650E0,2.571890044E0
1.444859742E1,-1.741687322E0,-3.727526888E-1,-1.896676398E0,2.601884058E0
1.445858242E1,-2.057710617E0,-7.299357042E-1,-1.779423059E0,2.816615973E0
1.446856842E1,-2.012152036E0,-4.235747869E-1,-1.605837207E0,2.609000681E0
1.447855442E1,-1.543755564E0,7.558184043E-2,-8.680928385E-1,1.772703876E0
1.448853942E1,-7.832257658E-1,-7.999838859E-2,4.774886003E-1,9.207810304E-1
1.449852542E1,-8.515884876E-3,-4.768535927E-1,2.059927589E0,2.114418015E0
1.450851042E1,7.876562011E-1,-8.810743882E-1,3.278787878E0,3.485275357E0
1.451849642E1,1.606102670E0,-9.307843459E-1,3.995108633E0,4.405317046E0
1.452848142E1,2.484134021E0,-8.751458962E-1,4.161160202E0,4.924637692E0
1.453846742E1,3.139515679E0,-9.080095871E-1,3.667169005E0,4.912145012E0
1.454845342E1,3.772657453E0,-8.867773238E-1,2.627825838E0,4.682391153E0
1.455843842E1,4.357586010E0,-5.357495262E-1,1.671662237E0,4.697875905E0
1.456842442E1,4.504528878E0,-3.779947177E-1,1.061540952E0,4.643331736E0
1.457840942E1,4.209949077E0,-5.158135906E-1,8.469311804E-1,4.325162114E0
1.458839542E1,3.513897695E0,-9.419618833E-1,6.151694790E-1,3.689607389E0
1.459838042E1,2.993047020E0,-1.295867827E0,-5.583386359E-1,3.308979589E0
1.460836642E1,2.564693450E0,-1.005174085E0,-2.383691136E0,3.642802611E0
1.461835242E1,1.942057954E0,-4.425272208E-1,-4.190964337E0,4.640215675E0
1.462833742E1,1.301000805E0,1.829225403E-1,-5.288783754E0,5.449522671E0
1.463832342E1,7.325695825E-1,3.839176548E-1,-5.256535774E0,5.321204686E0
1.464830842E1,4.124976754E-2,-2.168366835E-2,-4.260563745E0,4.260818601E0
1.465829442E1,-3.408342004E-1,-3.429928462E-1,-2.663207340E0,2.706748119E0
1.466827942E1,-1.922500187E-1,-3.420245473E-1,-5.551861095E-1,6.798326830E-1
1.467826542E1,-2.480418116E-1,-7.039134018E-1,1.334345722E0,1.528887609E0
1.468825029E1,-6.572299629E-1,-1.289416447E0,1.818007520E0,2.323724885E0
1.469823529E1,-7.123306149E-1,-7.031307520E-1,9.703811055E-1,1.394075769E0
1.470822129E1,-1.202790386E0,-6.004476517E-2,-9.267895281E-1,1.519621307E0
1.471820629E1,-2.554216994E0,1.451315470E-1,-3.437158837E0,4.284757693E0
1.472819229E1,-3.386909620E0,5.509739216E-1,-5.210317043E0,6.238760512E0
1.473817729E1,-3.559068021E0,8.192259032E-1,-5.904644666E0,6.942832627E0
1.474816329E1,-3.662902291E0,7.167147110E-1,-5.524355793E0,6.667011332E0
1.475814929E1,-3.085721295E0,3.280878550E-1,-4.020953618E0,5.079112674E0
1.476813429E1,-2.101508309E0,-3.320787258E-1,-1.613871866E0,2.670429900E0
1.477812029E1,-1.637716519E0,-1.508067230E0,1.624824286E-1,2.232214753E0
1.478810529E1,-1.487091951E0,-2.140463775E0,5.456399453E-1,2.662846333E0
1.479809129E1,-1.075499425E0,-1.797792818E0,5.936958718E-1,2.177437213E0
1.480807629E1,-5.504244295E-1,-1.368683057E0,8.544097692E-1,1.704780460E0
1.481806229E1,-2.442278190E-1,-7.852778462E-1,1.395262599E0,1.619588294E0
1.482804829E1,-3.481807883E-1,-8.714117181E-1,1.868710481E0,2.091092323E0
1.483803329E1,-5.061933129E-1,-9.999190463E-1,2.235811543E0,2.500984412E0
1.484801929E1,-6.373883137E-1,-7.069402861E-1,2.243648567E0,2.437208920E0
1.485800429E1,-9.801668595E-1,-5.924398899E-1,1.766504075E0,2.105290655E0
1.486799029E1,-1.175862642E0,-5.905141825E-1,1.355081118E0,1.888810416E0
1.487797529E1,-1.388878024E0,-6.420132420E-1,1.214460844E0,1.953478515E0
1.488796129E1,-1.360690352E0,-2.868899815E-1,1.528658638E0,2.066538489E0
1.489794729E1,-1.196310502E0,-5.869866304E-2,2.059686391E0,2.382627201E0
1.490793229E1,-1.212115087E0,-2.275086560E-1,2.544564410E0,2.827683011E0
1.491791829E1,-1.428678267E0,-1.235377065E-1,3.122365796E0,3.435920738E0
1.492790329E1,-1.996779268E0,-1.796337739E-1,3.336444055E0,3.892461262E0
1.493788929E1,-2.561157347E0,-3.970005805E-1,3.064074903E0,4.013189682E0
1.494787429E1,-3.204103146E0,-4.882099088E-1,2.259774603E0,3.951102016E0
1.495786029E1,-3.951663820E0,-2.586088997E-1,7.843636340E-1,4.037047414E0
1.496784629E1,-4.726300026E0,1.460797461E-1,-1.109337262E0,4.856941465E0
1.497783129E1,-5.488116505E0,5.743779869E-1,-2.790602381E0,6.183590744E0
1.498781729E1,-5.877225902E0,7.936512782E-1,-3.767287370E0,7.025960488E0
1.499780229E1,-5.937055197E0,7.019170162E-1,-3.908097678E0,7.142446316E0
1.500778829E1,-5.884087610E0,6.366672058E-1,-2.965232400E0,6.619700546E0
1.501777329E1,-5.838346596E0,4.688214187E-1,-1.210713948E0,5.980962528E0
1.502775929E1,-5.833012181E0,2.079236265E-1,5.828440243E-1,5.865745519E0
1.503774529E1,-6.018534393E0,1.000401588E-1,2.052753348E0,6.359761048E0
1.504773029E1,-6.409475724E0,-3.707916789E-1,2.680060769E0,6.957125214E0
1.505771629E1,-6.924945790E0,-9.674703616E-1,2.184901591E0,7.325617248E0
1.506770129E1,-7.216353477E0,-1.325352265E0,1.253990360E0,7.443440599E0
1.507768729E1,-7.006749507E0,-1.126495478E0,1.232008338E-2,7.096737454E0
1.508767229E1,-6.390136642E0,-7.189435235E-1,-1.059567516E0,6.517162682E0
1.509765829E1,-5.942768512E0,-9.426553631E-1,-1.601407356E0,6.226524090E0
1.510764429E1,-5.697235156E0,-1.392001022E0,-1.388479829E0,6.026942135E0
1.511762929E1,-5.278157609E0,-1.968228045E0,-6.811339653E-1,5.674223546E0
1.512761529E1,-4.917332947E0,-2.624306691E0,4.621007752E-1,5.592913914E0
1.513760029E1,-4.441298549E0,-2.910097250E0,1.667781440E0,5.565545233E0
1.514758629E1,-3.620752345E0,-3.224528933E0,2.586698277E0,5.495310943E0
1.515757129E1,-2.766542843E0,-3.544133355E0,3.346960858E0,5.605068021E0
1.516755729E1,-2.055993436E0,-3.775496276E0,3.839154328E0,5.763730311E0
1.517754329E1,-1.700045791E0,-3.623258462E0,4.494385128E0,6.018110605E0
1.518752829E1,-1.061898070E0,-3.365394205E0,4.647712571E0,5.835643736E0
1.519751429E1,1.092566863E-1,-3.075844179E0,4.424479326E0,5.389691247E0
1.520749929E1,6.430492955E-1,-2.630837154E0,4.376429247E0,5.146644487E0
1.521748529E1,9.766130680E-1,-2.174873908E0,4.618170683E0,5.197244468E0
1.522747029E1,7.945290184E-1,-1.809949764E0,5.398535407E0,5.749032879E0
1.523745629E1,-6.215591700E-1,-1.707912635E0,6.990491323E0,7.222899024E0
1.524744229E1,-1.429974010E0,-1.704787591E0,8.616221927E0,8.898899185E0
1.525742729E1,-8.629509433E-1,-1.699859265E0,9.607860585E0,9.795161606E0
1.526741329E1,2.193235043E-1,-2.213451498E0,1.024113275E1,1.047989840E1
1.527739829E1,1.434676048E0,-3.568709202E0,1.087481539E1,1.153497250E1
1.528738429E1,2.569527344E0,-5.175947109E0,1.113964514E1,1.254928656E1
1.529736929E1,4.209968957E0,-6.814109479E0,1.078758429E1,1.343606719E1
1.530735529E1,6.364481399E0,-7.963273880E0,9.425843779E0,1.388405147E1
1.531734129E1,7.777628877E0,-7.948893823E0,7.587035374E0,1.346252316E1
1.532732629E1,8.036363491E0,-7.852559776E0,5.915919267E0,1.269818625E1
1.533731229E1,8.760798427E0,-8.179070637E0,4.555860415E0,1.282203766E1
1.534729729E1,1.072233404E1,-9.486360122E0,3.494596036E0,1.473674581E1
1.535728329E1,1.257849055E1,-8.954561121E0,1.822981746E0,1.554753523E1
1.536726829E1,1.283016173E1,-7.813563525E0,9.300581217E-2,1.502243239E1
1.537725429E1,1.172622496E1,-6.954862484E0,-6.621322685E-1,1.364964773E1
1.538724029E1,9.039756222E0,-6.680020545E0,-3.679720053E-1,1.124612246E1
1.539722529E1,5.573318623E0,-6.930821072E0,9.793109733E-1,8.947469541E0
1.540721129E1,2.804284281E0,-7.268037601E0,2.270143178E0,8.114304095E0
1.541719629E1,1.996053482E0,-7.541927029E0,2.342022854E0,8.145548715E0
1.542718229E1,2.705080420E0,-7.833501361E0,1.127574728E0,8.363768793E0
1.543716729E1,4.709304802E0,-7.028955477E0,-7.398680770E-1,8.493007217E0
1.544715329E1,6.852939084E0,-6.065995073E0,-2.266274368E0,9.428418204E0
1.545713929E1,7.893651668E0,-5.828142035E0,-2.735759007E0,1.018633170E1
1.546712429E1,8.783372773E0,-5.780391333E0,-2.428870232E0,1.079166214E1
1.547711029E1,9.009239604E0,-5.864818110E0,-1.897931941E0,1.091625556E1
1.548709529E1,8.381553283E0,-6.985966748E0,-1.960677243E0,1.108595607E1
1.549708129E1,7.246009970E0,-7.211919533E0,-2.796105196E0,1.059880409E1
1.550706629E1,5.307724054E0,-7.339066068E0,-4.071485256E0,9.930297960E0
1.551705229E1,3.241900426E0,-7.330533811E0,-5.284091948E0,9.600430825E0
1.552703829E1,1.567447897E0,-7.275116825E0,-6.147316979E0,9.652653716E0
1.553702329E1,-3.214284611E-1,-7.079288895E0,-6.658239082E0,9.723774739E0
1.554700929E1,-2.039977182E0,-6.558649889E0,-7.595047229E0,1.024022156E1
1.555699429E1,-3.195995105E0,-5.623496504E0,-8.767809239E0,1.089553012E1
1.556698029E1,-3.839251392E0,-4.414662436E0,-9.870124580E0,1.147381606E1
1.557696529E1,-4.218095418E0,-3.232604814E0,-1.055196138E1,1.181464988E1
1.558695129E1,-4.401338970E0,-2.313723499E0,-1.050027667E1,1.161812856E1
1.559693729E1,-4.066100555E0,-1.741709542E0,-9.709823747E0,1.066992985E1
1.560692229E1,-3.160783757E0,-1.458689978E0,-8.207421446E0,8.915161087E0
1.561690829E1,-2.455506638E0,-1.432744713E0,-6.238289130E0,6.855546771E0
1.562689329E1,-2.011764951E0,-1.436684859E0,-4.362842072E0,5.014544101E0
1.563687929E1,-1.537121313E0,-1.331473569E0,-3.034144760E0,3.652615258E0
1.564686529E1,-1.215844295E0,-1.120260592E0,-2.247038782E0,2.789703287E0
1.565685029E1,-1.008956941E0,-1.039528378E0,-1.836217504E0,2.338868974E0
1.566683629E1,-1.027331232E0,-9.178064507E-1,-1.523743469E0,2.054159755E0
1.567682129E1,-1.237628097E0,-8.021061328E-1,-1.301976120E0,1.967292396E0
1.568680829E1,-1.395783001E0,-6.595168821E-1,-1.234254838E0,1.976501381E0
1.569679329E1,-1.270933837E0,-4.242141800E-1,-1.359898639E0,1.909071711E0
1.570677929E1,-9.894862980E-1,-1.793310343E-1,-1.655059653E0,1.936611786E0
1.571676529E1,-3.313500166E-1,-2.096884623E-3,-1.780354375E0,1.810927643E0
1.572675029E1,2.602168840E-1,2.566474512E-2,-1.456645499E0,1.479928247E0
1.573673629E1,8.844814146E-1,-7.457516916E-2,-9.154330659E-1,1.275102555E0
1.574672129E1,1.499956411E0,-3.219590228E-1,-1.787482131E-1,1.544499197E0
1.575670729E1,1.568212128E0,-5.226455504E-1,7.916790855E-1,1.832812981E0
1.576669229E1,1.200113531E0,-7.507512072E-1,1.089895270E0,1.786552983E0
1.577667829E1,7.112097037E-1,-9.384801587E-1,8.632840884E-1,1.460076597E0
1.578666429E1,1.984884131E-1,-8.252015383E-1,3.486788249E-1,9.175686088E-1
1.579664929E1,-3.710087568E-1,-7.138219473E-1,-2.547140694E-1,8.438415296E-1
1.580663529E1,-8.138376939E-1,-6.633686623E-1,-5.668770325E-1,1.193205491E0
1.581662029E1,-1.170728348E0,-7.132736246E-1,-6.708802879E-1,1.526251778E0
1.582660629E1,-1.314220775E0,-7.917371922E-1,-7.007618988E-1,1.686739833E0
1.583659129E1,-1.259872659E0,-8.311916453E-1,-8.069987905E-1,1.711550676E0
1.584657729E1,-1.040126694E0,-8.576804093E-1,-1.118387582E0,1.751647798E0
1.585656329E1,-7.712208474E-1,-8.006313188E-1,-1.559082870E0,1.914818921E0
1.586654829E1,-5.937280315E-1,-7.379962371E-1,-1.983974304E0,2.198477987E0
1.587653429E1,-2.991523236E-1,-6.644742977E-1,-2.261855042E0,2.376343080E0
1.588651929E1,7.170440555E-2,-5.582605755E-1,-2.241074038E0,2.310672896E0
1.589650529E1,2.555806267E-1,-6.221301506E-1,-1.822960696E0,1.943078249E0
1.590649029E1,2.955223721E-1,-8.320483354E-1,-1.314547634E0,1.583563509E0
1.591647629E1,2.392885298E-1,-9.969210327E-1,-9.342763031E-1,1.387077055E0
1.592646229E1,1.186850291E-1,-1.060584493E0,-8.436853179E-1,1.360415569E0
1.593644729E1,3.369984269E-2,-9.957327323E-1,-1.061323435E0,1.455687737E0
1.594643329E1,-1.397227263E-1,-1.000926229E0,-1.483988249E0,1.795437796E0
1.595641829E1,-2.328489912E-1,-1.048813025E0,-2.139789884E0,2.394353391E0
1.596640429E1,-6.883985460E-2,-7.258485004E-1,-2.610492936E0,2.710400034E0
1.597638929E1,5.130914193E-1,-6.847596775E-1,-2.305012171E0,2.458706922E0
1.598637529E1,9.477500421E-1,-1.223486167E0,-1.443982769E0,2.116656510E0
1.599636129E1,1.469708179E0,-1.532550399E0,-7.360033599E-1,2.247321473E0
1.600634629E1,1.879645944E0,-1.961747283E0,-3.327871160E-1,2.737200859E0
1.601633229E1,2.298501881E0,-2.151178798E0,-2.712903410E-1,3.159791064E0
1.602631729E1,2.718491009E0,-2.002831867E0,-5.804805797E-1,3.426147481E0
1.603630329E1,2.593829541E0,-2.000706989E0,-1.071823865E0,3.446677609E0
1.604628829E1,2.081148596E0,-1.920964416E0,-1.788700398E0,3.349736241E0
1.605627429E1,1.414896380E0,-1.435353595E0,-2.281293526E0,3.044088017E0
1.606626029E1,4.782075155E-1,-1.030545885E0,-2.188457575E0,2.465776512E0
1.607624529E1,-4.507513297E-1,-8.109687576E-1,-1.545957041E0,1.803005895E0
1.608623129E1,-4.520996976E-1,-5.031033517E-1,-2.491405034E-1,7.208176673E-1
1.609621629E1,5.008584595E-1,-8.180259083E-1,9.145442891E-1,1.325298774E0
1.610620229E1,1.685541773E0,-1.247970213E0,7.888554651E-1,2.240708296E0
1.611618729E1,2.833176543E0,-6.655898733E-1,2.571009028E-1,2.921643387E0
1.612617329E1,3.527602984E0,-9.762979031E-2,1.559452415E-3,3.528954069E0
1.613615929E1,3.633245798E0,-2.272578835E-2,6.129285336E-2,3.633833830E0
1.614614429E1,3.067327709E0,6.402101800E-2,3.660643512E-1,3.089757446E0
1.615613029E1,2.462636148E0,-3.288227038E-1,5.809261376E-1,2.551504722E0
1.616611529E1,1.924300545E0,-5.994295053E-1,3.568204880E-1,2.046843712E0
1.617610129E1,1.752926840E0,-4.525424780E-1,2.206891215E-1,1.823801220E0
1.618608629E1,1.670685752E0,-6.025025095E-1,4.372319824E-1,1.829035801E0
1.619607229E1,1.356402588E0,-6.933481409E-1,6.870835072E-1,1.671120394E0
1.620605829E1,4.136805671E-1,-6.658273434E-1,9.090116537E-1,1.200316562E0
1.621604329E1,-7.933040267E-1,-9.150293157E-1,9.363035327E-1,1.530775696E0
1.622602929E1,-2.029567384E0,-1.177884390E0,6.083086485E-1,2.424168891E0
1.623601429E1,-3.291294780E0,-1.213763856E0,2.361327875E-1,3.515907097E0
1.624600029E1,-4.228926215E0,-1.132108293E0,-2.800757825E-1,4.386790235E0
1.625598529E1,-5.115696815E0,-9.674901690E-1,-1.162261580E0,5.334533073E0
1.626597129E1,-5.732053571E0,-5.212137501E-1,-1.885792537E0,6.056757829E0
1.627595729E1,-5.830039456E0,-4.325675122E-1,-2.517421635E0,6.365051956E0
1.628594229E1,-5.851793438E0,-3.867610826E-1,-3.289665745E0,6.724207856E0
1.629592829E1,-5.763717413E0,-1.457157569E-1,-3.799047691E0,6.904667614E0
1.630591329E1,-5.255695530E0,-2.980131398E-1,-3.726364462E0,6.449568934E0
