"Time (s)","Linear Acceleration x (m/s^2)","Linear Acceleration y (m/s^2)","Linear Acceleration z (m/s^2)","Absolute acceleration (m/s^2)"
6.769499974E-3,-1.102240350E-1,2.423469159E-1,9.087257248E-1,9.469233382E-1
1.675549999E-2,1.322677457E-1,1.263524830E-1,8.865285248E-1,9.052030334E-1
2.674250002E-2,2.794222831E-1,-5.543160439E-4,9.106611532E-1,9.525654075E-1
3.672849998E-2,1.721233177E-1,1.260843882E-1,7.565174389E-1,7.860294809E-1
4.671450000E-2,1.777939475E-1,5.094649762E-1,6.685501724E-1,8.591417711E-1
5.670050002E-2,1.822829280E-1,7.657642257E-1,9.179415214E-1,1.209230562E0
6.668649998E-2,1.649734886E-1,8.972751224E-1,1.416794386E0,1.685118758E0
7.667250000E-2,2.537739833E-1,9.709406841E-1,1.991289171E0,2.229878833E0
8.665850002E-2,2.152189051E-1,1.094397918E0,2.678890157E0,2.901806067E0
9.664449998E-2,5.699851200E-2,1.530716273E0,3.336176838E0,3.671023976E0
1.066305000E-1,-2.603504929E-1,1.839309219E0,3.749907691E0,4.184811641E0
1.166165000E-1,-7.369754595E-1,1.826971301E0,4.178241380E0,4.619378529E0
1.266025000E-1,-1.178254300E0,1.777362939E0,4.784189508E0,5.237916710E0
1.365885000E-1,-1.325460731E0,1.798462909E0,5.301898474E0,5.753385300E0
1.465745000E-1,-1.214696925E0,1.917983505E0,5.785973670E0,6.215435677E0
1.565605000E-1,-7.697613823E-1,1.668844464E0,5.909334133E0,6.188521982E0
1.665465000E-1,-1.997090194E-1,1.138441778E0,5.578074163E0,5.696564293E0
1.765325000E-1,6.819224623E-1,9.801640821E-1,5.050404466E0,5.189636321E0
1.865185000E-1,1.509872996E0,1.148645754E0,4.412573810E0,4.803114735E0
1.965045000E-1,2.080607437E0,1.428183593E0,4.023847990E0,4.749735606E0
2.064905000E-1,2.327773043E0,1.665909162E0,3.926021149E0,4.858747033E0
2.164765000E-1,2.431449731E0,1.410439632E0,3.886703886E0,4.796639954E0
2.264625000E-1,2.427556363E0,1.315000209E0,3.863361801E0,4.748454469E0
2.364485000E-1,1.722766317E0,1.068009142E0,3.872946557E0,4.371302133E0
2.464345000E-1,9.832917577E-1,7.181170195E-1,3.695274816E0,3.890708252E0
2.564205000E-1,8.552087912E-1,7.289969337E-1,3.368769218E0,3.551256770E0
2.664065000E-1,5.504884565E-1,4.704447520E-1,3.028225624E0,3.113600205E0
2.763925000E-1,-3.891719627E-1,3.606474906E-1,1.653010789E0,1.736077791E0
2.863785000E-1,-9.498866147E-1,2.342704493E-1,1.160377023E-1,9.852065634E-1
2.963645000E-1,-9.760207450E-1,1.399671400E-1,3.733955902E-1,1.054339396E0
3.063505000E-1,-1.238439106E0,-1.963763988E-1,-6.404180485E-1,1.407988063E0
3.163375000E-1,-7.137321925E-1,-5.553393066E-1,-1.351289491E0,1.625976222E0
3.263235000E-1,2.244266617E-1,-1.014545710E0,-1.709796023E0,2.000768044E0
3.363095000E-1,1.042359161E0,-1.597725365E0,-2.626922151E0,3.246530293E0
3.462955000E-1,2.042806064E0,-1.583777416E0,-3.578876633E0,4.414721449E0
3.562815000E-1,2.416165987E0,-2.401649689E0,-3.645493961E0,4.989529589E0
3.662675000E-1,2.995257853E0,-3.213951904E0,-3.765285576E0,5.786054952E0
3.762535000E-1,3.368829444E0,-3.881803919E0,-4.046620556E0,6.541601594E0
3.862395000E-1,3.555797673E0,-4.876250410E0,-4.443048329E0,7.494143954E0
3.962255000E-1,3.780574583E0,-5.701885446E0,-4.961391717E0,8.451014708E0
4.062115000E-1,4.070745583E0,-6.254950186E0,-4.998870615E0,8.982431679E0
4.161975000E-1,3.857521017E0,-7.334702291E0,-5.569081730E0,9.984638071E0
4.261835000E-1,2.848265283E0,-8.033939821E0,-6.475716491E0,1.070475167E1
4.361695000E-1,1.631060341E0,-8.192363697E0,-6.876957691E0,1.081978410E1
4.461555000E-1,1.584145206E-1,-8.344722256E0,-7.384753872E0,1.114423952E1
4.561415000E-1,-1.141337319E0,-8.773761705E0,-7.708279729E0,1.173452691E1
4.661275000E-1,-2.075584971E0,-9.448984135E0,-7.938919643E0,1.251470332E1
4.761135000E-1,-3.205336032E0,-9.823043969E0,-7.918447956E0,1.301799485E1
4.860995000E-1,-4.521578774E0,-9.977813920E0,-7.636324478E0,1.335346010E1
4.960855000E-1,-5.660887694E0,-1.026871875E1,-7.060188380E0,1.368716531E1
5.060715000E-1,-6.794088027E0,-1.086847935E1,-5.975167934E0,1.414164444E1
5.160575000E-1,-8.540049080E0,-1.126436158E1,-5.110866430E0,1.503127525E1
5.260435000E-1,-1.073889102E1,-1.137413603E1,-4.046595998E0,1.615765113E1
5.360295000E-1,-1.342541530E1,-1.109098462E1,-2.227949377E0,1.755606659E1
5.460155000E-1,-1.640612002E1,-1.064721252E1,-2.543041795E-1,1.955987165E1
5.560015000E-1,-2.046591435E1,-9.664043557E0,2.669486080E0,2.278976841E1
5.659875000E-1,-2.338379190E1,-7.943512630E0,5.773988047E0,2.536217764E1
5.759735000E-1,-2.392255435E1,-6.777173202E0,8.716190019E0,2.634749802E1
5.859595000E-1,-2.282727497E1,-6.427380483E0,1.099465525E1,2.613958964E1
5.959455000E-1,-2.075958257E1,-6.346798249E0,1.193291818E1,2.477169055E1
6.059315000E-1,-1.801141226E1,-5.597100418E0,1.143306895E1,2.205569247E1
6.159185000E-1,-1.577370973E1,-4.637332594E0,1.005952291E1,1.927456286E1
6.259045000E-1,-1.600417540E1,-4.220270874E0,9.090543968E0,1.888338704E1
6.358905000E-1,-1.631480288E1,-3.486920688E0,8.276354272E0,1.862335762E1
6.458765000E-1,-1.555399592E1,-3.336356347E0,7.489846464E0,1.758282864E1
6.558625000E-1,-1.395147292E1,-3.959816886E0,7.214056106E0,1.619772675E1
6.658485000E-1,-1.149432555E1,-4.484174135E0,7.579353302E0,1.448012203E1
6.758345000E-1,-8.678276088E0,-4.865521939E0,8.865803311E0,1.332622407E1
6.858205000E-1,-5.257574825E0,-5.067613991E0,1.032687515E1,1.264781226E1
6.958065000E-1,-1.897705069E0,-5.104033958E0,1.157308521E1,1.279018172E1
7.057925000E-1,9.560703376E-1,-4.777454100E0,1.283547568E1,1.372907768E1
7.157785000E-1,3.957111379E0,-4.125792148E0,1.379694270E1,1.493440723E1
7.257645000E-1,7.283390050E0,-3.593121327E0,1.446693305E1,1.659067338E1
7.357505000E-1,1.052265280E1,-3.606772237E0,1.561761597E1,1.917406990E1
7.457365000E-1,1.372695855E1,-3.280682083E0,1.619060217E1,2.147854429E1
7.557225000E-1,1.586335807E1,-3.050397973E0,1.581252004E1,2.260501818E1
7.657085000E-1,1.647287417E1,-2.983804911E0,1.451414346E1,2.215669280E1
7.756945000E-1,1.503248276E1,-2.809982393E0,1.205218033E1,1.947117330E1
7.856805000E-1,1.250588684E1,-2.791536474E0,9.408889192E0,1.589707764E1
7.956665000E-1,9.584437809E0,-3.001355914E0,7.331039010E0,1.243437648E1
8.056525000E-1,7.051784762E0,-2.927522245E0,6.135652369E0,9.795115354E0
8.156385000E-1,5.540022823E0,-2.566685597E0,5.650224127E0,8.318939867E0
8.256245000E-1,4.785581730E0,-2.159059821E0,5.435562900E0,7.557028242E0
8.356105000E-1,4.419246068E0,-1.953929702E0,5.255879132E0,7.139456740E0
8.455965000E-1,4.227047505E0,-1.573607500E0,4.662261613E0,6.486975761E0
8.555825000E-1,3.994958944E0,-1.160055426E0,3.746833810E0,5.598588139E0
8.655685000E-1,3.524357487E0,-1.045104429E0,2.653491606E0,4.533691285E0
8.755545000E-1,2.671559210E0,-9.730548911E-1,1.518744684E0,3.223453094E0
8.855405417E-1,1.673201224E0,-9.649002910E-1,5.782808572E-1,2.016195342E0
8.955275416E-1,7.545280699E-1,-8.829232778E-1,-2.259147781E-1,1.183175224E0
9.055135417E-1,-8.067798123E-2,-8.147983915E-1,-6.528995150E-1,1.047226400E0
9.154995417E-1,-6.158117956E-1,-6.272919264E-1,-6.951520801E-1,1.120694313E0
9.254855416E-1,-8.967326470E-1,-3.653461669E-1,-3.418258882E-1,1.026865230E0
9.354715417E-1,-8.885194286E-1,-2.224909410E-1,1.504131907E-1,9.282204058E-1
9.454575417E-1,-7.739542014E-1,-7.404109910E-2,7.238993311E-1,1.062317011E0
9.554435416E-1,-7.098706913E-1,4.682691492E-1,1.458906033E0,1.688667880E0
9.654295417E-1,-5.293335957E-1,1.046669728E0,2.363830483E0,2.638826657E0
9.754155417E-1,-1.832574761E-1,1.432982841E0,3.276451038E0,3.580803615E0
9.854015416E-1,5.172841653E-2,1.692319573E0,4.049106792E0,4.388836655E0
9.953875417E-1,-7.020338874E-2,1.516092387E0,4.641004645E0,4.882866859E0
1.005373542E0,-3.132768943E-1,8.895901269E-1,4.952458341E0,5.041463739E0
1.015359542E0,-5.123684842E-1,5.643187295E-1,4.975172435E0,5.033221419E0
1.025345542E0,-7.758316693E-1,4.628913188E-1,5.094915810E0,5.174393710E0
1.035331542E0,-8.926287787E-1,4.597370383E-1,5.512763103E0,5.603454409E0
1.045317542E0,-5.834335698E-1,9.449541959E-1,6.271146389E0,6.368721237E0
1.055303542E0,2.943586300E-1,1.391610720E0,6.972888865E0,7.116488357E0
1.065289542E0,1.443230086E0,1.279908729E0,7.309656912E0,7.559905000E0
1.075275542E0,2.475257071E0,9.517559695E-1,7.157786011E0,7.633258647E0
1.085261542E0,3.024379910E0,3.387423590E-1,6.736397059E0,7.391932465E0
1.095247542E0,2.982379360E0,-3.746536186E-1,5.991572297E0,6.703274616E0
1.105233542E0,2.526895002E0,-1.287884915E0,5.091086469E0,5.827778937E0
1.115219542E0,1.868842043E0,-2.498242476E0,4.102528124E0,5.154078294E0
1.125205542E0,1.270680945E0,-3.338104957E0,3.040700659E0,4.690781946E0
1.135191542E0,4.461565876E-1,-3.893918473E0,1.908116037E0,4.359192997E0
1.145177542E0,2.550988162E-1,-3.843602890E0,8.307811707E-1,3.940628875E0
1.155163542E0,3.524625582E-1,-3.696553017E0,3.296098852E-1,3.727918554E0
1.165149542E0,5.556913090E-1,-3.692131061E0,1.296035349E-1,3.735963286E0
1.175135542E0,9.089689690E-1,-3.736857290E0,-3.980199695E-2,3.846025376E0
1.185121542E0,1.528416563E0,-3.976100796E0,-1.319178629E-1,4.261788012E0
1.195107542E0,1.697418637E0,-4.755527626E0,-4.920133764E-1,5.073297763E0
1.205094542E0,1.657859885E0,-5.533151175E0,-1.342583864E0,5.930159589E0
1.215080542E0,1.665341982E0,-6.188059793E0,-2.356365927E0,6.827730831E0
1.225066542E0,1.470086494E0,-6.935019958E0,-3.416274044E0,7.869344602E0
1.235052542E0,4.724836761E-1,-7.563890340E0,-4.385860221E0,8.756223374E0
1.245038542E0,-6.192137057E-1,-8.015544480E0,-5.166157116E0,9.556231385E0
1.255024542E0,-1.304811435E0,-8.083047076E0,-6.014667045E0,1.015944893E1
1.265010542E0,-1.985953002E0,-8.156741874E0,-6.593205764E0,1.067458709E1
1.274996542E0,-2.506425946E0,-8.223047546E0,-7.290469859E0,1.127171827E1
1.284982542E0,-2.953564866E0,-8.345932630E0,-7.828959829E0,1.181823798E1
1.294968542E0,-3.390362400E0,-8.505789074E0,-8.213314855E0,1.230046934E1
1.304954542E0,-4.042725141E0,-8.741986181E0,-8.288894795E0,1.270715255E1
1.314940542E0,-4.627179489E0,-9.090073852E0,-7.745044683E0,1.280726160E1
1.324926542E0,-5.230587586E0,-9.332778910E0,-6.987531463E0,1.277831775E1
1.334912542E0,-6.659413787E0,-9.459039592E0,-6.162456590E0,1.310713902E1
1.344898542E0,-9.109956724E0,-9.718742505E0,-5.517983497E0,1.441850926E1
1.354884542E0,-1.188131299E1,-9.964022677E0,-4.956556070E0,1.627927500E1
1.364870542E0,-1.438184436E1,-1.028317423E1,-4.722347016E0,1.829977270E1
1.374856542E0,-1.683858944E1,-1.077581034E1,-4.083291369E0,2.040415279E1
1.384842542E0,-2.017092934E1,-9.887241719E0,-1.485177573E0,2.251287835E1
1.394828542E0,-2.307037179E1,-7.224950638E0,2.209773307E0,2.427601830E1
1.404814542E0,-2.323458499E1,-5.448843096E0,5.795537961E0,2.455858488E1
1.414800542E0,-2.160803929E1,-4.845475345E0,9.160480176E0,2.396456531E1
1.424786542E0,-1.957992552E1,-3.829900817E0,1.162464245E1,2.309055945E1
1.434772542E0,-1.803304930E1,-2.354674328E0,1.289279827E1,2.229259082E1
1.444758542E0,-1.739278386E1,-8.518562901E-1,1.300980223E1,2.173682460E1
1.454744542E0,-1.690731645E1,2.228824121E-1,1.234232619E1,2.093418357E1
1.464730542E0,-1.613510742E1,-3.051389953E-1,1.087847809E1,1.946217066E1
1.474716542E0,-1.544921382E1,-1.029370448E0,9.845628254E0,1.834868406E1
1.484702542E0,-1.434134538E1,-1.278993639E0,9.879340961E0,1.746171211E1
1.494688542E0,-1.191679039E1,-1.793283446E0,1.060485412E1,1.605268481E1
1.504675542E0,-8.854060932E0,-2.426783361E0,1.191844281E1,1.504436611E1
1.514661542E0,-5.099369050E0,-2.392693509E0,1.303028853E1,1.419566716E1
1.524647542E0,-1.248666617E0,-2.235438053E0,1.348135795E1,1.372236728E1
1.534633542E0,2.097071149E0,-2.102025203E0,1.325639217E1,1.358485005E1
1.544619542E0,5.094569070E0,-1.656363143E0,1.270245854E1,1.378588502E1
1.554605542E0,7.171855581E0,-9.780663934E-1,1.221457505E1,1.419816784E1
1.564591542E0,8.277758188E0,-7.461352690E-1,1.180231711E1,1.443511994E1
1.574577542E0,9.166263657E0,-9.834699516E-1,1.145558190E1,1.470435171E1
1.584563542E0,9.794779698E0,-1.394033222E0,1.126449723E1,1.499232923E1
1.594549542E0,1.012840428E1,-1.703541257E0,1.099728883E1,1.504749108E1
1.604535542E0,1.008820000E1,-1.617949422E0,1.042469907E1,1.459670820E1
1.614521542E0,9.367121361E0,-1.525672319E0,9.768732691E0,1.361979357E1
1.624507542E0,8.363349146E0,-1.442601511E0,8.966226901E0,1.234584679E1
1.634493542E0,7.610555214E0,-1.390870024E0,7.930768624E0,1.107935743E1
1.644479542E0,6.975732951E0,-1.457950013E0,6.668421423E0,9.759831593E0
1.654465542E0,6.305647300E0,-1.628336416E0,5.135320070E0,8.293622826E0
1.664451542E0,5.753447948E0,-1.653735989E0,3.539214969E0,6.954354651E0
1.674437542E0,4.987629343E0,-1.956763701E0,2.229653256E0,5.803165024E0
1.684423542E0,4.389020933E0,-2.054356216E0,9.085462153E-1,4.930450328E0
1.694409542E0,3.747726679E0,-1.998695108E0,-2.074007392E-2,4.247430700E0
1.704395542E0,3.046629443E0,-1.966034169E0,-3.806163168E-1,3.645834623E0
1.714381542E0,2.405072649E0,-1.721337696E0,-3.384877127E-1,2.976903062E0
1.724367542E0,1.879731021E0,-1.447557318E0,1.378773451E-2,2.372551580E0
1.734353542E0,1.458131862E0,-1.178844722E0,2.890249461E-1,1.897197624E0
1.744339542E0,1.079421079E0,-8.667668362E-1,3.114928722E-1,1.418965265E0
1.754325542E0,6.628913833E-1,-5.595405310E-1,2.039403570E-1,8.911241559E-1
1.764311542E0,2.091430633E-1,-3.137591068E-1,6.533386409E-2,3.826932346E-1
1.774297542E0,-2.005138155E-1,-1.562055887E-1,-9.242693782E-3,2.543450482E-1
1.784283542E0,-6.051262283E-1,-3.826125562E-3,-1.494197488E-2,6.053227684E-1
1.794269542E0,-7.667192222E-1,1.352231477E-1,4.101120114E-2,7.796316977E-1
1.804255542E0,-7.025819908E-1,1.958299765E-1,1.578058255E-1,7.462395809E-1
1.814241542E0,-5.372253999E-1,2.187599789E-1,2.896792495E-1,6.483680485E-1
1.824228542E0,-4.197464321E-1,3.071052678E-1,5.022740704E-1,7.230352374E-1
1.834214542E0,-5.035568764E-1,4.949192964E-1,7.729463607E-1,1.046881423E0
1.844200542E0,-6.860643375E-1,6.903199410E-1,1.080192985E0,1.453974821E0
1.854186542E0,-8.027873334E-1,8.061458279E-1,1.368853649E0,1.779915423E0
1.864172542E0,-9.391397978E-1,8.146766232E-1,1.566904691E0,2.000217956E0
1.874158542E0,-1.084117563E0,9.042752628E-1,1.689798546E0,2.201918202E0
1.884144542E0,-1.151165392E0,9.827025045E-1,1.756988316E0,2.319028658E0
1.894130625E0,-1.114242857E0,9.694366340E-1,1.821436912E0,2.344989756E0
1.904116625E0,-1.129750623E0,9.112644397E-1,1.937784224E0,2.421104510E0
1.914102625E0,-1.236276952E0,7.321953607E-1,2.141339834E0,2.578725855E0
1.924088625E0,-1.373574107E0,5.200867358E-1,2.412296299E0,2.824246709E0
1.934074625E0,-1.366409221E0,2.384636338E-1,2.761451088E0,3.090234809E0
1.944060625E0,-1.185964365E0,-4.616976097E-2,3.356471354E0,3.560132451E0
1.954046625E0,-8.509971879E-1,3.110967234E-2,4.011858859E0,4.101240731E0
1.964032625E0,-4.642880724E-1,3.243944612E-1,4.702375267E0,4.736362352E0
1.974018625E0,-4.635131702E-1,5.961750913E-1,5.613207743E0,5.663777041E0
1.984004625E0,-4.634241463E-1,7.147301660E-1,6.414607825E0,6.470919154E0
1.993990625E0,-2.976875961E-1,5.418399860E-1,6.858184036E0,6.885992793E0
2.003976625E0,-2.115391061E-1,3.672720936E-1,7.068558084E0,7.081253489E0
2.013962625E0,-3.793234974E-2,3.582311288E-1,6.856653235E0,6.866109669E0
2.023948625E0,3.261266989E-1,3.465662259E-1,6.248930477E0,6.267024724E0
2.033934625E0,7.275362992E-1,2.028381568E-1,5.525804148E0,5.577182431E0
2.043920625E0,1.102937192E0,-1.043505800E-1,4.631957833E0,4.762603580E0
2.053906625E0,1.211996535E0,-6.244621664E-1,3.690564884E0,3.934356079E0
2.063892625E0,1.453993202E0,-1.057253773E0,2.389296861E0,2.990087167E0
2.073878625E0,1.684546284E0,-1.540263607E0,9.214194453E-1,2.461528378E0
2.083864625E0,1.464361485E0,-2.342583455E0,-3.114016557E-1,2.780112011E0
2.093850625E0,1.387320326E0,-2.838767943E0,-1.516005263E0,3.504501830E0
2.103836625E0,1.447944258E0,-3.170648887E0,-2.509305700E0,4.294900701E0
2.113822625E0,1.872710561E0,-3.292203729E0,-3.317095034E0,5.034756172E0
2.123808625E0,2.561857551E0,-3.165888669E0,-3.751401654E0,5.537055133E0
2.133795625E0,3.338078352E0,-3.181438169E0,-4.155445426E0,6.207418352E0
2.143781625E0,4.111265033E0,-3.514327758E0,-4.296190830E0,6.907261064E0
2.153767625E0,5.025488895E0,-4.034761818E0,-4.234032589E0,7.711152542E0
2.163753625E0,5.604467910E0,-4.856997575E0,-4.306211788E0,8.575776697E0
2.173739625E0,5.529388492E0,-5.329403776E0,-4.702420875E0,9.004967728E0
2.183725625E0,4.535371186E0,-5.920965414E0,-5.257047406E0,9.124909351E0
2.193711625E0,3.279806755E0,-6.677822576E0,-5.944919118E0,9.523261523E0
2.203697625E0,2.025839784E0,-7.559258761E0,-6.716870867E0,1.031323296E1
2.213683625E0,1.162010735E0,-8.202021543E0,-7.722406603E0,1.132514857E1
2.223669625E0,5.660777181E-1,-8.610477038E0,-8.605361309E0,1.218659108E1
2.233655625E0,-6.299556255E-2,-8.986293960E0,-9.344254071E0,1.296427907E1
2.243641625E0,-6.353654695E-1,-9.613941690E0,-9.847343827E0,1.377685539E1
2.253627625E0,-1.255083205E0,-1.021730301E1,-1.006255645E1,1.439526161E1
2.263613625E0,-2.043724662E0,-1.064162142E1,-9.931909769E0,1.469910706E1
2.273599625E0,-3.255712134E0,-1.095417848E1,-9.214797885E0,1.468012901E1
2.283585625E0,-4.933163699E0,-1.096598518E1,-7.936764944E0,1.440767756E1
2.293571625E0,-6.642387865E0,-1.034594643E1,-6.316987975E0,1.382259965E1
2.303557625E0,-8.707840780E0,-9.756951721E0,-4.532727660E0,1.384088935E1
2.313543625E0,-1.091953958E1,-9.228409034E0,-2.944972968E0,1.459701146E1
2.323529625E0,-1.305638582E1,-8.898246587E0,-1.466108049E0,1.586812768E1
2.333515625E0,-1.497117353E1,-8.615782802E0,-6.400069892E-1,1.728517744E1
2.343501625E0,-1.635703147E1,-8.397024431E0,-5.236836505E-1,1.839393222E1
2.353487625E0,-1.783999061E1,-8.720682435E0,-5.907769418E-1,1.986616683E1
2.363473625E0,-1.962515491E1,-8.756612990E0,-3.662654954E-1,2.149323444E1
2.373459625E0,-2.113164792E1,-6.912798200E0,1.361808339E0,2.227527429E1
2.383445625E0,-2.187172766E1,-4.193185694E0,4.278315307E0,2.267728509E1
2.393431625E0,-2.110856077E1,-2.560449249E0,6.995696515E0,2.238452608E1
2.403417625E0,-1.959614570E1,-9.977583539E-1,9.617272848E0,2.185169067E1
2.413403625E0,-1.789075263E1,7.901278192E-1,1.158360084E1,2.132798959E1
2.423389625E0,-1.593029933E1,1.572589354E0,1.236601209E1,2.022784539E1
2.433375625E0,-1.401562623E1,1.405201404E0,1.177900192E1,1.836184239E1
2.443361625E0,-1.266940306E1,9.687712209E-1,1.046651836E1,1.646208669E1
2.453347625E0,-1.123673348E1,9.150649837E-1,9.462626858E0,1.471879174E1
2.463333625E0,-1.040915249E1,4.041611539E-1,8.948594037E0,1.373284883E1
2.473319625E0,-9.721537474E0,-2.093593372E-1,8.984766083E0,1.323926523E1
2.483306625E0,-8.330262092E0,-1.025103881E-1,9.079388650E0,1.232229983E1
2.493292625E0,-6.069173620E0,-2.876037803E-1,9.442080327E0,1.122811049E1
2.503278625E0,-3.647209826E0,-7.311259049E-1,9.887627635E0,1.056417838E1
2.513264625E0,-9.965883261E-1,-1.087011350E0,1.060951435E1,1.071151608E1
2.523250625E0,1.708790156E0,-1.793879569E0,1.174154817E1,1.200008005E1
2.533236625E0,4.844077275E0,-2.514382837E0,1.284688710E1,1.395814149E1
2.543222625E0,7.986154620E0,-3.082012114E0,1.341992593E1,1.591765926E1
2.553208625E0,1.020435493E1,-3.326179853E0,1.328237603E1,1.707670475E1
2.563194625E0,1.185425676E1,-3.378034423E0,1.211771125E1,1.728506424E1
2.573180625E0,1.278638830E1,-3.522669688E0,1.033632425E1,1.681489003E1
2.583166625E0,1.270221062E1,-3.666905588E0,8.442592367E0,1.568660948E1
2.593152625E0,1.185631615E1,-3.850663110E0,6.877726600E0,1.423737905E1
2.603138625E0,1.056509423E1,-4.121739443E0,6.011940488E0,1.283562934E1
2.613124625E0,8.900607693E0,-4.162539560E0,5.876436528E0,1.144902001E1
2.623110625E0,7.452158235E0,-3.868824562E0,6.003773682E0,1.032219765E1
2.633096625E0,6.343244312E0,-3.275106179E0,5.917817858E0,9.272736224E0
2.643082625E0,5.499487000E0,-2.622793139E0,5.499650722E0,8.207896148E0
2.653068625E0,4.977161658E0,-2.197972457E0,4.742495937E0,7.217651197E0
2.663054625E0,4.450375182E0,-1.964171247E0,3.660946983E0,6.088213265E0
2.673040625E0,3.995414150E0,-1.839267704E0,2.198374161E0,4.917223695E0
2.683026625E0,3.598928782E0,-1.764974736E0,7.172580636E-1,4.072085869E0
2.693012625E0,3.113173681E0,-1.746448418E0,-5.607707852E-1,3.613363574E0
2.702998625E0,2.483037084E0,-1.781062911E0,-1.673519897E0,3.484010204E0
2.712984625E0,1.734536762E0,-1.750356843E0,-2.602955291E0,3.584374855E0
2.722970625E0,8.458095382E-1,-1.673950399E0,-3.140605016E0,3.657991741E0
2.732956625E0,9.217711553E-2,-1.458684716E0,-3.375589995E0,3.678432483E0
2.742942625E0,-5.901028674E-1,-1.116200870E0,-3.279955859E0,3.514574827E0
2.752928625E0,-1.112864156E0,-6.455431330E-1,-2.804628682E0,3.085633583E0
2.762914625E0,-1.417389486E0,-1.067717658E-1,-2.029007220E0,2.477350089E0
2.772900625E0,-1.495575823E0,5.003707286E-1,-1.188945934E0,1.975021605E0
2.782886625E0,-1.451455949E0,1.035486344E0,-5.649655777E-1,1.870332175E0
2.792872625E0,-1.522732193E0,1.329104570E0,-1.213279706E-1,2.024834009E0
2.802858625E0,-1.718601345E0,1.333931739E0,1.658135873E-1,2.181847523E0
2.812845625E0,-1.955433606E0,1.104502053E0,3.665157562E-1,2.275517342E0
2.822831625E0,-2.130697902E0,9.484848178E-1,4.427880067E-1,2.373933069E0
2.832817625E0,-2.305992749E0,9.090680793E-1,6.181120902E-1,2.554617366E0
2.842803625E0,-2.330585700E0,9.319958159E-1,1.001147400E0,2.702321599E0
2.852789625E0,-2.201052478E0,1.013830449E0,1.587767556E0,2.897152050E0
2.862775625E0,-1.959259878E0,1.005281235E0,2.290794666E0,3.177582388E0
2.872761625E0,-1.629852160E0,9.908362008E-1,2.984011318E0,3.541538929E0
2.882747625E0,-1.390201541E0,9.638652608E-1,3.549427131E0,3.931937122E0
2.892733875E0,-1.238518628E0,9.746488421E-1,4.092536402E0,4.385512850E0
2.902719875E0,-1.165594055E0,1.005198132E0,4.781357701E0,5.022988578E0
2.912705875E0,-7.412360331E-1,9.590391883E-1,5.302004893E0,5.438790574E0
2.922691875E0,-2.268776866E-1,8.862587488E-1,5.826856817E0,5.898236043E0
2.932677875E0,2.908861148E-1,1.037848399E0,6.110083079E0,6.204422557E0
2.942663875E0,8.058721051E-1,1.157368703E0,6.369804119E0,6.524058299E0
2.952649875E0,1.043318470E0,1.203365314E0,6.672555404E0,6.859999791E0
2.962635875E0,1.357272654E0,1.087021217E0,6.879025267E0,7.095406458E0
2.972621875E0,1.836559273E0,7.579219401E-1,6.666264385E0,6.956038850E0
2.982607875E0,2.320885608E0,4.000732192E-1,6.017431608E0,6.461892273E0
2.992593875E0,2.847424746E0,1.385088444E-2,5.151551941E0,5.886128348E0
3.002579875E0,3.229210798E0,-3.503525904E-1,4.240929964E0,5.341913166E0
3.012565875E0,3.518767256E0,-6.229708341E-1,3.470162276E0,4.981148651E0
3.022551875E0,3.891296874E0,-8.250079224E-1,2.964394494E0,4.960893483E0
3.032537875E0,4.468341922E0,-9.701961873E-1,2.576687259E0,5.248492870E0
3.042523875E0,4.958196799E0,-1.115003214E0,2.074231925E0,5.489024115E0
3.052509875E0,5.457024520E0,-1.463251099E0,1.522441294E0,5.851328728E0
3.062495875E0,5.738136429E0,-1.715309655E0,7.741263288E-1,6.038854897E0
3.072481875E0,5.818162007E0,-2.116877715E0,1.163946748E-2,6.191309707E0
3.082467875E0,5.662848265E0,-2.922075563E0,-7.635060310E-1,6.417890427E0
3.092453875E0,5.181435891E0,-3.999834937E0,-1.365449985E0,6.686584410E0
3.102439875E0,4.449039094E0,-4.859156952E0,-2.187170311E0,6.941834708E0
3.112425875E0,3.987824464E0,-5.375245947E0,-3.089526079E0,7.371647328E0
3.122411875E0,3.783187703E0,-5.853556373E0,-3.939892498E0,8.006209110E0
3.132397875E0,3.578885989E0,-6.293615484E0,-4.824845783E0,8.700411347E0
3.142383875E0,3.278933181E0,-6.634075463E0,-5.691289707E0,9.335584533E0
3.152369875E0,2.953977680E0,-6.900401518E0,-6.625470700E0,1.001191227E1
3.162355875E0,2.547857562E0,-7.439033575E0,-7.236869017E0,1.068658373E1
3.172341875E0,1.895574344E0,-7.970139096E0,-7.548489944E0,1.113983930E1
3.182328875E0,1.322697483E0,-8.312484217E0,-7.717993709E0,1.141991022E1
3.192314875E0,4.683081794E-1,-8.694065909E0,-7.598828623E0,1.155630958E1
3.202300875E0,-4.639256912E-1,-9.256998410E0,-7.377714994E0,1.184643090E1
3.212286875E0,-1.477847503E0,-9.644939534E0,-7.240167432E0,1.215026404E1
3.222272875E0,-2.545105278E0,-9.880494032E0,-7.230869190E0,1.250548649E1
3.232258875E0,-3.748950502E0,-9.742829525E0,-7.133827629E0,1.264392556E1
3.242244875E0,-4.998784077E0,-9.386051722E0,-6.708218157E0,1.257322552E1
3.252230875E0,-6.512199023E0,-8.898257112E0,-5.870402201E0,1.249197093E1
3.262216875E0,-7.852414180E0,-8.227130072E0,-4.878146662E0,1.237507141E1
3.272202875E0,-8.692785369E0,-7.610865117E0,-3.628949264E0,1.211028728E1
3.282188875E0,-9.804519405E0,-7.074628079E0,-2.649461705E0,1.237734263E1
3.292174875E0,-1.133263133E1,-6.562189794E0,-2.088737698E0,1.326098386E1
3.302160875E0,-1.337200215E1,-6.342978848E0,-1.925304512E0,1.492483232E1
3.312146875E0,-1.545143927E1,-6.383079053E0,-2.207329171E0,1.686306543E1
3.322132875E0,-1.714423627E1,-6.492175233E0,-2.566686766E0,1.851110633E1
3.332118875E0,-1.840606190E1,-6.194314560E0,-2.338267626E0,1.956067849E1
3.342104875E0,-1.939139024E1,-5.033075073E0,-8.771080756E-1,2.005310895E1
3.352090875E0,-1.969908944E1,-3.652580494E0,1.176115973E0,2.006934772E1
3.362076875E0,-1.972523351E1,-2.430322680E0,3.466249904E0,2.017439451E1
3.372062875E0,-1.926471733E1,-1.026994578E0,6.130910277E0,2.024282867E1
3.382048875E0,-1.796183021E1,2.365191422E-1,8.487006648E0,1.986737446E1
3.392034875E0,-1.651239784E1,1.171447995E0,1.066791050E1,1.969354938E1
3.402020875E0,-1.486837948E1,1.498289077E0,1.237982906E1,1.940550814E1
3.412006875E0,-1.255369953E1,1.589123526E0,1.269185754E1,1.792216318E1
3.421992875E0,-9.802224957E0,1.412903941E0,1.261333177E1,1.603670945E1
3.431978875E0,-7.121098825E0,8.037518317E-1,1.202776937E1,1.400083218E1
3.441964875E0,-4.640139550E0,1.005635577E-1,1.098795668E1,1.192795875E1
3.451950875E0,-2.107236826E0,-1.111207786E-1,1.026713298E1,1.048173719E1
3.461936875E0,7.207930709E-1,-5.545654641E-1,9.921536808E0,9.963130941E0
3.471922875E0,3.814452766E0,-8.861722831E-1,9.859811261E0,1.060901642E1
3.481908875E0,6.556936070E0,-9.233811861E-1,9.904446566E0,1.191402976E1
3.491894875E0,8.799051497E0,-9.997836833E-1,9.985626969E0,1.334674569E1
3.501880875E0,1.021775558E1,-1.027425372E0,9.805753167E0,1.419897627E1
3.511866875E0,1.029198599E1,-1.030389910E0,9.493290242E0,1.403955977E1
3.521852875E0,9.538294507E0,-1.303325804E0,8.875533662E0,1.309399931E1
3.531839875E0,8.467069396E0,-1.727478004E0,8.052719323E0,1.181193180E1
3.541825875E0,7.404546697E0,-2.143801512E0,7.471210218E0,1.073509100E1
3.551811875E0,6.892905972E0,-2.458890714E0,7.200386485E0,1.026663829E1
3.561797875E0,6.896200293E0,-2.395059585E0,7.083910534E0,1.017229951E1
3.571783875E0,7.012299684E0,-2.314538894E0,6.957240547E0,1.014557210E1
3.581769875E0,7.223535612E0,-2.235840633E0,6.370717455E0,9.887592779E0
3.591755875E0,7.183618425E0,-2.295473901E0,5.191133498E0,9.155405021E0
3.601741875E0,6.754319944E0,-2.382726053E0,3.676106474E0,8.050588808E0
3.611727875E0,6.058545721E0,-2.586722251E0,2.100075449E0,6.914291369E0
3.621713875E0,5.182924592E0,-2.718892713E0,6.773894083E-1,5.891853810E0
3.631699875E0,4.355358805E0,-2.712024574E0,-5.722488695E-1,5.162528099E0
3.641685875E0,3.604848796E0,-2.656844692E0,-1.487241055E0,4.718648590E0
3.651671875E0,2.833736414E0,-2.347794640E0,-2.082180630E0,4.228200316E0
3.661657875E0,2.132516678E0,-1.964760646E0,-2.426865222E0,3.781214961E0
3.671643875E0,1.471156242E0,-1.676921808E0,-2.492627687E0,3.345080002E0
3.681629875E0,8.418910997E-1,-1.361013703E0,-2.343960475E0,2.838184214E0
3.691615875E0,2.929419959E-1,-9.548716584E-1,-1.987610688E0,2.224452998E0
3.701601875E0,-1.272861555E-1,-5.659311723E-1,-1.600848947E0,1.702702913E0
3.711587875E0,-5.613515599E-1,-2.083583669E-1,-1.274494207E0,1.408142133E0
3.721573875E0,-1.061341781E0,5.725827456E-2,-1.000808846E0,1.459912063E0
3.731559875E0,-1.562297523E0,2.023657383E-1,-7.892630160E-1,1.762004981E0
3.741545875E0,-1.926357449E0,3.148437653E-1,-7.104647684E-1,2.077195178E0
3.751531875E0,-2.068034315E0,4.346854103E-1,-6.065731949E-1,2.198555975E0
3.761517875E0,-2.053976293E0,5.697057693E-1,-3.523339194E-1,2.160444969E0
3.771503875E0,-1.894247464E0,6.843320999E-1,9.670709968E-3,2.014094685E0
3.781489875E0,-1.564526628E0,6.637883462E-1,4.211117935E-1,1.750912243E0
3.791475875E0,-1.252395240E0,6.290165627E-1,8.754948288E-1,1.652466904E0
3.801461875E0,-1.011847732E0,7.915739818E-1,1.349518077E0,1.863229519E0
3.811447875E0,-8.377657429E-1,9.889583675E-1,1.879874570E0,2.283378744E0
3.821433875E0,-6.669837034E-1,1.154303008E0,2.385598497E0,2.732830563E0
3.831419875E0,-5.545500787E-1,1.228690335E0,2.885467608E0,3.184827946E0
3.841405875E0,-4.614253487E-1,1.187206533E0,3.268756102E0,3.508153241E0
3.851391875E0,-2.386903230E-1,1.141388555E0,3.446943567E0,3.638840593E0
3.861377875E0,-4.321479745E-2,1.002039393E0,3.510449007E0,3.650918062E0
3.871363875E0,1.734545825E-1,7.724924706E-1,3.422027412E0,3.512421205E0
3.881349875E0,4.347874077E-1,5.202756739E-1,3.276900689E0,3.346312148E0
3.891336417E0,7.335607586E-1,2.974487373E-1,3.172626708E0,3.269884916E0
3.901322417E0,1.036704465E0,1.533388451E-1,3.119469085E0,3.290798736E0
3.911308417E0,1.360845888E0,-3.176602229E-2,3.103766972E0,3.389141489E0
3.921294417E0,1.620644403E0,-1.046872334E-1,3.063687817E0,3.467510741E0
3.931280417E0,1.950816937E0,-3.249297738E-3,2.936442465E0,3.525392408E0
3.941266417E0,2.404999120E0,5.328933075E-2,2.755668191E0,3.657945831E0
3.951252417E0,2.655936619E0,-4.551779643E-2,2.770458139E0,3.838164860E0
3.961238417E0,2.810643128E0,-4.715536764E-1,2.888582420E0,4.057830216E0
3.971224417E0,3.131480436E0,-1.054664626E0,2.554704652E0,4.176721567E0
3.981210417E0,3.801171985E0,-1.260228901E0,1.643665769E0,4.328824609E0
3.991196417E0,4.265322209E0,-1.443657956E0,9.212563080E-1,4.596284916E0
4.001182417E0,4.582316726E0,-1.729222813E0,4.779011214E-1,4.920998638E0
4.011168417E0,4.817813922E0,-1.721206572E0,2.674399495E-1,5.123027149E0
4.021154417E0,4.997467868E0,-1.664456713E0,2.982758260E-1,5.275800386E0
4.031140417E0,5.134604956E0,-1.584168887E0,4.170514870E-1,5.389590992E0
4.041126417E0,4.949583850E0,-1.627415771E0,8.222459900E-1,5.274746520E0
4.051112417E0,4.673955460E0,-1.779550382E0,1.123085820E0,5.125815151E0
4.061098417E0,4.552099778E0,-1.883345185E0,1.192392282E0,5.068569900E0
4.071084417E0,4.463071826E0,-2.244977931E0,9.413871020E-1,5.083812124E0
4.081070417E0,4.374548197E0,-2.852617073E0,3.084125590E-1,5.231559462E0
4.091056417E0,4.151578662E0,-3.549329483E0,-7.257189846E-1,5.509992124E0
4.101042417E0,3.595032490E0,-4.205351703E0,-1.842465253E0,5.831288002E0
4.111028417E0,2.719845225E0,-4.697089968E0,-2.581863214E0,6.010509951E0
4.121014417E0,1.903351141E0,-5.031975796E0,-3.108885040E0,6.213589315E0
4.131000417E0,1.216086370E0,-5.136442151E0,-3.307992674E0,6.229343429E0
4.140986417E0,7.584481895E-1,-5.191351014E0,-3.093187605E0,6.090416946E0
4.150972417E0,2.937851644E-1,-5.497983681E0,-2.791796383E0,6.173188910E0
4.160958417E0,-2.527078897E-1,-5.758323357E0,-2.840739917E0,6.425881452E0
4.170944417E0,-1.001167281E0,-6.121814933E0,-3.228930717E0,6.993207245E0
4.180930417E0,-1.838060546E0,-6.752101511E0,-3.708774868E0,7.919870731E0
4.190916417E0,-2.976371346E0,-7.549271132E0,-4.388441767E0,9.225437775E0
4.200902417E0,-4.351177461E0,-8.343041766E0,-5.202992236E0,1.075221928E1
4.210888417E0,-5.807583809E0,-8.730192347E0,-5.764255942E0,1.196540575E1
4.220874417E0,-7.138300164E0,-8.655518140E0,-6.294031806E0,1.286422014E1
4.230860417E0,-8.205578404E0,-8.593670386E0,-6.839502767E0,1.370990466E1
4.240846417E0,-9.057666244E0,-8.845546217E0,-7.189831091E0,1.455948752E1
4.250832417E0,-9.518806322E0,-9.100152698E0,-7.268499531E0,1.504166009E1
4.260818417E0,-1.025671675E1,-9.368584335E0,-6.846646895E0,1.548700051E1
4.270804417E0,-1.169826591E1,-9.674235254E0,-5.924184891E0,1.629528213E1
4.280790417E0,-1.316960663E1,-9.612867556E0,-4.684926006E0,1.696450097E1
4.290777417E0,-1.452548940E1,-8.468455771E0,-2.413206711E0,1.698611645E1
4.300763417E0,-1.575502788E1,-6.628569725E0,2.011459726E-1,1.709383806E1
4.310749417E0,-1.665425129E1,-5.158421835E0,2.977857124E0,1.768731282E1
4.320735417E0,-1.733882810E1,-3.689444850E0,5.812287894E0,1.865555289E1
4.330721417E0,-1.794075451E1,-1.967910833E0,8.291333084E0,1.986176099E1
4.340707417E0,-1.813361205E1,-9.411517516E-2,1.045612785E1,2.093244738E1
4.350693417E0,-1.765246807E1,1.093131850E0,1.205572374E1,2.140432295E1
4.360679417E0,-1.700222026E1,1.596515137E0,1.281434150E1,2.135021552E1
4.370665417E0,-1.616824710E1,1.587131525E0,1.230132083E1,2.037777453E1
4.380651417E0,-1.471229625E1,1.335839247E0,1.126113859E1,1.857550456E1
4.390637417E0,-1.272527321E1,1.320517203E0,1.090731188E1,1.681207293E1
4.400623417E0,-1.044276112E1,9.475928251E-1,1.060929333E1,1.491664496E1
4.410609417E0,-8.168201247E0,-6.580927927E-2,1.027234636E1,1.312421206E1
4.420595417E0,-6.006270443E0,-4.901476029E-1,1.034603531E1,1.197313559E1
4.430581417E0,-4.063308217E0,-7.458732406E-1,1.075182740E1,1.151818531E1
4.440567417E0,-1.496066550E0,-1.175857307E0,1.127036784E1,1.142987518E1
4.450553417E0,8.799982081E-1,-1.318611303E0,1.167642305E1,1.178354734E1
4.460539417E0,3.258427873E0,-1.441319655E0,1.199293751E1,1.251100734E1
4.470525417E0,5.588045420E0,-1.517729315E0,1.200700474E1,1.333033821E1
4.480511417E0,7.748943021E0,-1.384251269E0,1.190938548E1,1.427570425E1
4.490497417E0,9.801630296E0,-1.451642329E0,1.165450184E1,1.529727541E1
4.500483417E0,1.124955292E1,-1.985681253E0,1.104007525E1,1.588642919E1
4.510469417E0,1.171456093E1,-2.620970854E0,9.952489629E0,1.559334716E1
4.520455417E0,1.143523359E1,-3.011216366E0,8.256894153E0,1.442249258E1
4.530441417E0,1.059092606E1,-3.324232146E0,6.471086665E0,1.284885974E1
4.540427417E0,9.477531996E0,-3.432093394E0,4.841810310E0,1.118239710E1
4.550413417E0,8.407673380E0,-3.505548456E0,3.546074923E0,9.775095344E0
4.560399417E0,7.379808297E0,-3.673566443E0,2.686351789E0,8.670244913E0
4.570385417E0,6.556839007E0,-3.637512512E0,2.040406367E0,7.770900409E0
4.580371417E0,5.880819601E0,-3.405662517E0,1.576906938E0,6.976332263E0
4.590357417E0,5.304043817E0,-3.133821661E0,1.230833048E0,6.282409490E0
4.600343417E0,4.844818995E0,-2.814879728E0,1.097646339E0,5.709697581E0
4.610329417E0,4.631921580E0,-2.462292917E0,1.061077852E0,5.351959468E0
4.620315417E0,4.478772478E0,-2.200609113E0,1.020581206E0,5.093492846E0
4.630301417E0,4.267700272E0,-1.957774977E0,9.020037657E-1,4.781188060E0
4.640287417E0,4.026700262E0,-1.808460040E0,5.306470996E-1,4.445945238E0
4.650273417E0,3.756466513E0,-1.770406214E0,-2.112365127E-2,4.152809294E0
4.660259417E0,3.257642300E0,-1.820404878E0,-5.938935077E-1,3.778732164E0
4.670246417E0,2.584593864E0,-1.814125261E0,-1.125558023E0,3.352321102E0
4.680232417E0,1.872013281E0,-1.796364928E0,-1.594053313E0,3.045056099E0
4.690218417E0,1.318945325E0,-1.630954360E0,-1.920483482E0,2.843920833E0
4.700204417E0,7.660569520E-1,-1.376029499E0,-1.893295684E0,2.462695471E0
4.710190417E0,3.136494716E-1,-1.116247574E0,-1.529598870E0,1.919389836E0
4.720176417E0,-3.746446285E-2,-7.551124261E-1,-9.839431375E-1,1.240863594E0
4.730162417E0,-3.101718035E-1,-3.135882220E-1,-3.186451864E-1,5.441313035E-1
4.740148417E0,-3.930686934E-1,1.407993449E-1,3.190328568E-1,5.254611470E-1
4.750134417E0,-4.822910647E-1,4.712725350E-1,9.290015298E-1,1.147931320E0
4.760120417E0,-6.779940835E-1,6.623603100E-1,1.443738356E0,1.727071972E0
4.770106417E0,-8.993251562E-1,6.488042714E-1,1.686531122E0,2.018444932E0
4.780092417E0,-9.958392247E-1,5.855356438E-1,1.703641244E0,2.058383162E0
4.790078417E0,-8.901179843E-1,5.048643869E-1,1.584775536E0,1.886454764E0
4.800064417E0,-7.975271051E-1,4.221164183E-1,1.486531203E0,1.738967157E0
4.810050417E0,-6.702036189E-1,3.695554313E-1,1.416965709E0,1.610445879E0
4.820036417E0,-4.386663409E-1,3.138854798E-1,1.395334520E0,1.495964797E0
4.830022417E0,-1.854688200E-1,3.594721272E-1,1.428472445E0,1.484638818E0
4.840008417E0,8.209514530E-2,5.057301403E-1,1.475955929E0,1.562353511E0
4.849994417E0,3.478139486E-1,5.434680701E-1,1.507855414E0,1.640109763E0
4.859980417E0,5.082939251E-1,6.248286407E-1,1.512280002E0,1.713407234E0
4.869966417E0,5.249105791E-1,6.923076289E-1,1.494447749E0,1.728639651E0
4.879952417E0,4.374924027E-1,5.553138712E-1,1.428305799E0,1.593684584E0
4.889938667E0,2.948591151E-1,3.302901357E-1,1.302383671E0,1.375585948E0
4.899924667E0,2.397387654E-1,2.163384276E-1,1.183968784E0,1.227215984E0
4.909910667E0,2.371711068E-1,1.446017893E-1,1.065284924E0,1.100904982E0
4.919896667E0,2.919908001E-1,-1.527058840E-2,1.067736661E0,1.107047152E0
4.929882667E0,3.485269435E-1,-5.316507742E-2,1.117402326E0,1.171701974E0
4.939868667E0,4.410817891E-1,-4.059838772E-2,1.268858660E0,1.343950771E0
4.949854667E0,4.779332811E-1,-1.019383842E-1,1.537325381E0,1.613127702E0
4.959840667E0,4.726816043E-1,-5.904503748E-2,1.876386121E0,1.935907821E0
4.969826667E0,4.424202168E-1,-5.712934345E-2,2.327480682E0,2.369845087E0
4.979812667E0,3.376727571E-1,-1.858631781E-1,2.838974642E0,2.865020948E0
4.989798667E0,3.654281741E-1,-2.814893469E-1,3.341263915E0,3.372953981E0
4.999784667E0,5.726170979E-1,-1.992047701E-1,3.746318670E0,3.795059480E0
5.009770667E0,8.075976916E-1,4.334285147E-2,4.138714203E0,4.216995125E0
5.019756667E0,1.137060958E0,4.311649845E-1,4.324061583E0,4.491805811E0
5.029742667E0,1.525732984E0,7.566126754E-1,4.388587362E0,4.707443352E0
5.039728667E0,1.781899794E0,9.478437437E-1,4.275729083E0,4.728153322E0
5.049714667E0,1.918612666E0,1.083337033E0,3.886181145E0,4.467336743E0
5.059700667E0,1.829023089E0,1.013948490E0,3.300467892E0,3.907237554E0
5.069686667E0,1.659724269E0,8.722120558E-1,2.845362725E0,3.407569157E0
5.079672667E0,1.528396098E0,5.618352708E-1,2.493778419E0,2.978352616E0
5.089659667E0,1.634422490E0,1.997593054E-1,2.171474630E0,2.725168384E0
5.099645667E0,2.174610784E0,-1.116293402E-1,1.818109846E0,2.836708759E0
5.109631667E0,2.900462500E0,-4.519526401E-1,1.451279510E0,3.274623050E0
5.119617667E0,3.674125437E0,-9.684200956E-1,1.002906243E0,3.929739958E0
5.129603667E0,4.493426477E0,-1.669251284E0,2.858966857E-1,4.801980661E0
5.139589667E0,5.276628562E0,-2.361735718E0,-8.074566275E-1,5.837173184E0
5.149575667E0,5.635958675E0,-3.000562447E0,-1.977573942E0,6.684175632E0
5.159561667E0,5.494977043E0,-3.520387227E0,-3.053269833E0,7.204884149E0
5.169547667E0,4.980539594E0,-4.087768582E0,-4.010372497E0,7.589381674E0
5.179533667E0,4.193149441E0,-5.057822828E0,-4.883891551E0,8.186358817E0
5.189519667E0,3.282395318E0,-5.984141656E0,-5.741403269E0,8.918956322E0
5.199505667E0,2.391703575E0,-6.710571077E0,-6.234931659E0,9.467121155E0
5.209491667E0,1.578880373E0,-7.313104430E0,-6.483420197E0,9.899954399E0
5.219477667E0,1.014447477E0,-7.667005988E0,-6.717721052E0,1.024401585E1
5.229463667E0,5.616572231E-1,-7.812538508E0,-6.750935576E0,1.034051971E1
5.239449667E0,-6.676818609E-2,-7.878202740E0,-6.502165786E0,1.021512096E1
5.249435667E0,-1.114456499E0,-7.953283328E0,-6.312520702E0,1.021492274E1
5.259421667E0,-1.947509898E0,-7.880561507E0,-6.292062464E0,1.027064236E1
5.269407667E0,-2.793392673E0,-7.807685904E0,-6.214345951E0,1.036248510E1
5.279393667E0,-3.355797755E0,-7.917824643E0,-6.523740842E0,1.079409654E1
5.289379667E0,-3.716447584E0,-8.042563879E0,-6.758211851E0,1.114308054E1
5.299365667E0,-4.363453106E0,-7.943279911E0,-6.637477373E0,1.123350011E1
5.309351667E0,-5.063105788E0,-7.714534496E0,-6.137766137E0,1.108247517E1
5.319337667E0,-5.966991772E0,-7.514754433E0,-5.473868009E0,1.104716054E1
5.329323667E0,-7.185153903E0,-7.551843322E0,-4.857263916E0,1.149999074E1
5.339309667E0,-8.267947730E0,-7.664073610E0,-4.817830294E0,1.226003559E1
5.349295667E0,-9.039866150E0,-7.925226633E0,-5.146604612E0,1.307730615E1
5.359281667E0,-9.969160041E0,-8.394221275E0,-5.137334436E0,1.400854410E1
5.369267667E0,-1.169940495E1,-8.075040484E0,-4.267182793E0,1.484221021E1
5.379253667E0,-1.378329881E1,-6.985420033E0,-3.216080291E0,1.578349111E1
5.389239667E0,-1.543297961E1,-6.422994486E0,-2.167388595E0,1.685613512E1
5.399225667E0,-1.647781741E1,-5.892823935E0,-8.907525533E-1,1.752247929E1
5.409211667E0,-1.693653966E1,-5.166351244E0,4.327711415E-1,1.771227969E1
5.419197667E0,-1.756213560E1,-4.584829275E0,2.301024955E0,1.829601001E1
5.429183667E0,-1.892563379E1,-3.188098440E0,4.699604856E0,1.975929836E1
5.439169667E0,-2.072706737E1,-1.138920372E0,7.541618881E0,2.208584336E1
5.449155667E0,-2.215860142E1,3.511407951E-1,1.017797581E1,2.438684293E1
5.459141667E0,-2.248302599E1,1.395837673E0,1.217204474E1,2.560456002E1
5.469127667E0,-2.110676451E1,2.077187546E0,1.345303988E1,2.511562259E1
5.479113667E0,-1.822883747E1,2.142673146E0,1.417807825E1,2.319265976E1
5.489099667E0,-1.411906815E1,1.447683033E0,1.424445585E1,2.010841600E1
5.499085667E0,-9.377297856E0,5.274685166E-1,1.371478231E1,1.662249054E1
5.509071667E0,-5.396294169E0,-9.886650565E-1,1.302774382E1,1.413575461E1
5.519058667E0,-2.246295016E0,-2.779969804E0,1.194047629E1,1.246390980E1
5.529044667E0,5.962625802E-1,-3.866501171E0,1.056326639E1,1.126445547E1
5.539030667E0,3.379323150E0,-4.597412191E0,9.075325420E0,1.071996060E1
5.549016667E0,5.574535428E0,-4.887884907E0,8.029210008E0,1.092863566E1
5.559002667E0,7.168971734E0,-4.945150491E0,7.630140463E0,1.157876127E1
5.568988667E0,8.684281179E0,-4.890589829E0,7.840281792E0,1.268087643E1
5.578974667E0,1.032380536E1,-4.393312205E0,8.458455278E0,1.405089374E1
5.588960667E0,1.141843805E1,-3.832615387E0,8.962316868E0,1.501308735E1
5.598946667E0,1.157849388E1,-3.513689534E0,8.987397915E0,1.507251990E1
5.608932667E0,1.082352011E1,-3.215154092E0,8.385218902E0,1.406405700E1
5.618918667E0,9.406996449E0,-3.257635575E0,7.488845420E0,1.245739048E1
5.628904667E0,7.850305674E0,-3.287592030E0,6.765165360E0,1.087212136E1
5.638890667E0,6.385693928E0,-3.163819047E0,6.440684068E0,9.605688375E0
5.648876667E0,5.333081675E0,-2.966505924E0,6.365025775E0,8.817906251E0
5.658862667E0,4.678272167E0,-2.826353427E0,6.359037057E0,8.385216541E0
5.668848667E0,4.312958890E0,-2.658240422E0,6.173155825E0,7.985969532E0
5.678834667E0,4.324146368E0,-2.357753472E0,5.501310747E0,7.383878600E0
5.688820667E0,4.413709339E0,-2.166949177E0,4.536323698E0,6.689897724E0
5.698806667E0,4.472059874E0,-2.157168832E0,3.538875246E0,6.097239941E0
5.708792667E0,4.465046723E0,-2.183911657E0,2.581080272E0,5.600722073E0
5.718778667E0,4.373947396E0,-2.258491870E0,1.717020258E0,5.213478677E0
5.728764667E0,4.186456718E0,-2.296988914E0,9.428687865E-1,4.867399663E0
5.738750667E0,3.881706563E0,-2.276468111E0,2.439353120E-1,4.506601529E0
5.748736667E0,3.463459613E0,-2.032005526E0,-5.105513889E-1,4.047871251E0
5.758722667E0,3.019249563E0,-1.656732249E0,-1.108725058E0,3.617996811E0
5.768708667E0,2.601687907E0,-1.295040592E0,-1.443485171E0,3.244928279E0
5.778694667E0,2.045692981E0,-1.027123071E0,-1.497335104E0,2.735297788E0
5.788680667E0,1.476994687E0,-8.574449126E-1,-1.369184017E0,2.188924383E0
5.798666667E0,9.314702243E-1,-6.622307941E-1,-1.084204760E0,1.575336905E0
5.808652667E0,5.270765705E-1,-5.191264768E-1,-7.490411890E-1,1.052789016E0
5.818638667E0,2.316221722E-1,-3.382826947E-1,-3.958336955E-1,5.698844854E-1
5.828624667E0,-7.203806229E-2,-1.354049961E-1,-5.550878763E-2,1.631110692E-1
5.838610667E0,-4.021161633E-1,6.967586026E-2,1.596979845E-1,4.382414637E-1
5.848596667E0,-5.580944415E-1,3.422214888E-1,3.753783810E-1,7.546481843E-1
5.858582667E0,-5.926789314E-1,5.672249784E-1,6.612604487E-1,1.053697240E0
5.868568667E0,-5.217944151E-1,6.911544118E-1,1.019608229E0,1.337746155E0
5.878554667E0,-4.085445191E-1,7.202663098E-1,1.401551864E0,1.627894287E0
5.888540750E0,-4.250509896E-1,6.209573454E-1,1.678768358E0,1.839706381E0
5.898526750E0,-4.890335622E-1,7.077447168E-1,1.736380389E0,1.937801142E0
5.908512750E0,-6.032255177E-1,8.360906618E-1,1.901701641E0,2.163191566E0
5.918498750E0,-6.463111648E-1,9.690457477E-1,2.171078188E0,2.463807680E0
5.928484750E0,-6.617516148E-1,1.081546031E0,2.490238515E0,2.794448939E0
5.938470750E0,-6.803729501E-1,1.072883600E0,2.741584003E0,3.021633567E0
5.948456750E0,-7.089333826E-1,1.021025448E0,2.805247318E0,3.068304421E0
5.958442750E0,-6.363667320E-1,9.334047025E-1,2.761295552E0,2.983447683E0
5.968428750E0,-5.630378238E-1,8.760240018E-1,2.766855084E0,2.956335012E0
5.978414750E0,-3.510317810E-1,9.308411369E-1,2.746608515E0,2.921223523E0
5.988401750E0,-7.744571351E-2,9.752270586E-1,2.773018634E0,2.940526824E0
5.998387750E0,1.440881845E-1,9.905512221E-1,2.887526413E0,3.056102405E0
6.008373750E0,3.812316632E-1,1.023804849E0,2.894433144E0,3.093744846E0
6.018359750E0,6.012590991E-1,9.385671361E-1,2.764089936E0,2.980371445E0
6.028345750E0,7.500830166E-1,7.447179770E-1,2.649098008E0,2.852183314E0
6.038331750E0,8.426105265E-1,4.624999208E-1,2.517273116E0,2.694543118E0
6.048317750E0,8.668114212E-1,5.658131316E-2,2.327911622E0,2.484700385E0
6.058303750E0,9.939627801E-1,-3.983890750E-1,2.115117411E0,2.370737760E0
6.068289750E0,1.191897754E0,-8.786217736E-1,1.857111944E0,2.375176046E0
6.078275750E0,1.476134123E0,-1.159468658E0,1.689899118E0,2.525687737E0
6.088261750E0,1.984092710E0,-1.370695376E0,1.569832976E0,2.877465077E0
6.098247750E0,2.588899169E0,-1.647560745E0,1.499020856E0,3.415247991E0
6.108233750E0,3.298581872E0,-1.767954769E0,1.595609842E0,4.068448992E0
6.118219750E0,4.174008581E0,-1.819013679E0,1.647955871E0,4.842201664E0
6.128205750E0,5.172367444E0,-1.946113437E0,1.546228352E0,5.738603018E0
6.138191750E0,6.014152490E0,-2.111759940E0,1.293764291E0,6.504105339E0
6.148177750E0,6.320921981E0,-2.485468356E0,9.520682108E-1,6.858428502E0
6.158163750E0,6.094257005E0,-2.885115021E0,5.043153334E-1,6.761522838E0
6.168149750E0,5.655408268E0,-3.150486810E0,-1.086938918E-2,6.473741419E0
6.178135750E0,5.016262574E0,-3.458836219E0,-4.037771380E-1,6.106510802E0
6.188121750E0,4.353418699E0,-3.680570531E0,-8.857818353E-1,5.769182200E0
6.198107750E0,3.833224082E0,-3.717420561E0,-1.294691074E0,5.494456066E0
6.208093750E0,3.272937446E0,-3.836151783E0,-1.685784432E0,5.316958640E0
6.218079750E0,2.686602634E0,-3.964707789E0,-2.243033440E0,5.288472424E0
6.228065750E0,2.124228542E0,-4.154543785E0,-2.708749548E0,5.395359587E0
6.238051750E0,1.669201144E0,-4.536604072E0,-3.053765092E0,5.717734709E0
6.248037750E0,1.590473063E0,-5.012279450E0,-3.444821028E0,6.286441105E0
6.258023750E0,1.820952178E0,-5.542235409E0,-3.880625120E0,7.006532059E0
6.268009750E0,1.895747421E0,-5.911903399E0,-4.392316716E0,7.605057937E0
6.277995750E0,1.865350086E0,-6.349547026E0,-4.980767051E0,8.282772410E0
6.287981750E0,1.842530158E0,-6.941166551E0,-5.486868709E0,9.037723093E0
6.297967750E0,1.671402036E0,-7.505556178E0,-5.921437284E0,9.705172735E0
6.307953750E0,8.058802181E-1,-8.212658213E0,-6.065452452E0,1.024143112E1
6.317939750E0,-1.320030568E0,-9.067645687E0,-6.609754554E0,1.129838636E1
6.327925750E0,-3.687621980E0,-9.189965345E0,-7.482475464E0,1.241134392E1
6.337911750E0,-5.432507145E0,-9.035598267E0,-7.970491683E0,1.321676616E1
6.347897750E0,-7.030618426E0,-9.104103661E0,-8.159099472E0,1.410266652E1
6.357883750E0,-8.474723402E0,-9.147216352E0,-8.263186927E0,1.495903613E1
6.367869750E0,-9.541662503E0,-8.933508221E0,-8.284019971E0,1.547500822E1
6.377855750E0,-1.072594762E1,-8.557549211E0,-7.876209424E0,1.582126025E1
6.387841750E0,-1.219738424E1,-8.111028342E0,-6.805122893E0,1.615161480E1
6.397827750E0,-1.415087467E1,-7.192354749E0,-5.166167641E0,1.669330731E1
6.407813750E0,-1.630396214E1,-5.565149478E0,-3.127663373E0,1.750920753E1
6.417799750E0,-1.778446077E1,-4.395837032E0,-1.149309998E0,1.835568963E1
6.427785750E0,-1.820868095E1,-3.416557927E0,9.398767662E-1,1.855026410E1
6.437771750E0,-1.779036646E1,-2.333824034E0,2.489993516E0,1.811474375E1
6.447758750E0,-1.696678380E1,-1.569734743E0,3.700296405E0,1.743639909E1
6.457744750E0,-1.615466752E1,-1.072278194E0,4.258393843E0,1.674087756E1
6.467730750E0,-1.565905051E1,-1.120895015E0,4.370355159E0,1.629608151E1
6.477716750E0,-1.551982246E1,-1.130547891E0,4.340350172E0,1.615492703E1
6.487702750E0,-1.522645128E1,-7.661530656E-1,4.304074046E0,1.584161805E1
6.497688750E0,-1.476903646E1,-2.516814110E-1,4.905435033E0,1.556441693E1
6.507674750E0,-1.377686103E1,-2.227123312E-1,5.324884463E0,1.477179390E1
6.517660750E0,-1.211833339E1,-2.712826665E-2,6.269534311E0,1.364411230E1
6.527646750E0,-1.002153238E1,3.981000763E-1,7.289798014E0,1.239882051E1
6.537632750E0,-7.721596178E0,1.262084588E-1,8.419311678E0,1.142470066E1
6.547618750E0,-4.969259731E0,-2.248017606E-1,9.442114826E0,1.067228235E1
6.557604750E0,-1.924454327E0,-3.606520588E-1,1.007529519E1,1.026377940E1
6.567590750E0,8.467232388E-1,-7.551598616E-2,1.034844904E1,1.038330585E1
6.577576750E0,2.820803835E0,3.484669364E-1,1.053519157E1,1.091185707E1
6.587562750E0,3.707592853E0,4.266635786E-1,1.040886832E1,1.105770438E1
6.597548750E0,4.388915683E0,1.331435855E-1,9.837460864E0,1.077292645E1
6.607534750E0,4.719386571E0,-4.526960405E-1,9.343293958E0,1.047734152E1
6.617520750E0,5.131715847E0,-1.172338526E0,8.938391815E0,1.037322194E1
6.627506750E0,5.787210356E0,-1.539217540E0,8.534481361E0,1.042585087E1
6.637492750E0,6.281445090E0,-1.648025160E0,8.409608808E0,1.062516163E1
6.647478750E0,6.431923184E0,-1.904553621E0,8.643767576E0,1.094128321E1
6.657464750E0,6.278617376E0,-1.941107489E0,8.901505825E0,1.106461659E1
6.667450750E0,6.001851118E0,-1.842342023E0,9.147480061E0,1.109472093E1
6.677436750E0,5.723803149E0,-1.558503704E0,9.314425669E0,1.104306940E1
6.687422750E0,5.524941099E0,-1.210296530E0,9.227271751E0,1.082276932E1
6.697408750E0,5.185109696E0,-9.687453470E-1,8.768678720E0,1.023296421E1
6.707394750E0,4.790985142E0,-9.199504785E-1,7.737375475E0,9.146957240E0
6.717380750E0,4.254094970E0,-1.156097080E0,6.202302441E0,7.609365285E0
6.727366750E0,3.636883351E0,-1.534647941E0,4.524324626E0,6.004296640E0
6.737352750E0,3.173039521E0,-1.829130678E0,2.860343292E0,4.647091842E0
6.747338750E0,2.692656841E0,-2.102459359E0,1.596384598E0,3.770832800E0
6.757324750E0,2.352709956E0,-2.382538211E0,5.098707730E-1,3.386989913E0
6.767310750E0,2.224481832E0,-2.375002904E0,-2.924531686E-1,3.267183355E0
6.777296750E0,2.143285349E0,-2.127586306E0,-5.889748299E-1,3.076879414E0
6.787282750E0,2.092946377E0,-1.800365008E0,-3.728962380E-1,2.785819503E0
6.797268750E0,1.886556329E0,-1.502795965E0,1.069765645E-1,2.414318637E0
6.807254750E0,1.701641935E0,-1.065384327E0,4.176730460E-1,2.050629126E0
6.817240750E0,1.594139852E0,-6.230577383E-1,5.619729728E-1,1.801470631E0
6.827226750E0,1.398186207E0,-2.599742246E-1,6.934768528E-1,1.582220406E0
6.837212750E0,1.157290204E0,4.690689387E-2,8.019310087E-1,1.408763364E0
6.847198750E0,7.261467815E-1,1.330772835E-1,8.646330410E-1,1.136920845E0
6.857184750E0,2.495237153E-1,3.079185789E-2,6.928120244E-1,7.370201653E-1
6.867170750E0,2.470667884E-3,-1.580870400E-1,3.268523383E-1,3.630841052E-1
6.877156750E0,-2.164110792E-1,-3.416626777E-1,-4.369214952E-2,4.067875914E-1
6.887142750E0,-3.180516209E-1,-4.314376840E-1,-3.283042020E-1,6.285530668E-1
6.897128542E0,-3.196532464E-1,-4.812799349E-1,-4.230507302E-1,7.160869319E-1
6.907114542E0,-3.525819875E-1,-4.624125049E-1,-3.097468936E-1,6.588493916E-1
6.917100542E0,-2.992079818E-1,-3.365581681E-1,1.053434372E-2,4.504528713E-1
6.927086542E0,-1.363049192E-1,-3.679917990E-2,4.670644766E-1,4.879369180E-1
6.937072542E0,7.261854462E-2,3.520119571E-1,9.901639903E-1,1.053380557E0
6.947058542E0,2.558938548E-1,5.941757090E-1,1.526912075E0,1.658308452E0
6.957044542E0,2.728518034E-1,7.044579969E-1,1.992590761E0,2.130992050E0
6.967031542E0,1.577769914E-1,7.213014863E-1,2.375442469E0,2.487548258E0
6.977017542E0,-1.602278701E-1,6.817675111E-1,2.651769601E0,2.742692459E0
6.987003542E0,-3.647533324E-1,6.297381091E-1,2.669676114E0,2.767089741E0
6.996989542E0,-3.514897276E-1,5.037657682E-1,2.486472323E0,2.561224237E0
7.006975542E0,-9.000582509E-2,3.463233472E-1,2.177366869E0,2.206573677E0
7.016961542E0,2.880170323E-1,3.840559049E-1,1.825040551E0,1.887121025E0
7.026947542E0,6.148304866E-1,3.893922566E-1,1.600756561E0,1.758426690E0
7.036933542E0,7.887086999E-1,3.082559267E-1,1.469670757E0,1.696176661E0
7.046919542E0,7.879257578E-1,1.833610084E-1,1.407619520E0,1.623527324E0
7.056905542E0,7.571065459E-1,9.109348029E-2,1.281408539E0,1.491145931E0
7.066891542E0,7.378718376E-1,-1.936875567E-2,1.084800006E0,1.312105579E0
7.076877542E0,6.819331335E-1,-1.838755634E-1,9.833736187E-1,1.210729819E0
7.086863542E0,6.522881155E-1,-1.366017750E-1,9.826292682E-1,1.187307925E0
7.096849542E0,7.530497476E-1,-8.034717500E-2,9.834858853E-1,1.241283238E0
7.106835542E0,9.571350425E-1,-2.461791810E-1,9.712581879E-1,1.385660184E0
7.116821542E0,1.176437204E0,-4.266833860E-1,9.696718383E-1,1.583138238E0
7.126807542E0,1.391414108E0,-4.492273260E-1,9.568518180E-1,1.747399156E0
7.136793542E0,1.686355559E0,-4.430843143E-1,9.812002087E-1,2.000718029E0
7.146779542E0,2.007774665E0,-4.304475311E-1,1.027481505E0,2.296118992E0
7.156765542E0,2.272086646E0,-4.487197146E-1,1.028541605E0,2.534092529E0
7.166751542E0,2.414684595E0,-4.780917406E-1,1.039982852E0,2.672234596E0
7.176737542E0,2.467387596E0,-5.769628948E-1,1.047255619E0,2.741830057E0
7.186723542E0,2.467824675E0,-7.606416263E-1,9.983565241E-1,2.768654919E0
7.196709542E0,2.477434282E0,-1.179043528E0,7.478968889E-1,2.843795706E0
7.206695542E0,2.646936877E0,-1.608518594E0,4.046255690E-1,3.123672318E0
7.216681542E0,3.024797694E0,-1.844530929E0,-1.064678568E-1,3.544436604E0
7.226667542E0,3.509205597E0,-1.844359020E0,-5.688381886E-1,4.004967041E0
7.236653542E0,3.944498350E0,-1.693110847E0,-8.794416994E-1,4.381678820E0
7.246639542E0,4.115818260E0,-1.738410250E0,-1.091859350E0,4.599368108E0
7.256625542E0,4.099810630E0,-1.806480465E0,-1.159051459E0,4.627658064E0
7.266611542E0,3.849143127E0,-1.755374777E0,-1.040019105E0,4.356476002E0
7.276597542E0,3.515313598E0,-1.774989408E0,-6.297410327E-1,3.988056025E0
7.286583542E0,3.564556510E0,-1.708421928E0,-1.020204645E-1,3.954134136E0
7.296569542E0,4.093328992E0,-1.629101524E0,2.241459954E-1,4.411298611E0
7.306555542E0,4.756919264E0,-1.805268483E0,3.430081952E-1,5.099502897E0
7.316541542E0,5.386360334E0,-2.100412541E0,2.341114050E-1,5.786140220E0
7.326527542E0,5.796699218E0,-2.390262821E0,-5.002749074E-1,6.290099614E0
7.336513542E0,5.749866529E0,-3.097479754E0,-1.319669210E0,6.663097834E0
7.346499542E0,5.451677241E0,-4.127042283E0,-2.346250244E0,7.228980077E0
7.356485542E0,4.835166119E0,-5.234878272E0,-3.529929591E0,7.952558383E0
7.366471542E0,3.949418197E0,-6.034658675E0,-4.763972760E0,8.643520456E0
7.376457542E0,2.916567779E0,-6.627325437E0,-5.708923155E0,9.220608095E0
7.386443542E0,1.676074546E0,-7.128955729E0,-6.483404410E0,9.780887915E0
7.396429542E0,7.185491288E-1,-7.249475614E0,-7.112204626E0,1.018109347E1
7.406415542E0,-4.851551771E-2,-7.198536426E0,-7.402252250E0,1.032543553E1
7.416401542E0,-6.754288369E-1,-7.360724739E0,-7.289813801E0,1.038161153E1
7.426387542E0,-1.555542966E0,-7.648154565E0,-7.007987947E0,1.048932206E1
7.436373542E0,-2.767160309E0,-7.969992331E0,-6.741316321E0,1.079922681E1
7.446359542E0,-4.378430164E0,-8.506262113E0,-6.784919593E0,1.172869472E1
7.456345542E0,-6.256763408E0,-8.885689691E0,-6.845643513E0,1.284388589E1
7.466331542E0,-7.695846795E0,-8.880725990E0,-6.776001420E0,1.356493816E1
7.476317542E0,-9.190399793E0,-8.649829384E0,-6.320380529E0,1.411489308E1
7.486303542E0,-1.080669065E1,-8.148862166E0,-5.524449348E0,1.461875706E1
7.496289542E0,-1.251812390E1,-7.444942771E0,-4.624644136E0,1.528129354E1
7.506275542E0,-1.424428043E1,-6.757742904E0,-3.653098850E0,1.618368763E1
7.516261542E0,-1.618937426E1,-6.393446167E0,-2.439126833E0,1.757615807E1
7.526247542E0,-1.838571008E1,-5.302487873E0,-7.601649320E-1,1.915015831E1
7.536234542E0,-1.998055101E1,-3.845441547E0,1.085553128E0,2.037616905E1
7.546220542E0,-2.058964143E1,-2.868858884E0,3.034661654E0,2.100887567E1
7.556206542E0,-2.009238486E1,-1.407879721E0,5.168196040E0,2.079414112E1
7.566192542E0,-1.857995107E1,-3.008849998E-1,6.752647641E0,1.977127623E1
7.576178542E0,-1.680440545E1,-4.952884018E-2,7.891850141E0,1.856533852E1
7.586164542E0,-1.510956777E1,1.455002140E-1,8.503100524E0,1.733848111E1
7.596150542E0,-1.329382371E1,3.687482963E-1,8.187671306E0,1.561728804E1
7.606136542E0,-1.159285815E1,1.856822068E-1,7.489447684E0,1.380292232E1
7.616122542E0,-9.993801377E0,-8.343998663E-2,7.070606364E0,1.224240591E1
7.626108542E0,-8.330297760E0,-5.665069403E-1,6.878445223E0,1.081793879E1
7.636094542E0,-6.341842734E0,-9.375975946E-1,6.895221469E0,9.414995360E0
7.646080542E0,-3.899800772E0,-7.286392303E-1,7.010196440E0,8.054949740E0
7.656066542E0,-1.458584436E0,-4.564516706E-1,7.196375295E0,7.356876652E0
7.666052542E0,9.181702206E-1,-5.300446902E-1,7.582441801E0,7.656200598E0
7.676038542E0,3.008680136E0,-6.951107110E-1,8.367667315E0,8.919259574E0
7.686024542E0,4.580760490E0,-9.532798270E-1,8.892014624E0,1.004788700E1
7.696010542E0,5.943350310E0,-1.267809231E0,9.010592650E0,1.086837306E1
7.705996542E0,7.125611122E0,-1.590708998E0,8.832492893E0,1.145939002E1
7.715982542E0,8.101929490E0,-1.622592403E0,8.202338462E0,1.164269830E1
7.725968542E0,8.859345646E0,-1.588096024E0,7.462665097E0,1.169193845E1
7.735954542E0,9.254256651E0,-1.640836593E0,6.652073193E0,1.151449906E1
7.745940542E0,9.210458082E0,-1.596923127E0,5.830691421E0,1.101724394E1
7.755926542E0,8.528220162E0,-1.642658147E0,5.145951478E0,1.009503252E1
7.765912542E0,7.517110861E0,-1.749302590E0,4.821546784E0,9.100237834E0
7.775898542E0,6.467192420E0,-1.771758675E0,4.831882322E0,8.265034384E0
7.785884542E0,5.549307616E0,-1.590313142E0,4.923461414E0,7.587119559E0
7.795870542E0,4.853478429E0,-1.209641496E0,4.918665528E0,7.015180395E0
7.805856542E0,4.405239648E0,-7.516216383E-1,4.901657147E0,6.633047130E0
7.815842542E0,3.973135381E0,-4.629799772E-1,4.863489447E0,6.297117183E0
7.825828542E0,3.522205419E0,-3.192087118E-1,4.761784147E0,5.931476501E0
7.835814542E0,3.034483607E0,-3.766849414E-1,4.342783783E0,5.311285465E0
7.845800542E0,2.518292871E0,-5.703898570E-1,3.605521225E0,4.434740903E0
7.855786542E0,2.077082150E0,-6.324171571E-1,2.610790560E0,3.395651494E0
7.865772542E0,1.668469219E0,-5.221779194E-1,1.568284049E0,2.348611116E0
7.875758542E0,1.189695839E0,-6.033500634E-1,7.373666382E-1,1.524177499E0
7.885744542E0,6.753670026E-1,-7.914772835E-1,1.146147823E-1,1.046753757E0
7.895730250E0,2.455639078E-1,-9.461460046E-1,-2.117592537E-1,1.000167924E0
7.905716250E0,-6.513330460E-2,-9.769907981E-1,-2.488879037E-1,1.010296271E0
7.915702250E0,-1.549880522E-1,-8.419930606E-1,1.686512411E-2,8.563048772E-1
7.925688250E0,-1.896735893E-1,-5.427113308E-1,6.028648907E-1,8.330412568E-1
7.935674250E0,-2.172554903E-1,-1.105612366E-1,1.309445938E0,1.331943092E0
7.945660250E0,-2.476751912E-1,2.546905343E-1,2.036338459E0,2.067095689E0
7.955646250E0,-2.710096747E-1,5.552317909E-1,2.569129733E0,2.642376992E0
7.965632250E0,-1.970176191E-1,8.181292579E-1,2.976516357E0,3.093186229E0
7.975618250E0,-1.403969834E-1,1.007385429E0,3.284962245E0,3.438824460E0
7.985604250E0,3.144998029E-3,1.023073509E0,3.482652513E0,3.629815123E0
7.995590250E0,3.151378072E-1,8.216791025E-1,3.523507594E0,3.631745331E0
8.005576250E0,5.318889751E-1,5.680515189E-1,3.422091147E0,3.509458110E0
8.015562250E0,7.282729022E-1,4.000554583E-1,3.274040231E0,3.377834399E0
8.025548250E0,9.610564046E-1,2.135892861E-1,3.058513032E0,3.213059564E0
8.035534250E0,1.077116472E0,9.775484763E-3,3.011925341E0,3.198745022E0
8.045520250E0,1.172802283E0,8.405745260E-2,2.957674874E0,3.182824455E0
8.055506250E0,1.312533561E0,2.896560251E-1,2.899429005E0,3.195830645E0
8.065492250E0,1.416748485E0,4.564339462E-1,2.922520829E0,3.279731119E0
8.075478250E0,1.513050373E0,6.014198244E-1,3.038872234E0,3.447574755E0
8.085464250E0,1.506148758E0,7.576385694E-1,3.161591257E0,3.583037756E0
8.095450250E0,1.418811821E0,7.855680873E-1,3.152818680E0,3.545477377E0
8.105436250E0,1.231245130E0,6.323513760E-1,3.133847973E0,3.425906589E0
8.115423250E0,9.925322588E-1,3.517580052E-1,3.053449928E0,3.229924216E0
8.125409250E0,6.895136100E-1,-4.645404529E-2,2.833737876E0,2.916788876E0
8.135395250E0,4.081153335E-1,-3.081593015E-1,2.609670818E0,2.659304807E0
8.145381250E0,3.428919818E-1,-4.107872918E-1,2.398460618E0,2.457424352E0
8.155367250E0,5.123906305E-1,-4.293390452E-1,2.075204317E0,2.180217680E0
8.165353250E0,6.583926818E-1,-4.548596565E-1,1.873749611E0,2.037477813E0
8.175339250E0,7.420926502E-1,-5.343951648E-1,1.556594880E0,1.805344099E0
8.185325250E0,7.975736636E-1,-7.885895629E-1,1.288511152E0,1.708291028E0
8.195311250E0,6.872992694E-1,-1.069015155E0,1.045049465E0,1.645388122E0
8.205297250E0,7.771971403E-1,-9.787958336E-1,6.156580138E-1,1.393237765E0
8.215283250E0,9.502158129E-1,-1.037840140E0,1.756304777E-1,1.418050885E0
8.225269250E0,9.465294358E-1,-1.383523144E0,-1.648031884E-1,1.684403264E0
8.235255250E0,1.112444472E0,-1.506542568E0,-5.319212079E-1,1.946829059E0
8.245241250E0,1.477616831E0,-1.516623314E0,-8.438695782E-1,2.279388874E0
8.255227250E0,2.000940293E0,-1.626437094E0,-1.069928783E0,2.791739113E0
8.265213250E0,2.554849955E0,-1.902101737E0,-1.126008843E0,3.378334682E0
8.275199250E0,3.179552734E0,-2.249677631E0,-1.277234797E0,4.099016194E0
8.285185250E0,3.773837421E0,-2.554417846E0,-1.571978320E0,4.820582460E0
8.295171250E0,4.238268604E0,-2.895691172E0,-1.969087878E0,5.497750012E0
8.305157250E0,4.532696377E0,-3.008764044E0,-2.400777285E0,5.946572886E0
8.315143250E0,4.449792507E0,-2.998907977E0,-2.833641397E0,6.068247356E0
8.325129250E0,4.042685380E0,-3.159142151E0,-3.072711241E0,5.980387829E0
8.335115250E0,3.509736816E0,-3.326650262E0,-3.128246341E0,5.759407925E0
8.345101250E0,3.094118482E0,-3.343411598E0,-3.164423649E0,5.546669931E0
8.355087250E0,2.787391675E0,-3.315125984E0,-3.193294861E0,5.381147156E0
8.365073250E0,2.629471244E0,-3.333398533E0,-3.246620883E0,5.344736847E0
8.375059250E0,2.462851911E0,-3.438707179E0,-3.303388576E0,5.366816811E0
8.385045250E0,2.450838221E0,-3.465472224E0,-3.509501173E0,5.507513433E0
8.395031250E0,2.569154876E0,-3.636313832E0,-3.794516099E0,5.849930554E0
8.405017250E0,2.750258347E0,-3.945562251E0,-4.181726321E0,6.373242305E0
8.415003250E0,3.075581054E0,-4.034461564E0,-4.639855667E0,6.874906511E0
8.424989250E0,3.174030624E0,-4.179916900E0,-4.900436833E0,7.180561040E0
8.434975250E0,3.057115547E0,-4.746866730E0,-5.020804106E0,7.555605409E0
8.444961250E0,2.769881603E0,-5.587211022E0,-5.261798269E0,8.159392877E0
8.454947250E0,2.065678033E0,-6.350179110E0,-6.014310365E0,8.986864282E0
8.464933250E0,1.286787393E0,-6.990511204E0,-6.942244193E0,9.935684331E0
8.474919250E0,3.729026699E-1,-7.585302844E0,-7.397024254E0,1.060150194E1
8.484905250E0,-1.028641008E0,-7.904404113E0,-8.086775261E0,1.135489502E1
8.494891250E0,-2.543928818E0,-8.133818450E0,-8.551486233E0,1.207304822E1
8.504877250E0,-4.057877031E0,-8.371444032E0,-8.721023912E0,1.275161555E1
8.514863250E0,-5.756095567E0,-8.554076550E0,-8.701730440E0,1.349166315E1
8.524849250E0,-7.323648714E0,-8.645144010E0,-8.180724814E0,1.397492769E1
8.534835250E0,-8.733085549E0,-8.476641873E0,-7.099968742E0,1.409006021E1
8.544821250E0,-1.022703278E1,-7.773693116E0,-5.566975563E0,1.400049003E1
8.554807250E0,-1.190752489E1,-6.411601186E0,-4.003143584E0,1.410400430E1
8.564793250E0,-1.312840715E1,-5.135499580E0,-2.560297514E0,1.432771976E1
8.574779250E0,-1.403105469E1,-3.954938261E0,-1.302189544E0,1.463583718E1
8.584765250E0,-1.507689002E1,-3.032477134E0,-2.486610317E-1,1.538084402E1
8.594751250E0,-1.635546676E1,-2.341775078E0,9.046677572E-1,1.654701263E1
8.604737250E0,-1.739287274E1,-1.846531992E0,1.907793855E0,1.759435648E1
8.614723250E0,-1.753179323E1,-1.347959501E0,2.694106951E0,1.778873185E1
8.624709250E0,-1.667592341E1,-5.286369731E-1,3.440260785E0,1.703529492E1
8.634695250E0,-1.519254795E1,-4.715764806E-2,4.043070711E0,1.572139173E1
8.644681250E0,-1.332721131E1,4.002579913E-1,4.705543288E0,1.413919748E1
8.654667250E0,-1.130575285E1,1.072579837E0,5.575593190E0,1.265139180E1
8.664653250E0,-9.430825607E0,1.434151846E0,6.297510899E0,1.143048147E1
8.674639250E0,-7.663005323E0,1.512472960E0,7.028909869E0,1.050784464E1
8.684625250E0,-5.904936442E0,1.436603875E0,7.474494014E0,9.633284271E0
8.694611250E0,-4.420203842E0,9.990457647E-1,7.481720003E0,8.747138312E0
8.704597250E0,-3.071773055E0,5.572888779E-1,7.035476877E0,7.697031602E0
8.714583250E0,-1.882516342E0,1.574998882E-1,6.350134086E0,6.625169953E0
8.724569250E0,-1.014287556E0,-2.456186158E-1,5.635128370E0,5.730949267E0
8.734555250E0,-1.572715361E-1,-4.278952946E-1,5.076068480E0,5.096498792E0
8.744541250E0,6.944656169E-1,-5.259742607E-1,5.073112713E0,5.147368649E0
8.754527250E0,1.729978127E0,-5.005514076E-1,5.568671256E0,5.852646887E0
8.764513250E0,2.950182837E0,-3.365733709E-1,6.492890933E0,7.139642363E0
8.774499250E0,4.186584188E0,-2.817893822E-2,7.499189145E0,8.588720455E0
8.784485250E0,5.242366802E0,3.177019940E-1,8.184900895E0,9.725016550E0
8.794472250E0,5.838110368E0,5.517450597E-1,8.472036021E0,1.030356005E1
8.804458250E0,5.790673077E0,5.386913700E-1,8.265056282E0,1.010609907E1
8.814444250E0,5.315392093E0,3.509721760E-1,7.624317806E0,9.300902998E0
8.824430250E0,4.586806219E0,-2.470200107E-2,6.703107106E0,8.122256235E0
8.834416250E0,3.912462040E0,-3.313601030E-1,5.757297170E0,6.968760969E0
8.844402250E0,3.440600508E0,-4.964869349E-1,5.071600623E0,6.148606672E0
8.854388250E0,3.040317666E0,-7.242363500E-1,4.745092101E0,5.681896589E0
8.864374250E0,2.769703848E0,-9.896570367E-1,4.637775228E0,5.491779267E0
8.874360250E0,2.582780058E0,-1.231761878E0,4.588073310E0,5.407255020E0
8.884346250E0,2.455489389E0,-1.466063902E0,4.427698803E0,5.270985505E0
8.894332292E0,2.566463695E0,-1.457995183E0,4.069034103E0,5.026880184E0
8.904318292E0,2.686300333E0,-1.127790197E0,3.791595415E0,4.781664564E0
8.914304292E0,2.614128150E0,-7.686155473E-1,3.737139126E0,4.625002129E0
8.924290292E0,2.406233614E0,-5.354549727E-1,3.644966542E0,4.400278778E0
8.934276292E0,2.043665605E0,-4.296642235E-1,3.461499041E0,4.042666949E0
8.944262292E0,1.762446692E0,-3.673619945E-1,3.194968334E0,3.667287258E0
8.954248292E0,1.416423088E0,-4.516183256E-1,2.941174031E0,3.295560371E0
8.964234292E0,1.046592106E0,-5.267271262E-1,2.709542431E0,2.952019086E0
8.974220292E0,8.847211504E-1,-5.323642441E-1,2.473276911E0,2.680157063E0
8.984206292E0,8.248078014E-1,-4.882076430E-1,2.252265608E0,2.447724450E0
8.994192292E0,8.001040462E-1,-4.617851718E-1,2.165420423E0,2.354242476E0
9.004178292E0,7.953768647E-1,-4.166795310E-1,2.197477198E0,2.373847557E0
9.014164292E0,6.603684559E-1,-2.728944515E-1,2.412123222E0,2.515729778E0
9.024150292E0,5.497739267E-1,6.915794313E-3,2.780322391E0,2.834165097E0
9.034136292E0,5.534794535E-1,3.279351696E-1,3.018456681E0,3.086253670E0
9.044122292E0,6.478916672E-1,4.630484993E-1,3.089012693E0,3.190012060E0
9.054108292E0,7.350048016E-1,4.591385027E-1,3.069950185E0,3.189927015E0
9.064094292E0,8.626993668E-1,4.018935306E-1,2.789629989E0,2.947508114E0
9.074080292E0,9.581520925E-1,1.620261995E-1,2.463169414E0,2.647925884E0
9.084066292E0,1.111029300E0,-3.138091005E-2,2.085311814E0,2.363026921E0
9.094052292E0,1.274394366E0,-1.051270537E-1,1.754081665E0,2.170699239E0
9.104038292E0,1.355127311E0,-2.528113488E-1,1.620244161E0,2.127316326E0
9.114024292E0,1.397708635E0,-4.329490065E-1,1.468738126E0,2.073216331E0
9.124010292E0,1.564558203E0,-5.845801357E-1,1.236274467E0,2.077967965E0
9.133996292E0,1.813879386E0,-6.410692091E-1,1.000979585E0,2.168660482E0
9.143982292E0,2.038588175E0,-5.852599111E-1,7.997564292E-1,2.266711552E0
9.153968292E0,2.306491078E0,-4.647969995E-1,6.379095930E-1,2.437799416E0
9.163954292E0,2.459200909E0,-2.962973475E-1,5.022840106E-1,2.527399940E0
9.173940292E0,2.510267859E0,-2.319435864E-1,3.235603559E-1,2.541639994E0
9.183926292E0,2.465367383E0,-2.586800896E-1,1.500606036E-1,2.483439129E0
9.193912292E0,2.273681474E0,-3.621661587E-1,3.065110445E-3,2.302346883E0
9.203898292E0,2.012097511E0,-5.085429799E-1,-1.428504020E-1,2.080278490E0
9.213884292E0,1.770812303E0,-6.151332262E-1,-3.483069420E-1,1.906694214E0
9.223870292E0,1.673200347E0,-6.123078516E-1,-5.208173454E-1,1.856278808E0
9.233856292E0,1.690028634E0,-5.361807218E-1,-6.646389699E-1,1.893523570E0
9.243842292E0,1.570505552E0,-5.026390097E-1,-6.496741909E-1,1.772345965E0
9.253828292E0,1.471701203E0,-3.351268794E-1,-5.289245099E-1,1.599367248E0
9.263814292E0,1.315504677E0,-1.911027402E-1,-1.971271813E-1,1.343849671E0
9.273800292E0,9.803551398E-1,-2.529031319E-1,4.099652463E-1,1.092303849E0
9.283786292E0,7.299579236E-1,-2.787869466E-1,1.093130534E0,1.343687128E0
9.293772292E0,7.036398983E-1,-3.125395969E-1,1.699801962E0,1.866043091E0
9.303758292E0,7.804199794E-1,-3.312267865E-1,2.373730404E0,2.520587741E0
9.313744292E0,8.284371682E-1,-2.267573984E-2,3.181360109E0,3.287533190E0
9.323730292E0,8.826507975E-1,3.367131559E-1,3.919174059E0,4.031423258E0
9.333716292E0,8.923144908E-1,5.863499417E-1,4.796230094E0,4.913639641E0
9.343702292E0,7.427813061E-1,9.759896086E-1,5.581691251E0,5.714854067E0
9.353688292E0,4.497650506E-1,1.215489296E0,6.042484004E0,6.179912278E0
9.363674292E0,1.575438702E-1,1.428413534E0,6.173481515E0,6.338537632E0
9.373660292E0,-1.839631985E-1,1.551878955E0,5.875964658E0,6.080224618E0
9.383646292E0,-6.217993444E-1,1.367954932E0,5.287126653E0,5.496511927E0
9.393632292E0,-9.629147959E-1,1.134663599E0,4.454379063E0,4.696398538E0
9.403618292E0,-1.247789681E0,9.248988310E-1,3.702760422E0,4.015327094E0
9.413604292E0,-1.522551221E0,6.816911318E-1,2.969438303E0,3.405940230E0
9.423590292E0,-1.601278718E0,5.761833879E-1,2.224565009E0,2.800851711E0
9.433576292E0,-1.512363910E0,5.901838879E-1,1.788948027E0,2.415760059E0
9.443562292E0,-1.308302515E0,4.377443446E-1,1.603370267E0,2.115200178E0
9.453548292E0,-1.077665526E0,5.671009809E-2,1.351434794E0,1.729437777E0
9.463534292E0,-5.689782295E-1,-6.469985050E-1,8.939451331E-1,1.241564010E0
9.473520292E0,1.628832552E-1,-1.806241899E0,-1.756398332E-1,1.822056559E0
9.483506292E0,1.339029926E0,-2.555732592E0,-1.670084658E0,3.333759588E0
9.493492292E0,2.686933002E0,-3.027329538E0,-3.250656631E0,5.191445042E0
9.503478292E0,4.123191599E0,-3.377427190E0,-4.588759189E0,7.033095640E0
9.513464292E0,5.568847257E0,-3.742550432E0,-5.641692454E0,8.766267008E0
9.523450292E0,6.802389320E0,-4.394356225E0,-6.457595969E0,1.035777065E1
9.533436292E0,7.543957182E0,-5.115409716E0,-6.994294353E0,1.148907568E1
9.543422292E0,7.412177314E0,-6.337985326E0,-7.280602682E0,1.217035768E1
9.553408292E0,7.150651823E0,-6.926728606E0,-8.270884202E0,1.294290988E1
9.563395292E0,7.117663001E0,-7.559369273E0,-8.757431601E0,1.358299667E1
9.573380292E0,6.991130424E0,-8.501973181E0,-9.303159839E0,1.441208644E1
9.583367292E0,6.644723243E0,-9.180603953E0,-9.937705529E0,1.507295018E1
9.593353292E0,5.782587547E0,-9.702797148E0,-1.035548792E1,1.532379592E1
9.603339292E0,4.471235417E0,-1.021708081E1,-1.037860664E1,1.523470257E1
9.613325292E0,2.844037161E0,-1.055340798E1,-1.020880817E1,1.495602660E1
9.623311292E0,1.292549239E0,-1.053083422E1,-9.791026370E0,1.443722100E1
9.633297292E0,1.838832378E-2,-1.066609552E1,-9.053337550E0,1.399031281E1
9.643283292E0,-8.640904194E-1,-1.082251556E1,-8.020302359E0,1.349810154E1
9.653269292E0,-1.664352633E0,-1.072421801E1,-7.007328966E0,1.291826540E1
9.663255292E0,-2.859238168E0,-1.058428947E1,-6.185270087E0,1.258808931E1
9.673241292E0,-4.464770735E0,-1.040281879E1,-5.735939630E0,1.269069817E1
9.683227292E0,-6.134805107E0,-1.005368388E1,-5.296849403E0,1.291390750E1
9.693213292E0,-8.139116027E0,-9.837189553E0,-4.870462251E0,1.366517144E1
9.703199292E0,-1.070112151E1,-9.877035989E0,-4.457459376E0,1.522953662E1
9.713185292E0,-1.376381472E1,-9.542405684E0,-3.969340246E0,1.721208191E1
9.723171292E0,-1.696813918E1,-8.476716133E0,-3.491378898E0,1.928632133E1
9.733157292E0,-1.973566260E1,-7.147036489E0,-2.544571427E0,2.114358893E1
9.743143292E0,-2.138425231E1,-5.690000980E0,-1.450544515E0,2.217580748E1
9.753129292E0,-2.143908282E1,-4.295594414E0,4.225782752E-3,2.186518743E1
9.763115292E0,-2.007654358E1,-2.893971214E0,1.727217802E0,2.035745448E1
9.773101292E0,-1.814202386E1,-2.050740444E0,3.019041402E0,1.850549046E1
9.783087292E0,-1.599473331E1,-2.077097499E0,3.859308511E0,1.658433266E1
9.793073292E0,-1.388504621E1,-2.113062992E0,4.441879470E0,1.473057489E1
9.803059292E0,-1.167940162E1,-1.763890077E0,4.740330128E0,1.272754730E1
9.813045292E0,-9.749195389E0,-1.289168525E0,5.209170404E0,1.112853191E1
9.823031292E0,-8.350216885E0,-6.800381970E-1,5.949854168E0,1.027566731E1
9.833017292E0,-7.521806175E0,5.242117911E-3,6.996033314E0,1.027239396E1
9.843003292E0,-6.744253378E0,4.658994189E-1,8.072855964E0,1.052962579E1
9.852989292E0,-5.574455906E0,9.319730117E-1,8.841684131E0,1.049373673E1
9.862975292E0,-4.252964703E0,1.361624006E0,9.421912696E0,1.042660863E1
9.872961292E0,-3.041200011E0,1.332215581E0,9.807716662E0,1.035446773E1
9.882947292E0,-1.909128336E0,8.909009264E-1,9.912127469E0,1.013354560E1
9.892933000E0,-5.038414896E-1,5.212384911E-1,9.748570907E0,9.775488762E0
9.902919000E0,9.663417759E-1,1.946747129E-1,9.821059424E0,9.870406419E0
9.912905000E0,2.319207749E0,-1.586545488E-1,9.919014319E0,1.018777409E1
9.922891000E0,3.770826105E0,-1.923845047E-1,9.712216428E0,1.042033057E1
9.932877000E0,5.144005525E0,-1.391092072E-1,9.151915759E0,1.049941457E1
9.942863000E0,6.075544161E0,-4.380473766E-1,8.339038178E0,1.032684270E1
9.952849000E0,6.469406176E0,-8.490874873E-1,7.429686801E0,9.888094447E0
9.962835000E0,6.648626844E0,-1.416823622E0,6.631151855E0,9.496515309E0
9.972821000E0,6.804923503E0,-1.909530040E0,6.176872900E0,9.386535446E0
9.982807000E0,6.883269761E0,-2.268321624E0,6.050461360E0,9.441015213E0
9.992793000E0,6.969589282E0,-2.407926090E0,6.243945726E0,9.662305162E0
1.000277900E1,6.973211632E0,-2.028760760E0,6.439656712E0,9.706221162E0
1.001276500E1,7.005774191E0,-1.469841642E0,6.507980842E0,9.674457148E0
1.002275100E1,6.793578150E0,-9.637114790E-1,6.423984420E0,9.399415925E0
1.003273700E1,6.160831649E0,-6.278367408E-1,6.126402658E0,8.711075428E0
1.004272300E1,5.383588754E0,-6.326810127E-1,5.578086442E0,7.778069265E0
1.005270900E1,4.658346610E0,-6.656005445E-1,4.679901493E0,6.636617754E0
1.006269500E1,3.941864179E0,-8.102635834E-1,3.519428576E0,5.346138587E0
1.007268100E1,3.261989120E0,-1.082083536E0,2.298170344E0,4.134375978E0
1.008266700E1,2.789977606E0,-1.199459227E0,1.198278090E0,3.264743154E0
1.009265300E1,2.554626299E0,-1.109144450E0,2.329138952E-1,2.794738954E0
1.010263900E1,2.443292682E0,-1.176687246E0,-3.652761465E-1,2.736365960E0
1.011262500E1,2.451592512E0,-1.189608131E0,-7.347628731E-1,2.822295135E0
1.012261100E1,2.599221551E0,-1.002484951E0,-8.863221180E-1,2.923439010E0
1.013259700E1,2.563597682E0,-8.078934145E-1,-6.867508006E-1,2.774229894E0
1.014258300E1,2.423911939E0,-6.391531496E-1,-2.075837570E-1,2.515344282E0
1.015256900E1,2.183237473E0,-4.356218053E-1,3.545248711E-1,2.254324756E0
1.016255500E1,1.848541095E0,-2.438420489E-1,6.836821818E-1,1.985946739E0
1.017254100E1,1.466937622E0,-8.228581935E-2,6.980546379E-1,1.626639856E0
1.018252700E1,1.042302297E0,-3.104140610E-3,5.021559566E-1,1.156963404E0
1.019251300E1,5.281576841E-1,-7.270442560E-2,2.054325664E-1,5.713484157E-1
1.020249900E1,-1.675351538E-2,-2.413202179E-1,-2.665798241E-1,3.599735136E-1
1.021248500E1,-4.025897147E-1,-4.079817246E-1,-7.678148443E-1,9.581582338E-1
1.022247100E1,-6.530023529E-1,-4.303972451E-1,-1.106149360E0,1.354703018E0
1.023245700E1,-8.343419789E-1,-3.990603353E-1,-1.018147010E0,1.375499554E0
1.024244300E1,-9.314073667E-1,-2.221333838E-1,-5.357113731E-1,1.097200801E0
1.025242900E1,-8.465579818E-1,8.313015729E-2,8.209607720E-2,8.545822404E-1
1.026241500E1,-6.789066877E-1,4.462482427E-1,6.356063747E-1,1.031526659E0
1.027240100E1,-6.229923957E-1,7.605618849E-1,1.069159874E0,1.452472630E0
1.028238700E1,-7.698149575E-1,9.549997124E-1,1.365235392E0,1.835349339E0
1.029237300E1,-1.081416003E0,9.471335263E-1,1.495013759E0,2.074027152E0
1.030235900E1,-1.429046495E0,7.962166710E-1,1.393341204E0,2.148844942E0
1.031234500E1,-1.757910714E0,6.989466307E-1,1.206615635E0,2.243813219E0
1.032233100E1,-2.068749868E0,7.187694226E-1,1.215313953E0,2.504664349E0
1.033231700E1,-2.352696946E0,8.111150841E-1,1.457505040E0,2.883992292E0
1.034230300E1,-2.552891723E0,1.001939113E0,1.770297164E0,3.264213563E0
1.035228900E1,-2.701865329E0,1.178518594E0,2.076236935E0,3.605515517E0
1.036227500E1,-3.005655372E0,1.324894575E0,2.398912023E0,4.067442531E0
1.037226100E1,-3.145678060E0,1.474854460E0,2.693262613E0,4.395924207E0
1.038224700E1,-3.170136086E0,1.416876247E0,2.881313161E0,4.512124404E0
1.039223300E1,-3.198533381E0,1.164385727E0,3.045600625E0,4.567504032E0
1.040221900E1,-2.893209029E0,9.942467355E-1,3.032068999E0,4.307276108E0
1.041220500E1,-2.490052281E0,7.970381317E-1,3.101385986E0,4.056380798E0
1.042219100E1,-1.926312864E0,7.203480247E-1,3.382354054E0,3.958522638E0
1.043217700E1,-1.175787871E0,8.126194265E-1,3.748965120E0,4.012177329E0
1.044216400E1,-2.647980130E-1,9.136161898E-1,4.140335636E0,4.248198642E0
1.045215000E1,5.954367341E-1,8.531253552E-1,4.676255170E0,4.790587666E0
1.046213600E1,1.455480588E0,5.945142628E-1,5.200922322E0,5.433365803E0
1.047212200E1,2.443307592E0,2.792017700E-1,5.449393904E0,5.978595114E0
1.048210800E1,3.567370482E0,-4.432397772E-2,5.276118100E0,6.369106607E0
1.049209400E1,4.719284829E0,-2.736708521E-1,4.664230955E0,6.640903210E0
1.050208000E1,5.566952174E0,-4.179913903E-1,3.791113020E0,6.748200593E0
1.051206600E1,6.114349793E0,-7.924259942E-1,2.932268722E0,6.827255100E0
1.052205200E1,6.535561574E0,-1.372954740E0,1.959988441E0,6.959894000E0
1.053203800E1,6.616566560E0,-1.941995243E0,1.058270019E0,6.976405522E0
1.054202400E1,6.603775776E0,-2.319757095E0,3.341689593E-1,7.007338751E0
1.055201000E1,6.727314579E0,-2.490880539E0,-1.545688069E-1,7.175314545E0
1.056199600E1,7.041321754E0,-2.435683115E0,-4.310467976E-1,7.463147166E0
1.057198200E1,7.947706254E0,-2.055142666E0,-7.306511110E-1,8.241571277E0
1.058196800E1,8.905305346E0,-1.688922633E0,-9.518097639E-1,9.113883079E0
1.059195400E1,9.358456957E0,-1.416464603E0,-8.366278017E-1,9.501948993E0
1.060194000E1,9.216864291E0,-1.458254799E0,-4.143582594E-1,9.340705926E0
1.061192600E1,8.656957725E0,-1.925717033E0,-7.996652126E-3,8.868560598E0
1.062191200E1,7.939629495E0,-2.686885055E0,2.322747946E-2,8.381981110E0
1.063189800E1,7.124296668E0,-3.626300768E0,-2.650554550E-1,7.998494525E0
1.064188400E1,6.203947263E0,-4.394909664E0,-7.574617642E-1,7.640545852E0
1.065187000E1,5.587986948E0,-4.744130234E0,-1.226549962E0,7.432146030E0
1.066185600E1,5.331051521E0,-4.935330092E0,-1.769666249E0,7.477252977E0
1.067184200E1,5.409291945E0,-5.281048472E0,-2.219197265E0,7.878752998E0
1.068182800E1,5.698663046E0,-5.629259520E0,-2.561766334E0,8.409873364E0
1.069181400E1,5.950302064E0,-6.019330784E0,-2.846449723E0,8.929765606E0
1.070180000E1,5.988305458E0,-6.355318812E0,-3.142120614E0,9.280237142E0
1.071178600E1,5.327540853E0,-6.989276272E0,-3.604692675E0,9.498762216E0
1.072177200E1,3.873115249E0,-7.945928700E0,-4.370427080E0,9.861005907E0
1.073175800E1,2.114379492E0,-8.905546836E0,-5.286476442E0,1.057006141E1
1.074174400E1,3.111645511E-1,-9.621600373E0,-6.538514417E0,1.163718986E1
1.075173000E1,-1.742882785E0,-1.030383245E1,-7.848745637E0,1.306940747E1
1.076171600E1,-4.028688315E0,-1.064609454E1,-8.826013008E0,1.440375521E1
1.077170200E1,-6.467630961E0,-1.050844757E1,-9.331605958E0,1.547050711E1
1.078168800E1,-8.814321501E0,-1.004180000E1,-9.529478660E0,1.641161096E1
1.079167400E1,-1.062830964E1,-9.448670139E0,-8.771381303E0,1.670854462E1
1.080166000E1,-1.150939383E1,-8.639581554E0,-7.537193123E0,1.624554695E1
1.081164600E1,-1.220800746E1,-7.456425533E0,-6.638207105E0,1.577020994E1
1.082163200E1,-1.330864406E1,-6.243055780E0,-5.679560192E0,1.575922448E1
1.083161800E1,-1.436748477E1,-5.246204914E0,-4.755795429E0,1.601764261E1
1.084160400E1,-1.520105097E1,-4.532818584E0,-4.087040604E0,1.638054626E1
1.085159000E1,-1.597853185E1,-3.948593740E0,-3.321986230E0,1.679108290E1
1.086157600E1,-1.656289322E1,-3.223098996E0,-2.450449381E0,1.705058654E1
1.087156200E1,-1.654977558E1,-2.532563877E0,-1.547484918E0,1.681379378E1
1.088154800E1,-1.620373034E1,-1.984130132E0,-7.133515388E-1,1.634033414E1
1.089153400E1,-1.546894349E1,-1.666241283E0,-2.439592856E-1,1.556033705E1
1.090151979E1,-1.456211519E1,-1.639745649E0,-8.866250038E-2,1.465441318E1
1.091150579E1,-1.356523860E1,-1.711400207E0,-4.920256555E-2,1.367285668E1
1.092149179E1,-1.281013502E1,-1.133595240E0,6.419979662E-1,1.287620902E1
1.093147779E1,-1.231354035E1,-1.276512227E-1,2.246535337E0,1.251744749E1
1.094146379E1,-1.135315389E1,3.185995051E-1,4.080709239E0,1.206846290E1
1.095144979E1,-9.847864230E0,6.530329046E-1,6.010887989E0,1.155584944E1
1.096143579E1,-8.010483715E0,1.430588845E0,8.223521170E0,1.156895562E1
1.097142179E1,-5.703741937E0,2.184877471E0,9.796829731E0,1.154487914E1
1.098140779E1,-3.184155078E0,2.145461244E0,1.093222336E1,1.158686131E1
1.099139379E1,-5.425640540E-1,1.771183602E0,1.109845034E1,1.125198058E1
1.100137979E1,1.978540048E0,1.662450534E0,1.042111356E1,1.073675790E1
1.101136579E1,4.054882672E0,1.377174091E0,9.254112809E0,1.019692531E1
1.102135179E1,5.648996211E0,1.142890924E0,8.286386924E0,1.009363988E1
1.103133779E1,6.542613316E0,1.200301007E0,7.568301480E0,1.007599617E1
1.104132379E1,6.832991307E0,1.212890209E0,7.071947131E0,9.908244501E0
1.105130979E1,6.324704545E0,5.621492663E-1,6.888522314E0,9.368545194E0
1.106129579E1,5.373490613E0,-4.075456685E-1,6.799304913E0,8.675888550E0
1.107128179E1,4.558746600E0,-9.070154142E-1,6.598202210E0,8.071004890E0
1.108126779E1,4.073037107E0,-7.762086685E-1,6.295426367E0,7.538204316E0
1.109125379E1,3.839485865E0,-4.766704287E-1,6.315587566E0,7.406450750E0
1.110123979E1,3.799852268E0,-1.886076419E-1,6.740331066E0,7.739929779E0
1.111122579E1,3.888026234E0,5.559547260E-2,7.144173692E0,8.133821771E0
1.112121179E1,4.098497053E0,2.610161984E-1,7.194851511E0,8.284424893E0
1.113119779E1,4.351659272E0,2.750990711E-1,6.698289000E0,7.992477304E0
1.114118379E1,4.626631604E0,-6.134620920E-2,5.676951165E0,7.323746165E0
1.115116979E1,4.673416346E0,-6.120020422E-1,4.386153166E0,6.438455284E0
1.116115579E1,4.416420109E0,-9.760957356E-1,2.963603951E0,5.407446517E0
1.117114179E1,3.925869121E0,-1.243555858E0,1.694620745E0,4.453158317E0
1.118112779E1,3.359458989E0,-1.341570103E0,8.881645757E-1,3.724863937E0
1.119111379E1,2.606225638E0,-1.220628195E0,4.784308791E-1,2.917403190E0
1.120109979E1,1.917805458E0,-1.002284099E0,2.784607816E-1,2.181763414E0
1.121108579E1,1.440443450E0,-7.980380787E-1,2.851464880E-1,1.671242240E0
1.122107179E1,1.235424574E0,-5.688839431E-1,4.096828258E-1,1.420472751E0
1.123105779E1,1.252663043E0,-3.605684070E-1,6.086337537E-1,1.438613680E0
1.124104379E1,1.333168092E0,-1.277758415E-1,8.187446773E-1,1.569715476E0
1.125102979E1,1.319987299E0,7.274447903E-2,1.039456018E0,1.681703613E0
1.126101579E1,1.063526520E0,2.430607148E-1,1.140308209E0,1.578122296E0
1.127100179E1,6.209384881E-1,3.756853598E-1,1.012299210E0,1.245573677E0
1.128098779E1,1.730670583E-1,4.128705816E-1,7.553269458E-1,8.780279716E-1
1.129097379E1,-1.521606311E-1,3.870453304E-1,4.875332397E-1,6.408163585E-1
1.130095979E1,-2.892478712E-1,3.032925908E-1,1.997654450E-1,4.642811214E-1
1.131094579E1,-4.050888146E-1,1.380998316E-1,1.880523026E-2,4.283948505E-1
1.132093179E1,-6.115057598E-1,4.677392453E-2,9.467694640E-2,6.205568616E-1
1.133091779E1,-7.726616013E-1,1.575225279E-1,3.725769800E-1,8.721427079E-1
1.134090379E1,-9.383817793E-1,2.804865494E-1,8.655551469E-1,1.307064949E0
1.135088979E1,-1.169148138E0,3.908037744E-1,1.449020146E0,1.902444307E0
1.136087579E1,-1.348442628E0,6.081170060E-1,1.911758852E0,2.417214455E0
1.137086179E1,-1.517955164E0,6.911984852E-1,2.264827766E0,2.812718976E0
1.138084779E1,-1.669263709E0,6.760472531E-1,2.581236393E0,3.147421569E0
1.139083379E1,-1.798139412E0,8.848090048E-1,2.790703538E0,3.435726787E0
1.140081979E1,-1.724345065E0,9.916816351E-1,2.996184052E0,3.596375570E0
1.141080579E1,-1.405609247E0,8.926485861E-1,3.393073754E0,3.779617488E0
1.142079179E1,-1.086537506E0,8.609211554E-1,3.917354990E0,4.155408417E0
1.143077779E1,-6.573026146E-1,8.270510126E-1,4.327443613E0,4.454528968E0
1.144076379E1,-5.938183710E-2,5.304045863E-1,4.632660084E0,4.663302980E0
1.145074979E1,3.942227876E-1,1.628572351E-1,4.818141366E0,4.836984629E0
1.146073579E1,8.258333299E-1,9.499956653E-2,4.735803798E0,4.808207901E0
1.147072179E1,1.239793175E0,1.470858509E-1,4.491617056E0,4.661903596E0
1.148070779E1,1.443668189E0,-2.520166392E-2,4.216653494E0,4.457014657E0
1.149069379E1,1.720712483E0,-2.536901854E-1,3.915606673E0,4.284528652E0
1.150067979E1,2.086495875E0,-2.989350265E-1,3.511124945E0,4.095219844E0
1.151066579E1,2.376998705E0,-3.636985312E-1,3.123199609E0,3.941671633E0
1.152065179E1,2.674310910E0,-4.833250717E-1,2.764324994E0,3.876471932E0
1.153063779E1,3.015319065E0,-3.991206347E-1,2.446115425E0,3.903194463E0
1.154062379E1,3.452216879E0,-3.069693200E-1,2.000514323E0,4.001760750E0
1.155060979E1,3.964562486E0,-4.166931988E-1,1.358414615E0,4.211493701E0
1.156059579E1,4.652538863E0,-5.386446288E-1,4.967876279E-1,4.709888943E0
1.157058179E1,5.489147953E0,-7.822742777E-1,-3.252209651E-1,5.554139625E0
1.158056779E1,6.144474648E0,-1.620241530E0,-9.693069720E-1,6.428009592E0
1.159055379E1,6.508988902E0,-2.564944881E0,-1.738878320E0,7.208992758E0
1.160053979E1,6.823753876E0,-3.284972770E0,-2.392428630E0,7.942189737E0
1.161052579E1,7.064667932E0,-3.795844002E0,-2.700432469E0,8.462286936E0
1.162051279E1,7.136969338E0,-3.880548230E0,-2.760533075E0,8.579949228E0
1.163049879E1,6.966185617E0,-3.590517562E0,-2.486168852E0,8.221958038E0
1.164048479E1,6.898145077E0,-2.919488463E0,-1.807687184E0,7.705553280E0
1.165047079E1,6.833874822E0,-2.091816257E0,-5.006397736E-1,7.164368815E0
1.166045679E1,6.876775843E0,-1.498302233E0,7.442634290E-1,7.077350043E0
1.167044279E1,6.678093302E0,-1.394930477E0,1.526537268E0,6.990928209E0
1.168042879E1,6.074050782E0,-1.961133910E0,1.682080806E0,6.600722306E0
1.169041479E1,5.403673940E0,-2.593302122E0,1.161152948E0,6.105176829E0
1.170040079E1,4.199016538E0,-3.363479826E0,5.784165126E-1,5.411035214E0
1.171038679E1,2.850644808E0,-4.323789395E0,-2.166019177E-1,5.183458975E0
1.172037279E1,1.483683025E0,-5.185276927E0,-8.814414471E-1,5.464920050E0
1.173035879E1,4.722129500E-1,-5.727345393E0,-1.693813829E0,5.991199847E0
1.174034479E1,-2.420326281E-1,-6.114591283E0,-2.313277795E0,6.542022662E0
1.175033079E1,-8.959442961E-1,-6.215917683E0,-2.562904787E0,6.782980891E0
1.176031679E1,-1.780029269E0,-6.411631007E0,-2.671605695E0,7.170424908E0
1.177030279E1,-2.392081890E0,-7.074719296E0,-3.352262528E0,8.186047455E0
1.178028879E1,-3.052891518E0,-8.077615598E0,-4.314780883E0,9.653256157E0
1.179027479E1,-3.982109395E0,-8.792170494E0,-5.648084046E0,1.118303673E1
1.180026079E1,-4.754628909E0,-9.150728774E0,-7.226153410E0,1.259204615E1
1.181024679E1,-5.626797257E0,-9.656675481E0,-8.562723413E0,1.407950500E1
1.182023279E1,-6.776631750E0,-1.017498086E1,-9.884023411E0,1.572090621E1
1.183021879E1,-7.745214252E0,-1.049711801E1,-1.102345044E1,1.707905998E1
1.184020479E1,-8.268000355E0,-1.071461338E1,-1.163438274E1,1.784717433E1
1.185019079E1,-8.608065062E0,-1.085715446E1,-1.147593255E1,1.799093147E1
1.186017679E1,-8.998241576E0,-1.088264832E1,-1.069887267E1,1.771627112E1
1.187016279E1,-9.797612089E0,-1.044413054E1,-9.776592518E0,1.733940099E1
1.188014879E1,-1.097781994E1,-9.853716123E0,-8.607179793E0,1.707898698E1
1.189013479E1,-1.265685844E1,-8.950225410E0,-6.836304924E0,1.694218597E1
1.190012087E1,-1.436776544E1,-7.149084184E0,-4.378957583E0,1.663482365E1
1.191010688E1,-1.535757859E1,-5.367637550E0,-1.304755302E0,1.632081921E1
1.192009287E1,-1.571023703E1,-3.495222565E0,2.351622666E0,1.626524693E1
1.193007887E1,-1.514981767E1,-2.134057858E0,5.615588145E0,1.629742337E1
1.194006488E1,-1.396018059E1,-9.076013052E-1,8.210486557E0,1.622105027E1
1.195005088E1,-1.297651403E1,2.229071166E-1,1.009278538E1,1.644092214E1
1.196003687E1,-1.216539529E1,6.573393059E-1,1.037852478E1,1.600445919E1
1.197002288E1,-1.166846733E1,4.190189289E-1,9.373806483E0,1.497320789E1
1.198000888E1,-1.132529424E1,-1.479321440E-1,7.885479015E0,1.380090406E1
1.198999487E1,-1.119711158E1,-6.459494414E-1,6.514175382E0,1.297023667E1
1.199998087E1,-1.097361580E1,-9.770405725E-1,6.045111158E0,1.256655167E1
1.200996688E1,-1.017655844E1,-7.202000170E-1,6.467222241E0,1.207915532E1
1.201995287E1,-8.457143748E0,-4.485137464E-1,7.152906509E0,1.108550930E1
1.202993887E1,-5.833988081E0,-1.421573608E-1,8.305397977E0,1.015062861E1
1.203992488E1,-3.034223405E0,5.570538564E-1,9.937518418E0,1.040533964E1
1.204991087E1,-7.691769531E-1,1.300404243E0,1.141194764E1,1.151152611E1
1.205989687E1,9.595324009E-1,1.643040409E0,1.231859117E1,1.246466897E1
1.206988288E1,1.918127201E0,1.522795635E0,1.244238374E1,1.268112896E1
1.207986887E1,2.355910722E0,1.080651553E0,1.204222603E1,1.231800840E1
1.208985487E1,3.003990669E0,6.824652301E-1,1.139132685E1,1.180051042E1
1.209984088E1,3.899115186E0,1.972366704E-1,1.089197580E1,1.157052887E1
1.210982687E1,5.036715549E0,-3.322804548E-1,1.056049364E1,1.170482549E1
1.211981287E1,6.324278868E0,-7.498125829E-1,1.023670875E1,1.205607432E1
1.212979888E1,7.094516798E0,-1.121751632E0,9.864199011E0,1.220216856E1
1.213978487E1,7.620009577E0,-1.468539467E0,9.320117934E0,1.212789151E1
1.214977087E1,7.904654959E0,-1.715972730E0,8.483874294E0,1.172195613E1
1.215975688E1,7.630044569E0,-1.881756496E0,7.325048538E0,1.074313379E1
1.216974287E1,7.067550609E0,-1.854863105E0,5.894516119E0,9.388083352E0
1.217972887E1,6.439010594E0,-1.778543492E0,4.471686237E0,8.038659850E0
1.218971488E1,5.886171557E0,-1.651929931E0,3.267927552E0,6.932188585E0
1.219970087E1,5.464103744E0,-1.426621509E0,2.205755101E0,6.062757971E0
1.220968687E1,5.056028903E0,-1.257805376E0,1.372473076E0,5.387873882E0
1.221967288E1,4.695497772E0,-1.284301888E0,7.025072926E-1,4.918398841E0
1.222965887E1,4.281970986E0,-1.343846862E0,1.109322059E-1,4.489265627E0
1.223964487E1,3.972549198E0,-1.296962425E0,-5.639066470E-1,4.216781873E0
1.224963088E1,3.786790173E0,-1.215018887E0,-1.179076418E0,4.148044348E0
1.225961687E1,3.622457685E0,-1.052980482E0,-1.668129934E0,4.124757575E0
1.226960287E1,3.421850826E0,-9.541553745E-1,-2.005463991E0,4.079382475E0
1.227958888E1,3.207790985E0,-8.269915903E-1,-2.320443558E0,4.044539084E0
1.228957487E1,2.944190610E0,-7.309145281E-1,-2.597527905E0,3.993700742E0
1.229956087E1,2.503312304E0,-7.666361187E-1,-2.771260961E0,3.812373374E0
1.230954688E1,1.761900124E0,-7.877311917E-1,-2.737288638E0,3.349262839E0
1.231953287E1,9.142913970E-1,-6.632570536E-1,-2.482872192E0,2.727726709E0
1.232951887E1,2.826927404E-1,-4.140159050E-1,-2.033223647E0,2.094116223E0
1.233950488E1,3.267022111E-3,-1.595868874E-1,-1.469604099E0,1.478247224E0
1.234949087E1,4.532542303E-3,-3.349584796E-2,-9.277116340E-1,9.283272008E-1
1.235947687E1,1.314526803E-1,7.841423169E-2,-5.475554931E-1,5.685469347E-1
1.236946288E1,3.697680141E-1,2.256056797E-1,-4.658435780E-1,6.361104826E-1
1.237944887E1,6.592441826E-1,2.293512598E-1,-5.956880182E-1,9.176323380E-1
1.238943487E1,8.827194292E-1,2.186075858E-1,-7.421350425E-1,1.173774803E0
1.239942088E1,9.899228657E-1,1.829355504E-1,-7.443932372E-1,1.252011976E0
1.240940687E1,8.586231266E-1,1.250811522E-1,-6.113258117E-1,1.061413311E0
1.241939287E1,7.007703041E-1,1.385395423E-1,-4.018083805E-1,8.195866022E-1
1.242937888E1,4.758681541E-1,1.287507185E-1,-5.131341040E-2,4.956413156E-1
1.243936487E1,3.078628477E-2,1.286819407E-1,4.293639690E-1,4.492886099E-1
1.244935087E1,-4.512685159E-1,1.773033661E-1,9.524120271E-1,1.068722802E0
1.245933688E1,-9.933042374E-1,3.614973834E-1,1.450926338E0,1.795138130E0
1.246932287E1,-1.367012069E0,5.996530151E-1,1.943198746E0,2.450372849E0
1.247930887E1,-1.576371918E0,8.385576021E-1,2.517482446E0,3.086396790E0
1.248929488E1,-1.606902862E0,1.033984194E0,3.012118299E0,3.567087996E0
1.249928087E1,-1.423469713E0,1.093986347E0,3.381909665E0,3.828888238E0
1.250926687E1,-1.142602510E0,1.190341079E0,3.707937546E0,4.058479177E0
1.251925288E1,-9.530223303E-1,1.358363452E0,4.040837075E0,4.368268204E0
1.252923887E1,-9.175158441E-1,1.617812889E0,4.536412575E0,4.902875985E0
1.253922487E1,-9.957393835E-1,1.835981568E0,5.197957199E0,5.601882209E0
1.254921088E1,-1.049463528E0,1.749321301E0,5.874583545E0,6.218700068E0
1.255919687E1,-1.136980778E0,1.510921986E0,6.293702608E0,6.571628645E0
1.256918287E1,-1.388400891E0,1.237826464E0,6.607922621E0,6.864729620E0
1.257916888E1,-1.445464308E0,1.109333169E0,6.726859666E0,6.969263096E0
1.258915487E1,-1.283483570E0,9.407154031E-1,6.651866786E0,6.839561922E0
1.259914087E1,-9.121153557E-1,5.398544177E-1,6.347919161E0,6.435796368E0
1.260912688E1,-3.582946807E-1,1.516238567E-1,5.809791133E0,5.822803267E0
1.261911287E1,4.124436618E-1,-2.665058568E-2,5.259149480E0,5.275364753E0
1.262909887E1,1.218907578E0,-3.357004912E-1,4.735290413E0,4.901163719E0
1.263908488E1,1.988748556E0,-7.784275407E-1,4.141882224E0,4.660070666E0
1.264907087E1,2.510251780E0,-1.400851952E0,3.266742321E0,4.351477402E0
1.265905687E1,3.061712043E0,-1.932550528E0,2.267418083E0,4.272003855E0
1.266904288E1,3.674901070E0,-2.556182243E0,1.195153338E0,4.633287930E0
1.267902888E1,4.375669693E0,-3.151129127E0,3.472018182E-2,5.392337668E0
1.268901487E1,5.137378290E0,-3.551200592E0,-1.007859419E0,6.326093735E0
1.269900087E1,5.930529120E0,-3.808128417E0,-1.735978101E0,7.258556168E0
1.270898688E1,6.687205603E0,-4.150113934E0,-2.360711578E0,8.216758704E0
1.271897287E1,7.458398384E0,-4.415721659E0,-2.693130466E0,9.076301886E0
1.272895887E1,8.234023354E0,-4.360371038E0,-2.736983414E0,9.710975975E0
1.273894488E1,8.736775727E0,-4.265009383E0,-2.638270134E0,1.007382869E1
1.274893087E1,8.823555424E0,-4.314197915E0,-2.535373172E0,1.014374443E1
1.275891687E1,8.538364497E0,-4.402423629E0,-2.501030720E0,9.926739482E0
1.276890288E1,7.958251122E0,-4.680520713E0,-2.526215848E0,9.571980024E0
1.277888887E1,7.271097448E0,-5.337325584E0,-2.536394096E0,9.369588972E0
1.278887487E1,6.726722256E0,-5.941180408E0,-2.777950176E0,9.394861581E0
1.279886088E1,6.428237100E0,-6.116660028E0,-3.611356747E0,9.580065744E0
1.280884687E1,5.773014486E0,-6.635239059E0,-4.084398832E0,9.697237103E0
1.281883287E1,5.150428691E0,-7.023447400E0,-4.888154172E0,9.987481179E0
1.282881888E1,4.721657337E0,-7.222143974E0,-5.815006850E0,1.040517738E1
1.283880487E1,4.348318173E0,-7.275060107E0,-6.467701128E0,1.066140368E1
1.284879087E1,4.022413960E0,-6.901166918E0,-6.644394629E0,1.039008657E1
1.285877688E1,3.628372144E0,-6.802511526E0,-6.306172965E0,9.960274341E0
1.286876287E1,2.943078470E0,-7.187346025E0,-5.701206000E0,9.634490314E0
1.287874887E1,1.065353921E0,-8.086003429E0,-5.676907895E0,9.937087787E0
1.288873488E1,-1.981860243E0,-9.220925183E0,-6.084627226E0,1.122389949E1
1.289872162E1,-4.521795706E0,-9.546238534E0,-6.687476914E0,1.250198600E1
1.290870762E1,-6.744441658E0,-9.370293476E0,-7.034517934E0,1.351940589E1
1.291869363E1,-9.326153430E0,-9.394167073E0,-7.109485670E0,1.502572126E1
1.292867962E1,-1.150545397E1,-9.307352877E0,-7.325407557E0,1.651253719E1
1.293866562E1,-1.308118036E1,-8.795837867E0,-7.375454460E0,1.740348735E1
1.294865163E1,-1.442103006E1,-8.030075980E0,-6.725655139E0,1.782365466E1
1.295863762E1,-1.543106523E1,-6.781232924E0,-5.249293413E0,1.765383742E1
1.296862362E1,-1.603420903E1,-5.644746455E0,-3.380439091E0,1.733165862E1
1.297860963E1,-1.574322001E1,-4.763154734E0,-1.367212921E0,1.650472328E1
1.298859562E1,-1.451902589E1,-4.148512674E0,1.383585709E-1,1.510070903E1
1.299858162E1,-1.332691427E1,-3.681907789E0,1.209458551E0,1.387897255E1
1.300856763E1,-1.299652788E1,-2.880795390E0,2.075686128E0,1.347283162E1
1.301855362E1,-1.331082741E1,-2.014583601E0,2.777739092E0,1.374599971E1
1.302853962E1,-1.393161110E1,-1.034235478E0,3.789232555E0,1.447472674E1
1.303852563E1,-1.397416245E1,-3.633050501E-2,4.578687360E0,1.470520024E1
1.304851162E1,-1.333578684E1,2.630397736E-1,5.415002335E0,1.439564694E1
1.305849762E1,-1.249259846E1,3.008917241E-1,6.425264375E0,1.405131931E1
1.306848363E1,-1.116211716E1,3.458779355E-1,7.074105338E0,1.321951049E1
1.307846962E1,-9.519305674E0,2.574191741E-1,7.504303705E0,1.212427397E1
1.308845562E1,-7.868142021E0,3.114330845E-1,7.472645125E0,1.085564713E1
1.309844163E1,-5.848755809E0,7.440228161E-1,6.966132993E0,9.126254617E0
1.310842762E1,-3.446123788E0,1.257503368E0,6.730812383E0,7.665567117E0
1.311841362E1,-1.221234478E0,1.464528862E0,6.886050112E0,7.145204306E0
1.312839963E1,3.467577222E-1,1.178758914E0,7.277279710E0,7.380278685E0
1.313838562E1,1.692435494E0,7.950580452E-1,7.849827372E0,8.069463735E0
1.314837162E1,3.085640019E0,4.501875484E-1,8.337799153E0,8.901839016E0
1.315835763E1,4.440876673E0,2.518012423E-1,8.734391232E0,9.801753909E0
1.316834362E1,5.359312284E0,2.011437068E-1,8.806572186E0,1.031108145E1
1.317832962E1,6.070315581E0,2.075126037E-1,8.521426283E0,1.046453528E1
1.318831563E1,6.822807212E0,3.308230728E-1,7.946839111E0,1.047914090E1
1.319830162E1,7.099495702E0,2.636775586E-1,7.211865739E0,1.012340716E1
1.320828762E1,6.826732448E0,-7.684253667E-2,6.583256142E0,9.484167972E0
1.321827363E1,6.315412150E0,-2.840049287E-1,6.200317311E0,8.854887023E0
1.322825962E1,5.759201024E0,-4.626273901E-1,6.025745764E0,8.348175402E0
1.323824562E1,5.190904287E0,-7.605734331E-1,5.995385851E0,7.966718946E0
1.324823163E1,4.730767007E0,-8.674060830E-1,5.990027463E0,7.681990549E0
1.325821762E1,4.548367792E0,-7.438633333E-1,5.868833393E0,7.462183838E0
1.326820362E1,4.670331355E0,-5.706752011E-1,5.627987165E0,7.335659799E0
1.327818963E1,4.873338497E0,-2.776070150E-1,5.065693181E0,7.034752388E0
1.328817562E1,4.939902030E0,-1.941749587E-1,4.078293169E0,6.408807312E0
1.329816162E1,4.604879962E0,-2.525650349E-1,2.956959175E0,5.478349763E0
1.330814763E1,3.991572821E0,-3.886929661E-1,1.909999425E0,4.442052860E0
1.331813362E1,3.156001027E0,-5.522371029E-1,1.059030157E0,3.374441165E0
1.332811962E1,2.427813202E0,-6.865989192E-1,5.095474219E-1,2.573972337E0
1.333810563E1,1.994213217E0,-9.196040310E-1,1.851778114E-1,2.203825935E0
1.334809162E1,1.927352353E0,-1.077163908E0,1.958817244E-4,2.207933245E0
1.335807762E1,1.990495119E0,-9.010920386E-1,-5.514333665E-2,2.185652870E0
1.336806363E1,2.016643283E0,-6.097494755E-1,7.486190200E-3,2.106822393E0
1.337804962E1,2.088648820E0,-3.245444788E-1,1.313594538E-1,2.117790905E0
1.338803562E1,2.160505399E0,2.012956979E-2,1.281896782E-1,2.164398617E0
1.339802163E1,2.163836119E0,2.182490967E-1,3.397466183E-2,2.175080159E0
1.340800762E1,1.987913281E0,2.093471676E-1,-1.568837196E-1,2.005053104E0
1.341799362E1,1.735440888E0,1.772402892E-1,-3.909062469E-1,1.787729535E0
1.342797963E1,1.491099048E0,1.670074426E-1,-5.531308132E-1,1.599131500E0
1.343796562E1,1.130956465E0,1.890079569E-1,-6.600711250E-1,1.323057226E0
1.344795162E1,7.461355613E-1,2.151625160E-1,-6.971354556E-1,1.043556912E0
1.345793763E1,3.934293935E-1,1.803750181E-1,-7.099244857E-1,8.314533121E-1
1.346792362E1,-6.026067361E-3,1.797310204E-1,-8.699861670E-1,8.883780073E-1
1.347790962E1,-4.557008515E-1,1.699330604E-1,-8.691283804E-1,9.959541419E-1
1.348789663E1,-7.740248065E-1,2.654745907E-1,-5.721518058E-1,9.984732587E-1
1.349788162E1,-8.044770326E-1,4.532461904E-1,-1.132061881E-1,9.302854648E-1
1.350786762E1,-8.462922259E-1,6.180465283E-1,5.078476363E-1,1.164517610E0
1.351785363E1,-7.651224938E-1,9.692293502E-1,1.089967191E0,1.647072081E0
1.352784062E1,-5.898284503E-1,1.223890356E0,1.555706103E0,2.065436197E0
1.353782562E1,-8.827102929E-1,1.297148659E0,1.964631130E0,2.514268797E0
1.354781263E1,-1.236944557E0,1.384091493E0,2.240353076E0,2.909454073E0
1.355779862E1,-1.518734305E0,1.204398224E0,2.313571910E0,3.018235239E0
1.356778462E1,-1.707978124E0,9.588262034E-1,2.297669238E0,3.019241774E0
1.357777063E1,-1.793768326E0,1.037805349E0,2.354918157E0,3.136922740E0
1.358775662E1,-1.788106175E0,1.241611951E0,2.743128837E0,3.501953704E0
1.359774262E1,-1.603478148E0,1.580045577E0,3.581027824E0,4.229828184E0
1.360772863E1,-1.231555763E0,2.317403737E0,4.850944245E0,5.515319551E0
1.361771462E1,-5.196280948E-1,2.898352825E0,6.203653148E0,6.867006250E0
1.362770062E1,1.077158079E-1,2.826086794E0,7.044251209E0,7.590773634E0
1.363768663E1,1.053292760E-1,2.166777561E0,7.337103158E0,7.651085021E0
1.364767163E1,-3.788211485E-1,1.205492823E0,6.689960226E0,6.808251335E0
1.365765862E1,-1.204020494E0,1.135930545E-1,5.742464538E0,5.868429748E0
1.366764463E1,-1.599846588E0,-6.656259068E-1,4.678334439E0,4.988925744E0
1.367763062E1,-1.104644214E0,-8.073800290E-1,3.659781632E0,3.907186065E0
1.368761662E1,-2.090581325E-1,-9.724840567E-1,3.051619164E0,3.209643293E0
1.369760162E1,8.462151157E-1,-1.098012375E0,2.685336127E0,3.022042573E0
1.370758862E1,1.883057794E0,-1.168873758E0,2.329232508E0,3.215197753E0
1.371757462E1,2.542140740E0,-1.330308804E0,1.995830703E0,3.495073855E0
1.372756063E1,2.905631146E0,-1.581413241E0,1.625853395E0,3.686049303E0
1.373754662E1,2.793290931E0,-1.697587914E0,1.373061891E0,3.545360053E0
1.374753262E1,2.552442364E0,-1.985559777E0,1.072826078E0,3.407105141E0
1.375751863E1,2.432371252E0,-2.410511144E0,7.085843039E-1,3.497010953E0
1.376750462E1,2.602820512E0,-2.846100644E0,2.945850635E-1,3.868041346E0
1.377749062E1,3.074382960E0,-3.220205501E0,-3.086218894E-2,4.452247357E0
1.378747663E1,3.934436169E0,-3.457728757E0,-5.144316012E-1,5.263108967E0
1.379746262E1,4.906454787E0,-3.719161277E0,-1.096646465E0,6.253646348E0
1.380744862E1,5.891987783E0,-4.148814391E0,-1.475447806E0,7.355618744E0
1.381743463E1,7.107363131E0,-4.391191420E0,-1.775821613E0,8.541119081E0
1.382742062E1,8.145931542E0,-4.661239812E0,-2.190273428E0,9.637461023E0
1.383740662E1,8.437684214E0,-5.301447068E0,-2.621526048E0,1.030399217E1
1.384739263E1,7.987974858E0,-5.991519088E0,-3.279750622E0,1.051012880E1
1.385737863E1,7.134267340E0,-6.335213746E0,-4.235222497E0,1.043886073E1
1.386736462E1,6.501899153E0,-6.503018310E0,-5.067651998E0,1.049976364E1
1.387735062E1,6.321383911E0,-6.399330220E0,-5.444533698E0,1.051447902E1
1.388733663E1,6.293814874E0,-6.121678108E0,-5.688827444E0,1.046182614E1
1.389732187E1,6.299876683E0,-5.979253968E0,-5.879663022E0,1.048858243E1
1.390730787E1,6.226149725E0,-5.854073267E0,-6.010470498E0,1.044800794E1
1.391729388E1,6.113239406E0,-5.907949512E0,-6.368811847E0,1.062249160E1
1.392727987E1,5.834817216E0,-6.218367666E0,-6.887679731E0,1.096144701E1
1.393726587E1,5.237944552E0,-6.760816201E0,-7.421398957E0,1.132350923E1
1.394725188E1,3.594249255E0,-7.228397571E0,-7.559324250E0,1.105946392E1
1.395723787E1,1.180550501E0,-7.504056367E0,-7.792882508E0,1.088271929E1
1.396722387E1,-1.005111228E0,-7.918042159E0,-8.310037742E0,1.152225531E1
1.397720988E1,-2.435531088E0,-8.443524998E0,-8.802889609E0,1.243848027E1
1.398719587E1,-2.819483534E0,-8.890920026E0,-9.263032737E0,1.314540687E1
1.399718187E1,-3.190630577E0,-9.470850382E0,-9.644641911E0,1.388870937E1
1.400716788E1,-3.995877249E0,-9.631912522E0,-9.905653431E0,1.438272379E1
1.401715387E1,-5.131764379E0,-9.433762663E0,-9.838817418E0,1.456479357E1
1.402713987E1,-6.544411334E0,-9.139819039E0,-9.341010035E0,1.461574768E1
1.403712588E1,-8.556906602E0,-8.523900239E0,-8.517153722E0,1.477902004E1
1.404711187E1,-1.175687138E1,-7.752140864E0,-7.222087841E0,1.582650516E1
1.405709787E1,-1.528511405E1,-6.889906935E0,-5.803051633E0,1.774206689E1
1.406708388E1,-1.779177447E1,-6.291553171E0,-3.990193756E0,1.928866316E1
1.407706987E1,-1.912210140E1,-5.463865178E0,-1.662799028E0,1.995679046E1
1.408705587E1,-1.908057798E1,-4.058398895E0,5.516140455E-1,1.951520781E1
1.409704188E1,-1.816166816E1,-2.785388711E0,2.579515557E0,1.855420387E1
1.410702787E1,-1.700454746E1,-1.559117077E0,4.012756407E0,1.754102888E1
1.411701387E1,-1.567486606E1,-3.080137058E-1,4.682558468E0,1.636223249E1
1.412699988E1,-1.410892791E1,7.766510104E-1,5.484957839E0,1.515749967E1
1.413698587E1,-1.224185582E1,1.384011387E0,5.980478375E0,1.369469397E1
1.414697187E1,-9.769703329E0,1.630066168E0,6.283019160E0,1.172947350E1
1.415695788E1,-7.073829349E0,1.907901444E0,6.475226494E0,9.777919397E0
1.416694387E1,-4.764296696E0,2.011764074E0,6.821230218E0,8.560075898E0
1.417692987E1,-2.875194342E0,1.710569464E0,7.104944138E0,7.853217277E0
1.418691588E1,-1.151651734E0,1.367457042E0,7.267053514E0,7.483736183E0
1.419690187E1,1.916169114E-1,1.010107016E0,7.234070540E0,7.306764660E0
1.420688787E1,1.060015194E0,4.322535168E-1,6.891972756E0,6.986398485E0
1.421687388E1,1.769075827E0,3.017378162E-1,6.366414489E0,6.614522540E0
1.422685987E1,1.927931666E0,4.388987312E-1,5.898071226E0,6.220674946E0
1.423684587E1,1.727516449E0,6.629754370E-1,5.586873638E0,5.885321279E0
1.424683188E1,1.519360249E0,7.549344514E-1,5.368008263E0,5.629733058E0
1.425681787E1,1.437983965E0,6.704166037E-1,5.438238001E0,5.664952679E0
1.426680387E1,1.676310773E0,6.540745130E-1,5.867600800E0,6.137309706E0
1.427678988E1,2.016546804E0,4.446379195E-1,6.604448791E0,6.919747663E0
1.428677587E1,2.381235890E0,4.225987405E-2,7.320828602E0,7.698480479E0
1.429676187E1,2.777429774E0,-3.523559926E-1,7.824759774E0,8.310543689E0
1.430674788E1,3.241678816E0,-6.972322270E-1,7.955926269E0,8.619244580E0
1.431673387E1,3.793303387E0,-7.344371831E-1,7.739995612E0,8.650784972E0
1.432671987E1,4.336383421E0,-5.763113688E-1,7.240010726E0,8.458966325E0
1.433670588E1,4.441343281E0,-4.192440467E-1,6.607616812E0,7.972571457E0
1.434669188E1,4.038204074E0,-2.710527979E-1,6.217960115E0,7.419136726E0
1.435667787E1,3.542285342E0,-1.491667105E-1,5.715815268E0,6.726111829E0
1.436666388E1,3.301839064E0,-3.069285357E-1,5.084689030E0,6.070453761E0
1.437664988E1,3.207615277E0,-5.438604914E-1,4.360414892E0,5.440385835E0
1.438663587E1,3.218866197E0,-7.392928572E-1,3.528234483E0,4.832814096E0
1.439662187E1,3.232487578E0,-8.752100694E-1,2.681868728E0,4.290383256E0
1.440660788E1,3.198994142E0,-1.013655179E0,1.888350694E0,3.850575111E0
1.441659387E1,3.173164359E0,-9.758568768E-1,1.120589059E0,3.503853383E0
1.442657987E1,3.036999956E0,-7.722794858E-1,5.365837777E-1,3.179261940E0
1.443656588E1,2.753231949E0,-5.000094438E-1,2.325028360E-1,2.807909040E0
1.444655187E1,2.330913875E0,-2.950669471E-1,1.131599951E-1,2.352239184E0
1.445653787E1,1.743231718E0,-1.768034291E-1,3.497336626E-2,1.752523726E0
1.446652388E1,1.178304732E0,-1.761874250E-1,-1.105112064E-1,1.196518607E0
1.447650987E1,7.744533344E-1,-2.135676514E-1,-3.340584469E-1,8.700483635E-1
1.448649587E1,5.382056491E-1,-2.876470497E-1,-5.622992474E-1,8.298111770E-1
1.449648188E1,4.534980592E-1,-3.425315740E-1,-7.424654102E-1,9.350097616E-1
1.450646787E1,5.882687786E-1,-3.362994654E-1,-9.269824862E-1,1.148239529E0
1.451645387E1,7.685287893E-1,-3.235425219E-1,-9.815223902E-1,1.287906233E0
1.452643988E1,8.886883400E-1,-2.195690873E-1,-9.393896931E-1,1.311651838E0
1.453642587E1,9.020101976E-1,-1.439745292E-2,-8.413675547E-1,1.233583822E0
1.454641187E1,7.202166085E-1,1.454041734E-1,-7.783825171E-1,1.070389499E0
1.455639788E1,4.714882607E-1,1.887611313E-1,-8.651166058E-1,1.003174305E0
1.456638387E1,3.085853443E-2,1.449935527E-1,-9.673604339E-1,9.786529460E-1
1.457636987E1,-5.964268870E-1,1.986606136E-2,-1.036469845E0,1.195988893E0
1.458635588E1,-1.231238113E0,-1.749577555E-1,-1.121215881E0,1.674420066E0
1.459634187E1,-1.754456179E0,-3.308850168E-1,-1.223745638E0,2.164521833E0
1.460632787E1,-2.082485855E0,-3.385686967E-1,-1.230482215E0,2.442429646E0
1.461631388E1,-2.249229588E0,-2.075635841E-1,-1.055758640E0,2.493339665E0
1.462629987E1,-2.281891111E0,-6.990127042E-2,-7.054121894E-1,2.389460104E0
1.463628587E1,-2.404565549E0,6.081206605E-2,-2.921684092E-1,2.423013819E0
1.464627188E1,-2.560685769E0,2.470148943E-1,1.036804891E-1,2.574660678E0
1.465625787E1,-2.936923690E0,5.056078604E-1,6.339843571E-1,3.046817395E0
1.466624387E1,-3.414560518E0,7.207495822E-1,1.205961331E0,3.692295522E0
1.467622988E1,-3.741695861E0,8.560414347E-1,1.748061372E0,4.217678676E0
1.468621587E1,-4.210189982E0,1.033265571E0,2.437984287E0,4.973641001E0
1.469620187E1,-4.373754730E0,1.291735453E0,3.170335184E0,5.554217866E0
1.470618788E1,-4.020698095E0,1.461004014E0,3.872829612E0,5.770559341E0
1.471617387E1,-3.376364751E0,1.394047548E0,4.385536285E0,5.707550788E0
1.472615987E1,-2.516175594E0,1.252125976E0,4.645754339E0,5.429732263E0
1.473614588E1,-1.361271565E0,1.044796865E0,4.763223147E0,5.062899911E0
1.474613187E1,-2.273350668E-1,9.855923447E-1,4.880027127E0,4.983747411E0
1.475611787E1,9.478539763E-1,9.214741898E-1,5.056159880E0,5.226116587E0
1.476610388E1,2.074666519E0,4.811523926E-1,5.435878065E0,5.838194852E0
1.477608987E1,3.040922853E0,2.785585032E-1,5.702398832E0,6.468551544E0
1.478607587E1,3.766652655E0,-2.857764523E-2,5.812801280E0,6.926553806E0
1.479606188E1,4.550135113E0,-6.739108267E-1,5.724036453E0,7.343192676E0
1.480604787E1,5.067243862E0,-1.345520482E0,5.426266412E0,7.545313307E0
1.481603387E1,5.514783901E0,-1.815623902E0,5.042032422E0,7.689695870E0
1.482601988E1,5.857292744E0,-2.002107689E0,4.766594067E0,7.812600878E0
1.483600587E1,6.101113451E0,-2.066084269E0,4.539491134E0,7.880308960E0
1.484599187E1,6.245908636E0,-2.089944563E0,4.181255035E0,7.801418886E0
1.485597788E1,6.325124375E0,-2.204019355E0,3.672015177E0,7.638625213E0
1.486596387E1,6.407159057E0,-2.355099274E0,3.127034798E0,7.508430355E0
1.487594987E1,6.673792090E0,-2.398630333E0,2.516424100E0,7.524979641E0
1.488593588E1,7.091693763E0,-2.460089686E0,1.853031757E0,7.731616156E0
1.489592187E1,7.677709317E0,-2.477274360E0,1.186019987E0,8.154186165E0
1.490590804E1,8.035762982E0,-2.607378709E0,5.949278802E-1,8.469111502E0
1.491589404E1,7.945877244E0,-2.859097835E0,-2.046700895E-1,8.447087987E0
1.492588004E1,7.130411686E0,-3.410006121E0,-1.213108968E0,7.996408314E0
1.493586604E1,6.048134168E0,-4.036542295E0,-2.102088060E0,7.569172665E0
1.494585204E1,5.180854093E0,-4.415318786E0,-2.865757229E0,7.385719573E0
1.495583804E1,4.674351608E0,-4.600510046E0,-3.498271011E0,7.433179381E0
1.496582404E1,4.614240477E0,-4.560965326E0,-3.881142014E0,7.560217141E0
1.497581004E1,4.820790447E0,-4.556574944E0,-3.850166974E0,7.669822780E0
1.498579604E1,5.203791550E0,-4.640564642E0,-3.433833525E0,7.772097489E0
1.499578204E1,5.651194764E0,-4.781535164E0,-3.026539287E0,7.997438393E0
1.500576804E1,5.752486081E0,-5.260193793E0,-2.912776444E0,8.321358150E0
1.501575404E1,5.258226789E0,-5.846806347E0,-3.040250423E0,8.430730459E0
1.502574004E1,4.267379844E0,-6.279037791E0,-3.739515435E0,8.462908602E0
1.503572604E1,3.136411100E0,-6.984389169E0,-4.580259676E0,8.921745645E0
1.504571204E1,2.065514604E0,-7.429281589E0,-5.729676093E0,9.606756145E0
1.505569804E1,9.752246466E-1,-7.450803435E0,-7.138269759E0,1.036438276E1
1.506568404E1,-1.746116003E-1,-7.757608595E0,-8.211674126E0,1.129790123E1
1.507567004E1,-1.460032499E0,-8.187381284E0,-9.041146106E0,1.228443039E1
1.508565604E1,-2.732987427E0,-8.750060601E0,-9.720185598E0,1.336094266E1
1.509564204E1,-4.248258572E0,-9.141884860E0,-1.007169097E1,1.424993750E1
1.510562804E1,-5.910186657E0,-9.611237352E0,-1.042432719E1,1.536140576E1
1.511561404E1,-7.704802390E0,-9.822137650E0,-1.050629112E1,1.631626553E1
1.512560004E1,-9.670554432E0,-9.758645074E0,-9.801611000E0,1.687668080E1
1.513558604E1,-1.138951304E1,-9.440702723E0,-8.951408302E0,1.729091050E1
1.514557204E1,-1.274632786E1,-8.898251849E0,-8.452434985E0,1.769438942E1
1.515555804E1,-1.397178615E1,-8.219415840E0,-7.881911629E0,1.802481999E1
1.516554404E1,-1.517310596E1,-7.149456652E0,-7.020495726E0,1.818310301E1
1.517553004E1,-1.635504108E1,-6.216818154E0,-5.368110005E0,1.830171581E1
1.518551604E1,-1.704193806E1,-5.074606676E0,-3.040476125E0,1.803950611E1
1.519550204E1,-1.714582788E1,-4.003364024E0,-3.073518741E-1,1.760967922E1
1.520548804E1,-1.665652001E1,-2.935841371E0,2.399808401E0,1.708267847E1
1.521547404E1,-1.599753881E1,-2.020520571E0,4.503990349E0,1.674185415E1
1.522546004E1,-1.510115480E1,-1.375459395E0,5.628659011E0,1.617462726E1
1.523544604E1,-1.428902098E1,-7.005110532E-1,6.199311005E0,1.559160971E1
1.524543204E1,-1.351371527E1,5.137180947E-3,6.600644007E0,1.503958205E1
1.525541804E1,-1.216109642E1,4.782895227E-1,6.931080689E0,1.400574548E1
1.526540404E1,-1.066029391E1,1.156918760E0,7.906132550E0,1.332243443E1
1.527539004E1,-8.795710398E0,1.302189105E0,9.067018281E0,1.269925346E1
1.528537604E1,-6.079829586E0,1.103689582E0,1.045018358E1,1.214037871E1
1.529536204E1,-3.147921929E0,1.182914384E0,1.146645772E1,1.194940800E1
1.530534804E1,-3.581973611E-1,1.232897407E0,1.160505077E1,1.167585306E1
1.531533404E1,1.428688061E0,1.018887706E0,1.108605424E1,1.122407593E1
1.532532004E1,2.343733895E0,9.064157823E-1,1.022142647E1,1.052578915E1
1.533530604E1,2.823278669E0,7.954308052E-1,9.373191356E0,9.821421934E0
1.534529204E1,3.223328499E0,5.429234751E-1,8.957332116E0,9.535114638E0
1.535527804E1,3.823180320E0,3.916090822E-1,8.983303694E0,9.770865401E0
1.536526404E1,4.524421690E0,7.793095931E-2,9.202734495E0,1.025508591E1
1.537525004E1,5.080747422E0,-1.479311939E-1,9.454174123E0,1.073393154E1
1.538523604E1,5.391138679E0,-2.250596228E-1,9.362054749E0,1.080569744E1
1.539522204E1,5.185928307E0,-3.299478543E-1,8.977604998E0,1.037304726E1
1.540520804E1,4.776955625E0,-2.430004884E-1,8.521072526E0,9.771746583E0
1.541519404E1,4.479614477E0,-2.822683422E-1,8.125988443E0,9.283227319E0
1.542518004E1,4.470530827E0,-5.409035544E-1,7.565393075E0,8.804169178E0
1.543516604E1,4.657333287E0,-7.838071252E-1,6.698653867E0,8.196161942E0
1.544515204E1,4.805170487E0,-1.000869219E0,5.691585576E0,7.515686860E0
1.545513804E1,4.824752228E0,-1.230165003E0,4.711956514E0,6.855222402E0
1.546512404E1,4.645038639E0,-1.395334227E0,3.690613416E0,6.094585216E0
1.547511004E1,4.274076660E0,-1.452535492E0,2.667625496E0,5.243454628E0
1.548509604E1,3.910902003E0,-1.326401841E0,1.606208505E0,4.431072340E0
1.549508204E1,3.544325436E0,-1.208903869E0,8.193831933E-1,3.833416254E0
1.550506804E1,3.170172046E0,-1.191258288E0,2.682538819E-1,3.397211689E0
1.551505404E1,2.863020147E0,-1.142780923E0,-6.962922871E-2,3.083452745E0
1.552504004E1,2.594501386E0,-1.019596827E0,-2.787122118E-1,2.801552361E0
1.553502604E1,2.300975254E0,-9.138715670E-1,-3.756222099E-1,2.504144645E0
1.554501204E1,2.005750651E0,-6.834076551E-1,-4.672276139E-1,2.169880951E0
1.555499804E1,1.854289054E0,-4.041038512E-1,-6.128338087E-1,1.994305166E0
1.556498404E1,1.725021734E0,-2.127150542E-1,-7.733123964E-1,1.902356365E0
1.557497004E1,1.397128738E0,-1.705034197E-1,-8.601675224E-1,1.649523656E0
1.558495604E1,1.062956709E0,-2.593546390E-1,-9.541007030E-1,1.451705874E0
1.559494204E1,9.200226916E-1,-2.874790885E-1,-1.059272232E0,1.432181427E0
1.560492804E1,8.396258153E-1,-2.621306046E-1,-1.118931958E0,1.423268313E0
1.561491404E1,7.223512807E-1,-2.618170477E-1,-1.083707162E0,1.328442980E0
1.562490004E1,6.398191474E-1,-2.076764354E-1,-9.993487966E-1,1.204655993E0
1.563488604E1,5.939454018E-1,-3.331685007E-2,-8.357279152E-1,1.025827618E0
1.564487204E1,4.491339898E-1,9.258992895E-2,-5.710285556E-1,7.323713860E-1
1.565485804E1,2.427663074E-1,2.423429690E-1,-1.918641025E-1,3.930361669E-1
1.566484404E1,1.062848389E-2,4.455991287E-1,1.718145847E-1,4.776942533E-1
1.567483004E1,-3.213467462E-1,6.588682066E-1,5.835737568E-1,9.369788549E-1
1.568481604E1,-6.311008027E-1,8.371006952E-1,9.430155516E-1,1.410072384E0
1.569480204E1,-7.861376792E-1,9.163988797E-1,1.189224261E0,1.694713457E0
1.570478804E1,-9.594851846E-1,9.256252013E-1,1.372502897E0,1.913415280E0
1.571477404E1,-9.238314217E-1,9.729853092E-1,1.522156534E0,2.029070088E0
1.572476004E1,-7.791729145E-1,1.000408239E0,1.679598078E0,2.104513431E0
1.573474604E1,-6.333149971E-1,9.746046225E-1,1.763593916E0,2.112156612E0
1.574473204E1,-3.852971591E-1,9.770987523E-1,1.729141536E0,2.023142685E0
1.575471804E1,-2.976333632E-1,9.239351367E-1,1.821838616E0,2.064300777E0
1.576470404E1,-1.729460210E-1,1.070826111E0,2.010469208E0,2.284417939E0
1.577469004E1,-6.683045894E-2,1.167297787E0,2.287389248E0,2.568890812E0
1.578467604E1,-1.565336175E-1,1.323129300E0,2.697711174E0,3.008790371E0
1.579466204E1,-1.515073510E-1,1.647227746E0,3.058583198E0,3.477246742E0
1.580464804E1,-2.640384780E-1,1.699210809E0,3.481883020E0,3.883367489E0
1.581463404E1,-3.479678766E-1,1.664023435E0,3.745171446E0,4.112950862E0
1.582462004E1,-2.089036198E-1,1.439570460E0,3.674085676E0,3.951570496E0
1.583460604E1,2.721798487E-2,1.261164163E0,3.453001283E0,3.676206431E0
1.584459204E1,4.651457859E-1,1.251423433E0,3.218875844E0,3.484764398E0
1.585457804E1,1.056865153E0,1.079340899E0,3.097339713E0,3.446078064E0
1.586456404E1,1.667685546E0,7.422117142E-1,3.029547679E0,3.536977870E0
1.587455004E1,2.374203444E0,4.430630816E-1,2.875032082E0,3.754857702E0
1.588453604E1,3.092517514E0,2.412064165E-1,2.663602027E0,4.088596442E0
1.589452204E1,3.693211334E0,-1.351518848E-1,2.341957803E0,4.375253403E0
1.590450800E1,4.162154521E0,-3.363164954E-1,2.055009204E0,4.653998482E0
1.591449400E1,4.485004148E0,-5.092929219E-1,1.847182202E0,4.877163476E0
1.592448000E1,4.583867700E0,-8.902837528E-1,1.776893992E0,4.996178591E0
1.593446600E1,4.516063095E0,-1.121887726E0,1.961525089E0,5.049855307E0
1.594445200E1,4.645912213E0,-1.474770991E0,2.287313234E0,5.384352477E0
1.595443800E1,4.914170188E0,-2.074637868E0,2.548114840E0,5.911520968E0
1.596442400E1,5.130169258E0,-2.842233295E0,2.432623560E0,6.349376671E0
1.597441000E1,5.553060944E0,-3.233871321E0,2.016959032E0,6.735171365E0
1.598439600E1,5.934332149E0,-3.505590556E0,1.640300111E0,7.084916912E0
1.599438100E1,6.253567904E0,-3.771703480E0,1.297495984E0,7.417301025E0
1.600436700E1,6.603919618E0,-3.940370800E0,8.426755768E-1,7.736173375E0
1.601435400E1,6.981138117E0,-3.926680714E0,1.131389451E-1,8.010487580E0
1.602433900E1,7.248559356E0,-3.792867769E0,-4.515278399E-1,8.193371469E0
1.603432500E1,6.936420951E0,-3.783765701E0,-5.438729167E-1,7.920013651E0
1.604431100E1,6.103258794E0,-4.027922622E0,-4.932097167E-1,7.329200801E0
1.605429800E1,5.322880622E0,-4.339102961E0,-6.325804406E-1,6.896450582E0
1.606428400E1,4.481081251E0,-4.822560107E0,-7.139842075E-1,6.621702848E0
1.607426900E1,3.635766533E0,-5.021856605E0,-1.041558092E0,6.286707032E0
1.608425500E1,2.671833445E0,-5.193861809E0,-1.731168766E0,6.091948764E0
1.609424100E1,1.846112162E0,-5.478042337E0,-2.682238857E0,6.372713962E0
1.610422700E1,1.187204633E0,-5.911890535E0,-3.408299904E0,6.926500760E0
1.611421300E1,5.415156117E-1,-6.687835933E0,-4.024620992E0,7.824190869E0
1.612419900E1,-1.047265559E-2,-7.597883713E0,-5.300535488E0,9.264104007E0
1.613418500E1,-5.338697925E-1,-8.764869259E0,-7.015865901E0,1.123967635E1
1.614417100E1,-1.150855417E0,-9.972979442E0,-9.768012314E0,1.400710005E1
1.615415700E1,-1.924873280E0,-1.083970637E1,-1.234156254E1,1.653839585E1
1.616414300E1,-2.302231820E0,-1.137084756E1,-1.433394397E1,1.844067231E1
1.617412900E1,-2.573589404E0,-1.205868010E1,-1.526156381E1,1.962015438E1
1.618411500E1,-2.977296668E0,-1.231836898E1,-1.490063039E1,1.956106581E1
1.619410100E1,-3.699255893E0,-1.207440677E1,-1.332532149E1,1.835864880E1
1.620408700E1,-4.851320221E0,-1.156762976E1,-1.120723662E1,1.682104392E1
1.621407300E1,-6.797801594E0,-1.050984389E1,-8.689634889E0,1.523734490E1
1.622405900E1,-9.236561222E0,-9.245591662E0,-6.282780594E0,1.450063310E1
1.623404500E1,-1.146835456E1,-8.241276240E0,-4.176601821E0,1.472704292E1
1.624403100E1,-1.331887084E1,-7.151496745E0,-2.476439086E0,1.531890913E1
1.625401700E1,-1.493133996E1,-6.282789949E0,-1.153539289E0,1.624035146E1
1.626400300E1,-1.617726935E1,-5.717222693E0,2.135368073E-1,1.715914558E1
1.627398900E1,-1.673250458E1,-4.767576984E0,1.699279221E0,1.748124851E1
1.628397500E1,-1.683849121E1,-3.790329493E0,3.255833756E0,1.756422037E1
1.629396100E1,-1.683320182E1,-3.104871511E0,4.569822981E0,1.771666426E1
1.630394700E1,-1.703108680E1,-1.945884664E0,5.863848642E0,1.811709429E1
1.631393300E1,-1.729243980E1,7.418179773E-2,7.405258888E0,1.881148150E1
1.632391900E1,-1.651439291E1,1.343431271E0,8.287026610E0,1.852578718E1
1.633390500E1,-1.439114377E1,1.458566602E0,9.244408185E0,1.716658144E1
1.634389100E1,-1.173599799E1,1.502480654E0,9.754279543E0,1.533417968E1
1.635387700E1,-8.990185282E0,1.397508368E0,9.689267861E0,1.329128936E1
1.636386300E1,-6.756671110E0,1.007697451E0,9.332437432E0,1.156557163E1
1.637384900E1,-5.270325848E0,6.630659227E-1,9.306305641E0,1.071556418E1
1.638383500E1,-3.994205530E0,2.794855061E-1,9.261496673E0,1.008995097E1
1.639382100E1,-2.549801762E0,-1.594591257E-1,9.202081946E0,9.550142845E0
1.640380700E1,-1.342416341E0,-2.404022782E-1,9.278708537E0,9.378395759E0
1.641379300E1,7.128135949E-2,-1.730177955E-1,9.443212933E0,9.445066791E0
1.642377900E1,2.029118317E0,-1.309403546E-1,1.017899673E1,1.038009831E1
1.643376500E1,4.066953079E0,-5.887780711E-2,1.112649827E1,1.184662558E1
1.644375100E1,6.032334992E0,-2.555043206E-2,1.190791081E1,1.334870998E1
1.645373700E1,7.475416120E0,-1.398655446E-1,1.223176119E1,1.433587773E1
1.646372300E1,8.324859849E0,-4.055865589E-1,1.217299901E1,1.475295553E1
1.647370900E1,8.426468670E0,-6.038526316E-1,1.141340944E1,1.419985660E1
1.648369500E1,7.579446858E0,-8.192685878E-1,9.845761571E0,1.245223822E1
1.649368100E1,6.210164022E0,-1.074742503E0,8.101864001E0,1.026457057E1
1.650366700E1,4.945247555E0,-1.341011547E0,6.460043614E0,8.245359231E0
1.651365300E1,4.118236669E0,-1.194084759E0,4.705051537E0,6.365785233E0
1.652363900E1,3.570192348E0,-9.464984456E-1,3.442151774E0,5.048815856E0
