"Time (s)","Linear Acceleration x (m/s^2)","Linear Acceleration y (m/s^2)","Linear Acceleration z (m/s^2)","Absolute acceleration (m/s^2)"
6.839999696E-4,5.860605776E-1,-5.839799921E-1,4.128338903E-2,8.283742814E-1
1.066999999E-2,5.598089182E-1,-2.815395599E-1,9.024534166E-2,6.330835414E-1
2.065500000E-2,3.365774274E-1,2.020249553E-1,1.148618272E-1,4.090130640E-1
3.064099996E-2,1.641196489E-1,3.515090235E-1,1.393809566E-1,4.122146332E-1
4.062699998E-2,2.003659540E-1,1.259555302E-1,2.032498008E-1,3.119644093E-1
5.061300000E-2,6.320559454E-1,7.959105693E-2,-5.530939758E-2,6.394439646E-1
6.059900002E-2,8.856374091E-1,2.000515200E-2,-8.547372133E-2,8.899772938E-1
7.058499998E-2,9.762090254E-1,-5.103617929E-2,-9.047162890E-2,9.817198523E-1
8.057100000E-2,2.957492441E-1,-2.177744307E-2,1.129062259E-1,3.173163851E-1
9.055700002E-2,7.936349791E-1,-2.320765740E-1,-1.075343889E-1,8.338343127E-1
1.005430000E-1,9.265579784E-1,-1.711524606E-1,3.681795815E-1,1.011612108E0
1.105290000E-1,1.438162451E0,-1.630620338E-1,7.865811905E-1,1.647303989E0
1.205150000E-1,2.305444281E0,-2.911922166E-1,1.943043502E0,3.029073173E0
1.305000000E-1,3.084820240E0,-7.992778346E-1,2.369431823E0,3.971041190E0
1.404860000E-1,4.055189066E0,-1.122838848E0,2.458787511E0,4.873495816E0
1.504720000E-1,3.280493218E0,-5.529991047E-1,2.634507159E0,4.243591844E0
1.604580000E-1,2.772360238E0,-4.882954974E-1,2.156087097E0,3.545860312E0
1.704440000E-1,2.402471808E0,-4.810902659E-1,2.078159938E0,3.212797435E0
1.804300000E-1,1.950146992E0,-5.571985019E-1,2.102821886E0,2.921541262E0
1.904160000E-1,1.478162084E0,-6.142279311E-1,1.869526606E0,2.461172247E0
2.004020000E-1,1.060746900E0,-4.723863565E-1,1.599901114E0,1.976870362E0
2.103880000E-1,6.212619853E-1,-1.421307194E-1,1.244424900E0,1.398127651E0
2.203740000E-1,1.066128677E-1,1.169764727E-1,8.319763416E-1,8.468969428E-1
2.303590000E-1,-3.262565070E-1,2.423664310E-1,6.113422205E-1,7.341145046E-1
2.403450000E-1,-5.195397288E-1,1.757497609E-1,5.353663874E-1,7.664376536E-1
2.503310000E-1,-6.252182114E-1,4.203990179E-1,3.096311188E-1,8.145579021E-1
2.603170000E-1,-9.478073448E-1,8.622627260E-1,8.900412396E-2,1.284428864E0
2.703030000E-1,-1.141162487E0,7.694150810E-1,-1.638850294E-2,1.376415625E0
2.802890000E-1,-8.384685051E-1,5.307555655E-1,1.567369545E-1,1.004637933E0
2.902750000E-1,-5.706689519E-1,4.395860348E-1,5.306630333E-1,8.947078794E-1
3.002610000E-1,-4.230770427E-1,3.084242535E-1,7.682868607E-1,9.297227568E-1
3.102470000E-1,-8.033840418E-2,3.472461840E-1,1.085778830E0,1.142781624E0
3.202330000E-1,3.292151982E-1,3.790308443E-1,1.311814646E0,1.404601257E0
3.302180000E-1,6.369658524E-1,6.374232508E-2,1.291732676E0,1.441652485E0
3.402040000E-1,1.119505570E0,-1.588177592E-1,8.856397480E-1,1.436270714E0
3.501900000E-1,1.613129854E0,5.693390027E-2,-5.708168864E-2,1.615143249E0
3.601760000E-1,1.754048336E0,1.352797195E-1,-8.563165462E-1,1.956595051E0
3.701620000E-1,1.311575494E0,1.646592738E-1,-1.336899201E0,1.880064474E0
3.801480000E-1,8.852397984E-1,-9.751207855E-2,-1.998881196E0,2.188306227E0
3.901340000E-1,6.567978537E-1,-3.768271018E-2,-2.511301939E0,2.596043304E0
4.001200000E-1,5.760793805E-2,5.755100079E-2,-2.907477112E0,2.908617189E0
4.101060000E-1,-2.652946061E-1,-1.051010336E-1,-3.132865641E0,3.145834481E0
4.200920000E-1,-4.197628409E-1,-4.144696489E-1,-2.909636489E0,2.968833177E0
4.300780000E-1,-2.618739849E-1,-6.848692397E-1,-2.648860611E0,2.748469828E0
4.400630000E-1,-1.784546828E-1,-6.664626434E-1,-2.215525798E0,2.320468291E0
4.500490000E-1,-3.530905491E-1,-7.742873465E-1,-2.070075724E0,2.238170533E0
4.600350000E-1,-3.875359118E-1,-9.512322052E-1,-2.307870875E0,2.526122477E0
4.700210000E-1,-4.047185397E-1,-7.886702545E-1,-2.656612850E0,2.800605238E0
4.800070000E-1,-4.842541212E-1,-6.584053995E-1,-3.104361634E0,3.210149666E0
4.899930000E-1,-7.407264483E-1,-4.455296930E-1,-3.343988133E0,3.453900550E0
4.999790000E-1,-1.413308276E0,-4.157148135E-1,-3.038551807E0,3.376841153E0
5.099650000E-1,-2.117399579E0,-5.245839755E-1,-2.307100797E0,3.175103685E0
5.199510000E-1,-2.539067443E0,-6.299091402E-1,-1.371312404E0,2.953666656E0
5.299370000E-1,-2.876930088E0,-7.495310394E-1,-3.809958011E-1,2.997278985E0
5.399220000E-1,-3.244036413E0,-9.161100273E-1,2.969163483E-1,3.383960572E0
5.499080000E-1,-3.472036309E0,-1.010627929E0,5.432016563E-1,3.656702474E0
5.598940000E-1,-3.578335766E0,-8.531473553E-1,6.303590834E-1,3.732251309E0
5.698800000E-1,-3.756410964E0,-6.636712557E-1,5.640294385E-1,3.856061731E0
5.798660000E-1,-4.074343960E0,-4.668473987E-1,7.388249338E-1,4.167023815E0
5.898520000E-1,-4.484205126E0,-4.969260608E-1,1.090975835E0,4.641687128E0
5.998380000E-1,-4.897613797E0,-6.092497578E-1,9.926946652E-1,5.034207869E0
6.098240000E-1,-5.106195674E0,-4.845897514E-1,5.374731392E-1,5.157222010E0
6.198100000E-1,-4.917867383E0,-4.000843289E-1,5.923814178E-2,4.934470207E0
6.297960000E-1,-4.564333615E0,-4.258500847E-1,-8.570731759E-2,4.584957512E0
6.397820000E-1,-4.230735344E0,-4.979187718E-1,2.417285728E-1,4.266787709E0
6.497670000E-1,-3.943480350E0,-6.498925844E-1,9.666874194E-1,4.111919528E0
6.597530000E-1,-3.672028041E0,-7.884967384E-1,2.040278898E0,4.274137927E0
6.697390000E-1,-3.577158721E0,-1.051234357E0,3.214810275E0,4.923023796E0
6.797250000E-1,-3.752455907E0,-1.414558995E0,3.975150624E0,5.646567539E0
6.897110000E-1,-4.293643783E0,-1.780673340E0,4.140843759E0,6.225171605E0
6.996970000E-1,-4.175221294E0,-2.031461589E0,3.764000650E0,5.977207536E0
7.096830000E-1,-3.329444938E0,-2.161868824E0,3.121816742E0,5.050209915E0
7.196690000E-1,-2.527407510E0,-2.119302263E0,2.620650135E0,4.212723339E0
7.296550000E-1,-2.147353696E0,-2.144633279E0,2.481346069E0,3.920160470E0
7.396410000E-1,-2.092713220E0,-2.156383258E0,2.821787921E0,4.122126205E0
7.496260000E-1,-2.197359084E0,-2.132943379E0,3.853056668E0,4.921776111E0
7.596120000E-1,-2.478837613E0,-2.368483112E0,4.980254835E0,6.046262183E0
7.695980000E-1,-2.403652360E0,-2.952148378E0,5.812408932E0,6.948152438E0
7.795840000E-1,-1.920012197E0,-3.538429103E0,6.083816802E0,7.295187060E0
7.895697500E-1,-1.199434669E0,-3.770847740E0,5.862663996E0,7.073101536E0
7.995557500E-1,-5.196467328E-1,-3.182131941E0,5.732424284E0,6.576981420E0
8.095417500E-1,-1.821735120E-1,-2.912143191E0,5.761156332E0,6.457916648E0
8.195277500E-1,8.970388949E-2,-3.154292178E0,5.917908490E0,6.706656904E0
8.295137500E-1,8.944082326E-1,-3.501294314E0,6.042465293E0,7.040626021E0
8.394997500E-1,1.786675215E0,-3.435861340E0,5.934396468E0,7.086212875E0
8.494857500E-1,2.523274114E0,-3.219334266E0,5.537940629E0,6.884752122E0
8.594707500E-1,3.042181758E0,-2.859410076E0,5.177690749E0,6.651283886E0
8.694567500E-1,3.480180895E0,-2.868549567E0,5.066731646E0,6.783214964E0
8.794427500E-1,3.776012585E0,-3.123948345E0,4.881954369E0,6.917427467E0
8.894287500E-1,4.120628765E0,-3.351685700E0,4.464674841E0,6.938782305E0
8.994147500E-1,4.055162753E0,-3.183373305E0,4.058905556E0,6.561472767E0
9.094007500E-1,3.688932341E0,-3.095734360E0,3.803733650E0,6.136789285E0
9.193867500E-1,3.096443920E0,-2.914689653E0,3.889281923E0,5.762802669E0
9.293727500E-1,2.695702071E0,-3.417442610E0,4.013852175E0,5.920872650E0
9.393587500E-1,3.250894613E0,-3.768732217E0,3.792515767E0,6.257382372E0
9.493447500E-1,4.250355676E0,-3.784007483E0,3.134233305E0,6.496741831E0
9.593297500E-1,5.211404625E0,-3.766107402E0,2.207154924E0,6.798075903E0
9.693157500E-1,6.032968830E0,-3.577846938E0,1.674591107E0,7.211238243E0
9.793017500E-1,6.373659773E0,-3.600835851E0,1.483107951E0,7.469214613E0
9.892877500E-1,6.119921604E0,-4.073882614E0,1.219394140E0,7.452307164E0
9.992737500E-1,6.204344289E0,-4.858363193E0,6.845811912E-1,7.909881944E0
1.009259750E0,7.200218670E0,-5.598594382E0,-2.449889803E-1,9.124002825E0
1.019245750E0,8.860301666E0,-5.963124424E0,-1.320044602E0,1.076133432E1
1.029231750E0,9.639216864E0,-6.175785318E0,-2.093411962E0,1.163774891E1
1.039217750E0,9.191447030E0,-6.527000080E0,-2.545761043E0,1.155704667E1
1.049203750E0,7.963989580E0,-6.625301716E0,-2.506891969E0,1.065852993E1
1.059188750E0,6.514776476E0,-6.729411390E0,-2.102933714E0,9.599459381E0
1.069174750E0,5.067309936E0,-6.658627337E0,-1.893970306E0,8.579164966E0
1.079160750E0,3.483228464E0,-6.405675618E0,-2.258006112E0,7.633095850E0
1.089146750E0,2.193936709E0,-5.992827694E0,-2.730209999E0,6.941281488E0
1.099132750E0,6.770613796E-1,-5.441113662E0,-3.258631064E0,6.378307487E0
1.109118750E0,-8.579783249E-1,-4.860132268E0,-4.057864752E0,6.389309729E0
1.119104750E0,-2.085511204E0,-4.212726212E0,-4.923911065E0,6.807445871E0
1.129090750E0,-2.755839515E0,-3.536255109E0,-5.569731356E0,7.149941189E0
1.139076750E0,-3.327401336E0,-2.883971305E0,-6.010481608E0,7.450824069E0
1.149062750E0,-3.935747407E0,-2.522579464E0,-6.441319660E0,7.958901543E0
1.159048750E0,-4.327869875E0,-2.019428604E0,-6.815120462E0,8.321923843E0
1.169033750E0,-4.640946758E0,-1.340267782E0,-7.026670386E0,8.526945599E0
1.179019750E0,-4.879914860E0,-7.704779586E-1,-6.924559289E0,8.506275723E0
1.189005750E0,-5.051782070E0,-3.333250599E-1,-6.567096777E0,8.292066555E0
1.198991750E0,-5.242025324E0,-1.489627889E-1,-5.889715555E0,7.886048993E0
1.208977750E0,-5.297326536E0,-7.417850867E-2,-5.172408375E0,7.404119074E0
1.218963750E0,-4.953007979E0,1.270588267E-1,-4.753655348E0,6.866270542E0
1.228949750E0,-4.354485231E0,3.169534408E-1,-4.446441468E0,6.231600343E0
1.238935750E0,-3.639651423E0,4.688876384E-1,-4.093620476E0,5.497694671E0
1.248921750E0,-2.915745075E0,4.518485597E-1,-3.526309580E0,4.597890355E0
1.258907750E0,-2.407451296E0,3.103275222E-1,-2.617480359E0,3.569779874E0
1.268893750E0,-2.055584570E0,6.065609157E-2,-1.783759793E0,2.722297942E0
1.278878750E0,-1.518869814E0,-8.462558270E-2,-1.086483858E0,1.869378018E0
1.288864750E0,-6.467681247E-1,-1.634320164E-1,-3.528956906E-1,7.546882797E-1
1.298850750E0,1.008463436E-1,-1.114034915E-1,3.315720646E-1,3.640340052E-1
1.308836750E0,4.119310802E-1,-1.123174113E-1,7.805740535E-1,8.897180839E-1
1.318822750E0,4.261936086E-1,-1.390388945E-1,1.058060543E0,1.149114841E0
1.328808750E0,2.586860830E-1,-1.083445206E-1,1.080910146E0,1.116702184E0
1.338794750E0,5.074389160E-2,-7.004233450E-2,9.225605294E-1,9.266060660E-1
1.348780750E0,-6.013919771E-2,-9.096805751E-2,5.735628851E-1,5.838375577E-1
1.358766750E0,6.896790862E-2,-2.526581883E-3,1.703902030E-1,1.838362786E-1
1.368752750E0,1.310004348E-1,1.240217829E-1,-5.476706833E-2,1.885257232E-1
1.378737750E0,1.541472226E-1,1.040283984E-1,-2.082178876E-2,1.871278194E-1
1.388723750E0,2.310088724E-1,-9.104114771E-4,2.263259836E-1,3.234028120E-1
1.398709750E0,3.432625490E-1,-5.367743969E-3,6.815118416E-1,7.630965735E-1
1.408695750E0,3.216442233E-1,7.314574420E-3,1.159493216E0,1.203300888E0
1.418681750E0,2.598993802E-1,-7.799922556E-2,1.515146892E0,1.539253609E0
1.428667750E0,1.148919404E-1,-2.418443477E-1,1.813182982E0,1.832845158E0
1.438653750E0,4.078315973E-2,-3.609424827E-1,1.841923217E0,1.877398167E0
1.448639750E0,-5.503984094E-3,-3.971706614E-1,1.627376303E0,1.675150280E0
1.458625750E0,-1.897140813E-1,-3.602770695E-1,1.276647152E0,1.340007071E0
1.468611750E0,-5.195058149E-1,-3.468495235E-1,8.250339425E-1,1.034829401E0
1.478597750E0,-9.807949966E-1,-4.576104060E-1,3.946016872E-1,1.151988108E0
1.488582750E0,-1.048275958E0,-6.226822740E-1,-2.240419149E-2,1.219474332E0
1.498568750E0,-7.066857129E-1,-8.836265516E-1,-5.117348653E-1,1.241802380E0
1.508554750E0,1.859747869E-1,-1.103528346E0,-1.066925068E0,1.546185801E0
1.518540750E0,1.336427915E0,-1.054335428E0,-1.590001485E0,2.329327690E0
1.528526750E0,2.403244225E0,-1.069271556E0,-2.080366239E0,3.353632084E0
1.538512750E0,3.281173249E0,-1.073000325E0,-2.189191108E0,4.087784889E0
1.548498750E0,3.920124816E0,-1.133887382E0,-1.896512822E0,4.499982228E0
1.558484750E0,4.267614318E0,-1.231515418E0,-1.352186746E0,4.643013158E0
1.568470750E0,4.426863236E0,-1.366824081E0,-6.439193612E-1,4.677601770E0
1.578456750E0,4.516123322E0,-1.556308951E0,-4.425465167E-3,4.776765327E0
1.588442750E0,4.869396304E0,-1.744659462E0,5.056707180E-1,5.197168448E0
1.598427750E0,5.346351930E0,-1.840045091E0,9.659828299E-1,5.736058553E0
1.608413750E0,6.050317519E0,-2.029277946E0,1.437298232E0,6.541417069E0
1.618399750E0,6.820689935E0,-2.393602166E0,1.707553031E0,7.427441005E0
1.628385750E0,6.923378152E0,-2.876133698E0,1.529451520E0,7.651439867E0
1.638371750E0,6.587932745E0,-3.414536544E0,9.456339347E-1,7.480250076E0
1.648357750E0,5.913721883E0,-3.838043065E0,1.224868888E-1,7.051076806E0
1.658343750E0,4.971989211E0,-4.181572832E0,-7.205170092E-1,6.536464856E0
1.668329750E0,3.718695838E0,-4.491781948E0,-1.459126473E0,6.011144140E0
1.678315750E0,2.412682800E0,-4.740323696E0,-2.212464196E0,5.760790298E0
1.688301750E0,1.193909635E0,-4.828978010E0,-2.778743058E0,5.697882223E0
1.698286750E0,-5.152040184E-2,-4.901347537E0,-2.989370291E0,5.741271354E0
1.708272750E0,-1.138341790E0,-4.799995117E0,-3.307096880E0,5.939079468E0
1.718258750E0,-2.187895950E0,-4.534597600E0,-3.817787140E0,6.318620318E0
1.728244750E0,-3.122944670E0,-4.145601053E0,-4.347653344E0,6.770589421E0
1.738230750E0,-3.769066093E0,-3.674461360E0,-4.784557298E0,7.113333539E0
1.748216750E0,-4.316794079E0,-3.388550056E0,-5.039225174E0,7.450555211E0
1.758202750E0,-4.601675688E0,-3.220678541E0,-5.363784819E0,7.766490648E0
1.768188750E0,-4.482169125E0,-2.974393233E0,-5.735239134E0,7.863194204E0
1.778174750E0,-4.596117910E0,-2.962339783E0,-5.918311948E0,8.057677900E0
1.788161042E0,-4.979144449E0,-3.244188441E0,-5.607768078E0,8.170905758E0
1.798147042E0,-5.420410425E0,-3.544393556E0,-4.815019537E0,8.070191324E0
1.808132042E0,-6.182416061E0,-3.702850761E0,-3.977987108E0,8.231509797E0
1.818118042E0,-6.854548237E0,-3.867627345E0,-3.230079110E0,8.507454606E0
1.828104042E0,-6.804278555E0,-4.203074798E0,-2.653400974E0,8.426421609E0
1.838090042E0,-7.247359507E0,-4.103200261E0,-2.084551676E0,8.585209834E0
1.848076042E0,-7.827409147E0,-4.027184411E0,-1.054167613E0,8.865541021E0
1.858062042E0,-7.535238399E0,-4.079847359E0,4.000951463E-1,8.578172785E0
1.868048042E0,-7.572309161E0,-4.102301837E0,6.018126842E-1,8.633129496E0
1.878034042E0,-7.101365057E0,-3.861348020E0,1.314316669E0,8.189433589E0
1.888020042E0,-6.698247485E0,-3.662734769E0,1.273437323E0,7.739753741E0
1.898006042E0,-6.191994385E0,-3.816044670E0,7.518376198E-1,7.312198793E0
1.907991042E0,-5.565337173E0,-3.632860174E0,6.858415586E-1,6.681394281E0
1.917977042E0,-5.241863941E0,-3.379612587E0,1.113875871E0,6.335585077E0
1.927963042E0,-4.964872565E0,-3.389760722E0,1.993467259E0,6.333588955E0
1.937949042E0,-4.664579449E0,-3.503022459E0,3.131815481E0,6.621007174E0
1.947935042E0,-4.201123289E0,-3.533125387E0,4.325004739E0,6.988424564E0
1.957921042E0,-3.521639408E0,-3.366579728E0,5.295299891E0,7.195554469E0
1.967907042E0,-2.794014816E0,-2.950746216E0,5.912025606E0,7.173943740E0
1.977893042E0,-1.893625467E0,-2.439105198E0,6.363804876E0,7.073405409E0
1.987879042E0,-1.199270947E0,-1.956294462E0,6.970309074E0,7.338293222E0
1.997865042E0,-1.241190221E0,-1.781528496E0,7.790322012E0,8.087243906E0
2.007851042E0,-1.662439424E0,-1.949871004E0,8.427078534E0,8.808027838E0
2.017836042E0,-2.123285971E0,-2.175402789E0,8.718810157E0,9.233545969E0
2.027822042E0,-2.437882546E0,-2.451671011E0,8.711247953E0,9.372289098E0
2.037808042E0,-2.180237852E0,-3.000061925E0,8.253067735E0,9.048034908E0
2.047794042E0,-1.362666711E0,-3.618979177E0,7.458394291E0,8.401280631E0
2.057780042E0,3.453424037E-2,-4.416661014E0,6.408809141E0,7.783374701E0
2.067766042E0,1.355196308E0,-4.454126464E0,5.401884692E0,7.131350350E0
2.077752042E0,2.420950179E0,-4.167473148E0,4.483403472E0,6.582532864E0
2.087738042E0,3.419021358E0,-3.846099066E0,3.885571280E0,6.448243889E0
2.097724042E0,4.190165023E0,-4.200528920E0,3.650012105E0,6.965953954E0
2.107710042E0,5.277017401E0,-5.349419965E0,3.426382418E0,8.258529112E0
2.117696042E0,6.720161680E0,-5.638781710E0,3.037178881E0,9.283366185E0
2.127681042E0,8.487936355E0,-5.257028110E0,2.677615464E0,1.033687732E1
2.137667042E0,9.366043135E0,-4.932502964E0,2.722789882E0,1.093004731E1
2.147653042E0,8.591250224E0,-5.123284162E0,3.437893247E0,1.057717973E1
2.157639042E0,7.247509196E0,-6.404004484E0,4.344495848E0,1.060246703E1
2.167625042E0,6.457824011E0,-8.038401831E0,4.089402879E0,1.109245739E1
2.177611042E0,6.527866053E0,-8.316139897E0,2.357508473E0,1.083185414E1
2.187597042E0,7.052500461E0,-7.669809728E0,1.150387055E-1,1.042002773E1
2.197583042E0,7.350533043E0,-7.210751844E0,-1.715440925E0,1.043877463E1
2.207569042E0,7.181069623E0,-7.125654391E0,-2.787487277E0,1.049346448E1
2.217555042E0,6.231499343E0,-7.149170138E0,-3.275805506E0,1.003359953E1
2.227540042E0,5.353616511E0,-7.140908023E0,-3.501016864E0,9.587017066E0
2.237526042E0,4.922752731E0,-7.091414266E0,-3.943070168E0,9.490492774E0
2.247512042E0,4.582710829E0,-6.721558580E0,-4.540826638E0,9.316635382E0
2.257498042E0,4.021108570E0,-6.124850222E0,-5.450666842E0,9.131969853E0
2.267484042E0,3.116961799E0,-5.682521807E0,-6.405560428E0,9.112502913E0
2.277470042E0,2.198760077E0,-5.092990907E0,-6.735007761E0,8.725447369E0
2.287456042E0,8.639255279E-1,-4.580200619E0,-6.690197039E0,8.153731750E0
2.297442042E0,-3.792545003E-1,-4.542552152E0,-6.615639192E0,8.034008709E0
2.307428042E0,-1.483097718E0,-4.140938483E0,-6.792647274E0,8.092404300E0
2.317414042E0,-2.227635382E0,-3.551868344E0,-7.243661728E0,8.369513926E0
2.327400042E0,-2.752973210E0,-3.001890057E0,-7.375218233E0,8.425203225E0
2.337385042E0,-3.197110169E0,-2.626475716E0,-7.048441908E0,8.173152479E0
2.347371042E0,-3.752371708E0,-2.460242298E0,-6.479443506E0,7.881387806E0
2.357357042E0,-4.151052412E0,-2.436599082E0,-5.844737602E0,7.571605435E0
2.367343042E0,-4.418261397E0,-2.243133135E0,-5.391972492E0,7.322980772E0
2.377329042E0,-4.193653471E0,-1.756103925E0,-5.115858783E0,6.844168431E0
2.387315042E0,-3.575320941E0,-1.275201135E0,-5.039053266E0,6.308812534E0
2.397301042E0,-3.071657572E0,-9.753778437E-1,-4.958210832E0,5.913568874E0
2.407287042E0,-2.585804238E0,-9.251467529E-1,-4.620279189E0,5.374873009E0
2.417273042E0,-2.089224771E0,-9.321803686E-1,-3.940914592E0,4.556822160E0
2.427259042E0,-1.946656789E0,-9.047610202E-1,-3.205909059E0,3.858227320E0
2.437245042E0,-1.791245399E0,-8.913013145E-1,-2.704636617E0,3.364229085E0
2.447230042E0,-1.556087342E0,-7.402662724E-1,-2.273133298E0,2.852461561E0
2.457216042E0,-1.176362725E0,-5.726070115E-1,-1.952870625E0,2.350619435E0
2.467202042E0,-6.546688825E-1,-3.722308248E-1,-1.630163963E0,1.795712025E0
2.477188042E0,-1.796557009E-1,-3.334246087E-1,-1.185616383E0,1.244642257E0
2.487174042E0,2.534504861E-1,-3.302320290E-1,-5.919558866E-1,7.236726564E-1
2.497160042E0,6.597454351E-1,-3.125769460E-1,9.439628005E-2,7.361243401E-1
2.507146042E0,7.953312564E-1,-3.128570276E-1,7.092599496E-1,1.110621899E0
2.517132042E0,6.598226184E-1,-3.154172310E-1,1.007154976E0,1.244674681E0
2.527118042E0,3.022338063E-1,-2.196965566E-1,1.041008015E0,1.106033245E0
2.537104042E0,-1.416756964E-1,-6.311776936E-3,9.697232938E-1,9.800383196E-1
2.547089042E0,-4.969168514E-1,1.175629485E-1,8.116090277E-1,9.588830053E-1
2.557075042E0,-5.784059876E-1,1.989789945E-1,5.578615031E-1,8.278620558E-1
2.567061042E0,-4.691367298E-1,3.444255602E-1,3.963045426E-1,7.041132922E-1
2.577047042E0,-4.712060595E-1,4.258977395E-1,4.411007926E-1,7.733006816E-1
2.587033042E0,-5.140339905E-1,4.284605742E-1,5.966709352E-1,8.965632225E-1
2.597019042E0,-4.258211410E-1,3.676694119E-1,6.476723966E-1,8.578950833E-1
2.607005042E0,-2.715809476E-1,3.206768015E-1,5.284177025E-1,6.751407930E-1
2.616991042E0,-2.516477895E-1,2.916398209E-1,3.647130597E-1,5.304677285E-1
2.626977042E0,-3.499207735E-1,1.320675516E-1,3.209840727E-1,4.928662707E-1
2.636963042E0,-3.986000133E-1,-6.134927899E-2,1.439385688E-1,4.282102477E-1
2.646949042E0,-4.420495033E-2,-9.519296318E-2,-1.587998521E-1,1.903501272E-1
2.656934042E0,4.807738584E-1,-8.042903602E-2,-5.124438402E-1,7.072559806E-1
2.666920042E0,9.320409125E-1,-2.072177213E-1,-7.135205233E-1,1.191952593E0
2.676906042E0,1.154971272E0,-4.264555639E-1,-6.693544570E-1,1.401377314E0
2.686892042E0,1.359195803E0,-5.949322656E-1,-5.104171953E-1,1.569038988E0
2.696878042E0,1.527154149E0,-7.224290487E-1,-2.511613011E-1,1.707977027E0
2.706864042E0,1.607418294E0,-8.626946890E-1,1.211253646E-1,1.828307155E0
2.716850042E0,1.788367984E0,-9.729948109E-1,4.341209713E-1,2.081691611E0
2.726836042E0,1.848524723E0,-1.068499723E0,8.752100694E-1,2.307537210E0
2.736822042E0,2.240657131E0,-1.217204942E0,1.323044223E0,2.872730107E0
2.746808042E0,2.870701634E0,-1.144837462E0,1.795261559E0,3.574149514E0
2.756793042E0,3.253541647E0,-1.142952320E0,2.398802680E0,4.200729407E0
2.766779042E0,3.460262355E0,-1.227323549E0,2.916008200E0,4.688586406E0
2.776765042E0,3.479745862E0,-1.201436756E0,3.117798536E0,4.824183792E0
2.786751375E0,3.418713210E0,-1.194282103E0,3.007603371E0,4.707397136E0
2.796737375E0,3.282086585E0,-1.175351157E0,2.821762778E0,4.485073898E0
2.806723375E0,3.448207151E0,-1.421805450E0,2.469307821E0,4.473158214E0
2.816709375E0,3.830543134E0,-1.601343622E0,1.904638698E0,4.567823405E0
2.826695375E0,4.518510155E0,-1.701840886E0,1.243127696E0,4.985836228E0
2.836681375E0,4.899738675E0,-1.998732677E0,6.642358044E-1,5.333252348E0
2.846667375E0,5.079896067E0,-2.564183573E0,1.081296355E-1,5.691403471E0
2.856653375E0,5.295421513E0,-3.031757342E0,-5.577167845E-1,6.127323200E0
2.866638375E0,5.111371629E0,-3.502419026E0,-1.317972933E0,6.334833196E0
2.876624375E0,4.498005139E0,-4.053818479E0,-2.141816967E0,6.422840058E0
2.886610375E0,3.746194124E0,-4.532910678E0,-2.868760651E0,6.543014390E0
2.896596375E0,2.564396996E0,-4.875543774E0,-3.403232707E0,6.475264620E0
2.906582375E0,1.265426345E0,-5.332901580E0,-4.028834496E0,6.802400348E0
2.916568375E0,3.226973069E-1,-5.418170357E0,-4.728635112E0,7.198659152E0
2.926554375E0,-4.613382983E-1,-5.190676830E0,-5.461887649E0,7.549051310E0
2.936540375E0,-1.374014402E0,-5.011842663E0,-6.088961767E0,8.005119478E0
2.946526375E0,-2.253024577E0,-4.775415761E0,-6.513786542E0,8.385113628E0
2.956512375E0,-3.048908980E0,-4.319293179E0,-6.651585535E0,8.496807027E0
2.966498375E0,-3.591473290E0,-4.056384529E0,-6.457365589E0,8.429146231E0
2.976483375E0,-3.999179172E0,-4.003047982E0,-6.140624256E0,8.350155295E0
2.986469375E0,-4.424633693E0,-3.772657160E0,-5.738729922E0,8.169660120E0
2.996455375E0,-4.717133639E0,-3.533516565E0,-5.154245753E0,7.829644843E0
3.006441375E0,-4.699186780E0,-3.295787780E0,-4.286081579E0,7.163453691E0
3.016427375E0,-4.225780998E0,-3.278130358E0,-3.542634713E0,6.415109072E0
3.026413375E0,-3.413329094E0,-3.336239111E0,-2.739943859E0,5.503507905E0
3.036399375E0,-2.960175728E0,-3.358065012E0,-1.614755380E0,4.758852373E0
3.046385375E0,-3.040044601E0,-3.669706989E0,-6.822551689E-1,4.813947722E0
3.056371375E0,-3.401924100E0,-3.942903814E0,2.975931635E-1,5.216142230E0
3.066357375E0,-3.920356366E0,-4.348685085E0,1.009283801E0,5.941288564E0
3.076342375E0,-4.516646063E0,-4.511589975E0,1.168153235E0,6.489924325E0
3.086328375E0,-4.942378326E0,-4.650027484E0,8.065397841E-1,6.833766571E0
3.096314375E0,-4.965239185E0,-4.372529154E0,-1.225886303E-1,6.617222933E0
3.106300375E0,-5.004912543E0,-3.249476955E0,-3.237249550E-1,5.976039482E0
3.116286375E0,-5.198299845E0,-2.881979744E0,-6.078005254E-2,5.944057767E0
3.126272375E0,-5.305463521E0,-2.722061904E0,5.529667988E-1,5.988600543E0
3.136258375E0,-5.657640150E0,-2.568693531E0,1.452545432E0,6.380984779E0
3.146244375E0,-5.863269768E0,-2.686990889E0,2.382819901E0,6.875731458E0
3.156230375E0,-5.982141323E0,-2.789366865E0,2.913620782E0,7.214968356E0
3.166216375E0,-5.946700180E0,-2.407463576E0,2.963515365E0,7.066933367E0
3.176202375E0,-5.732382769E0,-1.836856604E0,2.822315925E0,6.648287116E0
3.186188375E0,-5.584167547E0,-1.544362505E0,2.637910531E0,6.366047023E0
3.196173375E0,-5.682762712E0,-1.513274029E0,2.682254060E0,6.463611775E0
3.206159375E0,-5.598967434E0,-1.493443197E0,2.943984203E0,6.499680908E0
3.216145375E0,-5.234659002E0,-1.487767889E0,3.302183757E0,6.365494932E0
3.226131375E0,-4.710997571E0,-1.440472393E0,3.752016782E0,6.192421881E0
3.236117375E0,-4.366817009E0,-1.319989345E0,4.392776307E0,6.333083479E0
3.246103375E0,-4.049430728E0,-1.478809078E0,5.129493320E0,6.700482612E0
3.256089375E0,-3.655855812E0,-1.843684690E0,5.998151584E0,7.262387857E0
3.266075375E0,-3.424210762E0,-2.130362856E0,6.654605622E0,7.781223633E0
3.276061375E0,-2.789560407E0,-2.409517410E0,6.866487667E0,7.793335249E0
3.286047375E0,-2.068294662E0,-2.561735929E0,6.793920797E0,7.549681687E0
3.296033375E0,-1.563291112E0,-2.567687809E0,6.662008781E0,7.308848117E0
3.306018375E0,-8.591039139E-1,-3.077869654E0,6.482895117E0,7.227673917E0
3.316004375E0,-2.480207616E-1,-3.887521034E0,6.398348472E0,7.490874265E0
3.325990375E0,7.643521231E-1,-4.689377783E0,6.009669430E0,7.660980669E0
3.335976375E0,1.853143439E0,-4.456028563E0,5.277285789E0,7.151229017E0
3.345962375E0,2.378084241E0,-3.914460326E0,4.435186163E0,6.375669423E0
3.355948375E0,2.982151319E0,-3.746791417E0,3.525933604E0,5.946753752E0
3.365934375E0,3.438694316E0,-3.260842481E0,3.033917888E0,5.626932560E0
3.375920375E0,3.844095225E0,-3.642153739E0,2.967783540E0,6.070427588E0
3.385906375E0,4.899045780E0,-4.375373532E0,2.892896495E0,7.177283137E0
3.395892375E0,5.601081787E0,-4.146379610E0,2.657766505E0,7.458438433E0
3.405877375E0,6.108954567E0,-4.407245827E0,2.016125219E0,7.797942202E0
3.415863375E0,6.034593186E0,-3.852726593E0,1.491771478E0,7.313357592E0
3.425849375E0,5.214142292E0,-3.451724836E0,1.561898890E0,6.445247266E0
3.435835375E0,4.464354413E0,-3.453635121E0,2.221015164E0,6.065555559E0
3.445821375E0,3.821195775E0,-4.133160517E0,2.915453007E0,6.339118176E0
3.455807375E0,3.548221436E0,-4.640844432E0,2.786309063E0,6.472312615E0
3.465793375E0,3.488641816E0,-4.591116201E0,1.944538343E0,6.085244372E0
3.475779375E0,3.948955683E0,-4.402224823E0,6.407843766E-1,5.948482075E0
3.485765375E0,4.153417026E0,-3.885097656E0,-4.451648998E-1,5.704649733E0
3.495751375E0,4.329045750E0,-3.893398363E0,-1.096559634E0,5.924662940E0
3.505737375E0,4.867531627E0,-4.579070937E0,-1.685277479E0,6.892090754E0
3.515722375E0,5.812421796E0,-4.744130234E0,-2.502550704E0,7.909094691E0
3.525708375E0,6.797008127E0,-4.912092673E0,-3.583452079E0,9.119709574E0
3.535694375E0,7.342829921E0,-4.801664497E0,-4.627121601E0,9.918840028E0
3.545680375E0,7.398350403E0,-4.753706803E0,-5.209471536E0,1.022115017E1
3.555666375E0,6.757407859E0,-4.943813233E0,-5.158696654E0,9.834429390E0
3.565652375E0,5.673847463E0,-5.068702158E0,-4.622027507E0,8.902102272E0
3.575638375E0,4.038056724E0,-5.052750953E0,-3.966155852E0,7.587264761E0
3.585624375E0,1.975436785E0,-4.950348666E0,-3.149845955E0,6.191109105E0
3.595610375E0,1.012702668E-1,-4.747643241E0,-2.685613285E0,5.455537620E0
3.605596375E0,-1.056579005E0,-4.477806810E0,-3.116527351E0,5.556964617E0
3.615582375E0,-1.581840234E0,-3.855393800E0,-3.963925724E0,5.751433476E0
3.625567375E0,-1.694868667E0,-3.173193595E0,-4.838160478E0,6.029057488E0
3.635553375E0,-1.495573338E0,-2.583075927E0,-5.489573046E0,6.248554479E0
3.645539375E0,-1.440158690E0,-2.095164665E0,-5.739253832E0,6.277165489E0
3.655525375E0,-1.527792665E0,-1.698499787E0,-5.722485187E0,6.161646588E0
3.665511375E0,-1.775070246E0,-1.394038484E0,-5.461778891E0,5.909758568E0
3.675497375E0,-2.015612419E0,-1.165384286E0,-5.046307322E0,5.557520269E0
3.685483375E0,-2.400683144E0,-9.618564498E-1,-4.589665507E0,5.268156875E0
3.695469375E0,-2.915397166E0,-7.642769864E-1,-4.190092517E0,5.161447011E0
3.705455375E0,-3.268282478E0,-5.806940031E-1,-3.624060992E0,4.914539038E0
3.715441375E0,-3.228413238E0,-4.049258235E-1,-2.922529307E0,4.373533412E0
3.725427375E0,-3.093658891E0,-3.529130861E-1,-2.293006668E0,3.866930638E0
3.735412375E0,-2.896031188E0,-3.474494478E-1,-1.730047270E0,3.391280188E0
3.745398375E0,-2.523990982E0,-3.013210559E-1,-1.318505907E0,2.863526267E0
3.755384375E0,-2.246009672E0,-2.326270893E-1,-1.003859339E0,2.471114806E0
3.765370375E0,-2.210573207E0,-1.108176005E-1,-7.721202953E-1,2.344159592E0
3.775356375E0,-2.282304509E0,-7.373075813E-2,-6.572599299E-1,2.376203003E0
3.785341875E0,-2.320876252E0,-3.790983796E-2,-7.009232819E-1,2.424705586E0
3.795327875E0,-2.044746171E0,6.594138980E-2,-7.535363822E-1,2.180172527E0
3.805313875E0,-1.342020192E0,1.238112831E-1,-7.190413181E-1,1.527536529E0
3.815299875E0,-9.454450697E-1,8.999303430E-2,-6.357910006E-1,1.142889025E0
3.825285875E0,-8.252953130E-1,-2.700185716E-2,-5.754584062E-1,1.006475947E0
3.835270875E0,-6.491339082E-1,-1.107491881E-2,-5.125983529E-1,8.271968060E-1
3.845256875E0,-6.629187191E-1,-1.840323418E-2,-4.496485448E-1,8.012388663E-1
3.855242875E0,-9.395803124E-1,-5.205746859E-2,-3.803017366E-1,1.014963327E0
3.865228875E0,-1.435815378E0,-1.113988137E-1,-1.758830774E-1,1.450830918E0
3.875214875E0,-1.821622269E0,-7.227772504E-2,-1.105788879E-1,1.826406157E0
3.885200875E0,-1.898851123E0,-6.172876328E-2,-9.268187642E-2,1.902113551E0
3.895186875E0,-1.690523016E0,-1.846229106E-2,3.630404636E-2,1.691013574E0
3.905172875E0,-1.581300536E0,-3.591856867E-2,1.504735632E-1,1.588849842E0
3.915158875E0,-1.356951057E0,-4.779952615E-2,1.361815064E-1,1.364604840E0
3.925144875E0,-1.019294234E0,-7.336706132E-2,1.569933549E-1,1.033919907E0
3.935130875E0,-6.832044643E-1,-1.263358185E-1,3.246283498E-1,7.668850270E-1
3.945115875E0,-1.409974194E-1,-1.911022103E-1,5.844059618E-1,6.308174500E-1
3.955101875E0,7.374268645E-1,-3.550569677E-1,9.203684083E-1,1.231641928E0
3.965087875E0,2.084261069E0,-5.468158203E-1,1.482474113E0,2.615507836E0
3.975073875E0,3.545982537E0,-8.267261267E-1,2.057692198E0,4.182291886E0
3.985059875E0,4.656281081E0,-1.174757665E0,2.460770302E0,5.395961411E0
3.995045875E0,5.375963985E0,-1.351740019E0,2.720690732E0,6.174977563E0
4.005031875E0,5.504678743E0,-1.471192787E0,2.854654828E0,6.372985993E0
4.015017875E0,5.297755721E0,-1.690004953E0,2.833918555E0,6.241268044E0
4.025003875E0,5.061118319E0,-2.012492929E0,2.438200780E0,5.967400563E0
4.034989875E0,5.022102188E0,-2.195030723E0,1.704662168E0,5.739820848E0
4.044975875E0,4.965367239E0,-2.257638030E0,9.237197399E-1,5.532183968E0
4.054960875E0,4.725339621E0,-2.454247148E0,3.040166223E-1,5.333346952E0
4.064946875E0,4.294216225E0,-2.760964015E0,-3.627378702E-2,5.105343384E0
4.074932875E0,3.849903849E0,-3.037661276E0,-3.447797553E-1,4.916097920E0
4.084918875E0,3.592881884E0,-3.297467101E0,-7.845758879E-1,4.939397619E0
4.094904875E0,3.301722704E0,-3.311057492E0,-1.314546172E0,4.857211769E0
4.104890875E0,2.886393222E0,-3.193378476E0,-1.759496479E0,4.650242981E0
4.114876875E0,2.446208396E0,-3.139753076E0,-1.951524889E0,4.432881037E0
4.124862875E0,2.075997784E0,-3.308261938E0,-2.025549177E0,4.399683320E0
4.134848875E0,1.864109307E0,-3.261079878E0,-2.078892010E0,4.293173356E0
4.144834875E0,1.693611515E0,-3.175181356E0,-2.026097353E0,4.129790200E0
4.154820875E0,1.667992525E0,-3.093465348E0,-1.744131751E0,3.923483463E0
4.164805875E0,1.525748479E0,-3.094809623E0,-1.112219939E0,3.625298362E0
4.174791875E0,1.136392913E0,-3.311281732E0,-3.290500143E-1,3.516283475E0
4.184777875E0,5.659332919E-1,-3.640862674E0,3.089046022E-1,3.697510454E0
4.194763875E0,1.290538967E-2,-3.935091349E0,6.143745500E-1,3.982783771E0
4.204749875E0,-6.495671868E-2,-4.054329525E0,1.069563916E-1,4.056260217E0
4.214735875E0,1.163829803E-2,-3.874177980E0,-1.479043551E0,4.146921786E0
4.224721875E0,3.382204950E-2,-3.522410071E0,-3.475933186E0,4.948800678E0
4.234707875E0,-1.297105390E-1,-3.356324881E0,-4.896793140E0,5.938040467E0
4.244693875E0,-3.949653840E-1,-3.610773194E0,-5.664973143E0,6.729457737E0
4.254679875E0,-9.432792610E-1,-3.907671416E0,-5.701480234E0,6.976141378E0
4.264665875E0,-1.797896022E0,-4.228703729E0,-4.898479185E0,6.716357916E0
4.274650875E0,-2.915185497E0,-4.603662864E0,-3.595916589E0,6.528601256E0
4.284636875E0,-4.138744023E0,-4.781386353E0,-2.462959207E0,6.786532664E0
4.294622875E0,-5.390494316E0,-4.812167850E0,-1.454621486E0,7.370909852E0
4.304608875E0,-6.443500671E0,-4.552326357E0,-5.565029025E-1,7.908986765E0
4.314594875E0,-6.910465161E0,-4.124148204E0,-1.748560140E-1,8.049453507E0
4.324580875E0,-6.952251703E0,-3.845401493E0,-5.515210748E-1,7.963987185E0
4.334566875E0,-6.512946882E0,-3.469820799E0,-1.569154115E0,7.544559503E0
4.344552875E0,-6.036433305E0,-2.720352763E0,-2.532660941E0,7.088950391E0
4.354538875E0,-5.704635977E0,-2.481556569E0,-3.892173371E0,7.338256481E0
4.364524875E0,-5.323354831E0,-2.344576771E0,-5.054595165E0,7.706106616E0
4.374510875E0,-5.087034933E0,-2.151852543E0,-5.284485465E0,7.644225298E0
4.384495875E0,-4.837969859E0,-2.112049962E0,-4.568227276E0,6.981074977E0
4.394481875E0,-4.762509786E0,-2.395147001E0,-3.138853482E0,6.186326034E0
4.404467875E0,-4.768472192E0,-2.679039261E0,-1.423923311E0,5.651825900E0
4.414453875E0,-4.737671399E0,-2.751889136E0,1.519688424E-1,5.481014380E0
4.424439875E0,-4.595295791E0,-2.751644138E0,1.330277229E0,5.518870027E0
4.434425875E0,-4.331465328E0,-2.688489531E0,2.262479525E0,5.577488811E0
4.444411875E0,-4.151155908E0,-2.585413059E0,2.831099320E0,5.650803431E0
4.454397875E0,-3.794645323E0,-2.400368564E0,3.010302446E0,5.405832330E0
4.464383875E0,-3.414918367E0,-2.137032775E0,2.648437565E0,4.821078518E0
4.474369875E0,-3.165189049E0,-1.699891425E0,2.026328903E0,4.124810468E0
4.484354875E0,-3.218843685E0,-1.525155571E0,1.333628268E0,3.803369367E0
4.494340875E0,-3.359745210E0,-1.422816433E0,8.814084104E-1,3.753555017E0
4.504326875E0,-3.314518166E0,-1.353406475E0,8.582847190E-1,3.681629044E0
4.514312875E0,-2.969451751E0,-1.375048774E0,1.165486320E0,3.473724398E0
4.524298875E0,-2.518405722E0,-1.385716435E0,1.861793225E0,3.424741075E0
4.534284875E0,-2.157878099E0,-1.252615095E0,2.833936389E0,3.775801627E0
4.544270875E0,-1.906072435E0,-1.106417747E0,3.879767042E0,4.462047137E0
4.554256875E0,-1.542607756E0,-1.077383690E0,4.816230496E0,5.170732104E0
4.564242875E0,-1.323945864E0,-1.122644940E0,5.656311078E0,5.916672994E0
4.574228875E0,-1.367530425E0,-1.278224438E0,6.196752264E0,6.473309493E0
4.584214875E0,-1.371673762E0,-1.479955425E0,6.160324110E0,6.482387686E0
4.594200875E0,-1.188093994E0,-1.586228277E0,5.696053433E0,6.030979373E0
4.604185875E0,-1.315319467E0,-1.623077137E0,5.037668645E0,5.453673081E0
4.614171875E0,-1.799015179E0,-1.709913114E0,4.283075525E0,4.950251956E0
4.624157875E0,-1.698757650E0,-1.548687106E0,3.534082868E0,4.215916392E0
4.634143875E0,-1.453701426E0,-1.335789984E0,3.123913554E0,3.695459188E0
4.644129875E0,-1.262317965E0,-1.293678921E0,3.223671731E0,3.695823484E0
4.654115875E0,-1.282180957E0,-2.057674803E0,3.909995100E0,4.600660309E0
4.664101875E0,-8.802129471E-1,-3.264132709E0,4.437630883E0,5.578701016E0
4.674087875E0,-1.673139828E-1,-3.538794554E0,4.515788276E0,5.739634537E0
4.684073875E0,3.524321526E-1,-3.391778596E0,4.347089088E0,5.524993575E0
4.694059875E0,6.156188375E-1,-2.916226886E0,4.628020903E0,5.504720091E0
4.704044875E0,6.877044815E-1,-3.669456728E0,4.940446991E0,6.192403943E0
4.714030875E0,9.722785270E-1,-4.934474645E0,4.798304687E0,6.951121738E0
4.724016875E0,2.014587402E0,-5.672945237E0,4.447788082E0,7.484897386E0
4.734002875E0,4.169201000E0,-5.468821278E0,3.364320656E0,7.655644756E0
4.743988875E0,5.710665041E0,-4.986088017E0,1.986282785E0,7.836969326E0
4.753974875E0,6.607726155E0,-4.848608868E0,1.112148896E0,8.270908539E0
4.763960875E0,6.430102946E0,-4.718852720E0,1.165542161E0,8.060538656E0
4.773946875E0,5.881182713E0,-5.513230296E0,1.805045120E0,8.260884110E0
4.783932875E0,5.377045135E0,-5.960848103E0,1.871971473E0,8.243094181E0
4.793919375E0,5.120235423E0,-5.940504470E0,1.320943903E0,7.953068398E0
4.803905375E0,5.064146007E0,-6.223322012E0,1.337290379E-1,8.024537065E0
4.813890375E0,5.273516673E0,-5.998153338E0,-1.293942777E0,8.090865806E0
4.823876375E0,5.722340176E0,-6.084141322E0,-2.418472713E0,8.695456456E0
4.833862375E0,6.311854704E0,-6.125378226E0,-3.307934786E0,9.396925070E0
4.843848375E0,6.547495156E0,-5.886503679E0,-4.005167305E0,9.672744364E0
4.853834375E0,6.492441282E0,-5.790287161E0,-4.661187479E0,9.869442128E0
4.863820375E0,6.071937599E0,-5.421222603E0,-5.055059434E0,9.581842547E0
4.873806375E0,5.047955067E0,-5.286960592E0,-5.050981586E0,8.885168408E0
4.883792375E0,3.622714963E0,-5.269501975E0,-4.951822164E0,8.087784463E0
4.893778375E0,2.034487231E0,-5.030708120E0,-4.722652241E0,7.193789451E0
4.903764375E0,2.987699157E-1,-4.909626317E0,-4.383114953E0,6.588276765E0
4.913750375E0,-9.713131517E-1,-4.817500511E0,-4.441062614E0,6.623805368E0
4.923735375E0,-1.856810812E0,-4.334753217E0,-5.057763187E0,6.915113904E0
4.933721375E0,-2.597602165E0,-3.720490934E0,-5.964471622E0,7.494298601E0
4.943707375E0,-3.167676455E0,-3.129552901E0,-6.655005571E0,8.007332554E0
4.953693375E0,-3.477612798E0,-2.576150485E0,-7.012404934E0,8.240398355E0
4.963679375E0,-3.517036480E0,-2.177401660E0,-7.146276936E0,8.257111943E0
4.973665375E0,-3.443936344E0,-1.800406816E0,-6.835490992E0,7.862957418E0
4.983651375E0,-3.307264110E0,-1.537924428E0,-6.137978391E0,7.139886986E0
4.993637375E0,-3.055424532E0,-1.413907616E0,-5.193703349E0,6.189451373E0
5.003623375E0,-2.596238009E0,-1.339254459E0,-4.169648312E0,5.091170922E0
5.013609375E0,-1.966661283E0,-1.238848411E0,-3.213772979E0,3.966212142E0
5.023594375E0,-1.411928333E0,-1.054217899E0,-2.511712999E0,3.068162183E0
5.033580375E0,-1.009819406E0,-8.380738181E-1,-2.062025278E0,2.444187227E0
5.043566375E0,-7.721400297E-1,-7.449460915E-1,-1.621680822E0,1.944477718E0
5.053552375E0,-7.304505515E-1,-5.933318827E-1,-9.683480287E-1,1.350295759E0
5.063538375E0,-7.584639770E-1,-5.357084495E-1,-4.032017354E-1,1.012335313E0
5.073524375E0,-5.871779805E-1,-5.248644957E-1,-1.338977667E-1,7.988675307E-1
5.083510375E0,1.159561336E-2,-4.251443258E-1,-4.712150495E-2,4.279048869E-1
5.093496375E0,6.316144806E-1,-3.524333221E-1,2.102950744E-1,7.532397473E-1
5.103482375E0,7.750244612E-1,-4.571932071E-1,5.042334723E-1,1.031474643E0
5.113468375E0,7.029318005E-1,-6.556339654E-1,7.338338236E-1,1.209330845E0
5.123454375E0,6.470774424E-1,-5.128481752E-1,5.668594909E-1,1.001524912E0
5.133440375E0,4.832343668E-1,-3.696890402E-1,3.435933553E-2,6.093980666E-1
5.143425375E0,1.441075534E-1,-3.017186666E-1,-4.431359160E-1,5.551311383E-1
5.153411375E0,-2.633071375E-1,-2.088493869E-1,-8.067637324E-1,8.739659233E-1
5.163397375E0,-5.255594373E-1,-1.076811540E-1,-1.187194108E0,1.302780796E0
5.173383375E0,-8.028981382E-1,-4.616318285E-2,-1.351364043E0,1.572565177E0
5.183369375E0,-1.015441504E0,-2.474570900E-2,-1.258737130E0,1.617452614E0
5.193355375E0,-1.090872924E0,-2.042023122E-2,-9.942570412E-1,1.476132713E0
5.203341375E0,-1.128728383E0,-1.062208119E-1,-7.216643791E-1,1.343915957E0
5.213327375E0,-1.263388590E0,-2.064587528E-1,-2.136033925E-1,1.297845274E0
5.223313375E0,-1.328346478E0,-1.033469054E-1,3.972423629E-1,1.390318828E0
5.233299375E0,-1.383031393E0,-1.150533235E-1,6.964582019E-1,1.552761131E0
5.243285375E0,-1.528496670E0,-5.051175714E-2,7.356134968E-1,1.697050596E0
5.253270375E0,-1.736547620E0,3.634746194E-2,7.265726781E-1,1.882770998E0
5.263256375E0,-1.997953827E0,1.506409398E-1,5.550280885E-1,2.079078731E0
5.273242375E0,-2.188400565E0,2.889395767E-1,2.346793158E-1,2.219832762E0
5.283228375E0,-2.382777801E0,3.827359325E-1,-1.182761626E-1,2.416217310E0
5.293214375E0,-2.377020632E0,4.159995729E-1,-3.164767465E-1,2.433811879E0
5.303200375E0,-1.832469438E0,3.502786231E-1,-4.118226144E-1,1.910559400E0
5.313186375E0,-4.291908914E-1,3.276405430E-1,-3.092190363E-1,6.222295067E-1
5.323172375E0,1.163756129E0,3.292233843E-1,1.584763549E-1,1.219766830E0
5.333158375E0,2.339024255E0,1.097662711E-1,6.795116553E-1,2.438199990E0
5.343144375E0,3.147825742E0,-1.123922557E-1,1.075363770E0,3.328339850E0
5.353130375E0,3.737515102E0,-3.254823357E-1,1.365771874E0,3.992529361E0
5.363115375E0,4.112794665E0,-3.906507236E-1,1.605010411E0,4.432126619E0
5.373101375E0,4.189018384E0,-4.470471185E-1,1.823407716E0,4.590483835E0
5.383087375E0,4.432521586E0,-6.073023427E-1,2.087183800E0,4.936841092E0
5.393073375E0,4.430697840E0,-6.975120163E-1,2.320048871E0,5.049775552E0
5.403059375E0,4.234497442E0,-8.940579844E-1,2.403015891E0,4.950231675E0
5.413045375E0,4.353052663E0,-1.055282092E0,2.679214092E0,5.219279254E0
5.423031375E0,4.371695341E0,-1.334636328E0,3.038985085E0,5.488934745E0
5.433017375E0,4.607324098E0,-1.926069912E0,3.155299069E0,5.907037571E0
5.443003375E0,4.943279382E0,-2.483580290E0,2.993975558E0,6.290315711E0
5.452989375E0,4.923393002E0,-3.051908602E0,2.065235107E0,6.149726889E0
5.462975375E0,4.692779986E0,-3.504073203E0,7.249948069E-1,5.901383776E0
5.472960375E0,4.400331495E0,-3.893552729E0,-4.624307044E-1,5.893768937E0
5.482946375E0,3.620521088E0,-4.336150117E0,-1.438440778E0,5.829192282E0
5.492932375E0,2.855211775E0,-4.793806131E0,-2.462603989E0,6.098953181E0
5.502918375E0,1.847569873E0,-4.883942422E0,-3.451196247E0,6.259166363E0
5.512904375E0,6.497262311E-1,-5.002630960E0,-4.407613617E0,6.698919203E0
5.522890375E0,-7.728264928E-3,-4.944412572E0,-5.165584674E0,7.150562246E0
5.532876375E0,-6.026438659E-1,-4.682074611E0,-5.679290636E0,7.385075789E0
5.542862375E0,-1.366417115E0,-4.437891962E0,-6.195193981E0,7.742248333E0
5.552848375E0,-1.792922380E0,-4.184116078E0,-6.582725215E0,8.003353626E0
5.562834375E0,-2.027216803E0,-3.919748548E0,-6.630094678E0,7.964432942E0
5.572820375E0,-2.436939390E0,-3.753665989E0,-6.497887963E0,7.889944862E0
5.582805375E0,-2.812178022E0,-3.645077347E0,-6.163006228E0,7.692696527E0
5.592791375E0,-3.031115318E0,-3.535068416E0,-5.542104431E0,7.238735408E0
5.602777375E0,-3.072876132E0,-3.512657501E0,-5.008040804E0,6.845568138E0
5.612763375E0,-2.829640732E0,-3.427325574E0,-4.812936759E0,6.551166881E0
5.622749375E0,-2.423469744E0,-3.217967772E0,-4.581060745E0,6.100380293E0
5.632735375E0,-2.167907243E0,-3.072857129E0,-4.093326945E0,5.558560806E0
5.642721375E0,-2.086251462E0,-3.065799247E0,-3.506293683E0,5.103495427E0
5.652707375E0,-2.304597604E0,-3.111076577E0,-2.825217021E0,4.792892529E0
5.662693375E0,-2.745091163E0,-3.212238670E0,-2.231595409E0,4.778495666E0
5.672679375E0,-3.042376471E0,-3.208461369E0,-1.571563021E0,4.692556795E0
5.682664375E0,-3.269650142E0,-3.133409725E0,-1.080055429E0,4.655683439E0
5.692650375E0,-3.374205959E0,-2.953561358E0,-1.051515608E0,4.605917457E0
5.702636375E0,-3.272499490E0,-2.677152364E0,-1.265301507E0,4.413319113E0
5.712622375E0,-3.077501864E0,-2.511900694E0,-1.431081473E0,4.222399437E0
5.722608375E0,-2.726332710E0,-2.429534037E0,-1.725761261E0,4.039031767E0
5.732594375E0,-2.218630670E0,-2.307035893E0,-2.060016174E0,3.806363527E0
5.742580375E0,-1.875923021E0,-2.208453299E0,-2.241150051E0,3.663209891E0
5.752566375E0,-1.966725018E0,-2.281753994E0,-2.078997406E0,3.660141910E0
5.762552375E0,-2.357782708E0,-2.515995499E0,-1.436173228E0,3.735233084E0
5.772538375E0,-2.770360490E0,-2.734222943E0,-7.917457438E-1,3.972119544E0
5.782524375E0,-3.403454901E0,-2.705319864E0,-2.305448958E-1,4.353781319E0
5.792510042E0,-4.072379880E0,-2.575479809E0,3.890164268E-1,4.834119146E0
5.802495042E0,-4.676411875E0,-2.573007899E0,7.852727298E-1,5.394983867E0
5.812481042E0,-5.224282533E0,-2.401384518E0,8.832055521E-1,5.817201014E0
5.822467042E0,-5.875658848E0,-2.352896190E0,6.287722222E-1,6.360412085E0
5.832453042E0,-6.365487705E0,-2.278730983E0,-3.451962233E-2,6.761156722E0
5.842439042E0,-6.956526602E0,-1.903174847E0,-3.935130087E-1,7.222893420E0
5.852425042E0,-7.431271981E0,-1.608451205E0,-3.036212774E-1,7.609408940E0
5.862411042E0,-6.813508970E0,-1.539618367E0,8.490968429E-2,6.985809820E0
5.872397042E0,-5.613187278E0,-1.576789994E0,8.701394371E-1,5.895021691E0
5.882383042E0,-4.171510651E0,-1.694449421E0,2.143113295E0,4.986541341E0
5.892369042E0,-3.383623484E0,-2.203322659E0,3.610108366E0,5.416310648E0
5.902354042E0,-3.372824262E0,-2.660365008E0,4.770268457E0,6.419419493E0
5.912340042E0,-3.306012806E0,-2.874918061E0,5.451410608E0,6.993765235E0
5.922326042E0,-2.787222106E0,-2.935156662E0,5.329789692E0,6.692563773E0
5.932312042E0,-1.618681785E0,-2.692588429E0,4.575663180E0,5.550392482E0
5.942298042E0,-2.725089008E-1,-2.172696405E0,3.818464248E0,4.401765553E0
5.952284042E0,8.278745198E-1,-1.756365880E0,3.259007917E0,3.793590638E0
5.962270042E0,1.467005596E0,-1.393307290E0,3.035939856E0,3.648334062E0
5.972256042E0,1.359538450E0,-9.717930619E-1,3.568857137E0,3.940744576E0
5.982242042E0,5.539710581E-1,-8.687765242E-1,4.881100091E0,4.988666623E0
5.992228042E0,-2.263843095E-1,-9.165162626E-1,6.451089188E0,6.519800888E0
6.002214042E0,-6.226735032E-1,-1.211292822E0,7.654499964E0,7.774723293E0
6.012200042E0,-4.779128158E-1,-1.443311509E0,8.116350478E0,8.257523470E0
6.022185042E0,5.082399845E-1,-2.442583707E0,7.893556944E0,8.278451804E0
6.032171042E0,2.305784588E0,-2.864424648E0,6.947192692E0,7.860347157E0
6.042157042E0,3.787131066E0,-2.384631368E0,5.632067937E0,7.193679011E0
6.052143042E0,4.558541948E0,-2.156691114E0,4.768124868E0,6.940218729E0
6.062129042E0,4.389815277E0,-2.455125985E0,4.361889560E0,6.657642398E0
6.072115042E0,3.879405391E0,-3.003446878E0,3.856748015E0,6.240591686E0
6.082101042E0,4.139291323E0,-3.894101198E0,2.808123563E0,6.339031057E0
6.092087042E0,5.585374412E0,-4.414265994E0,1.054168782E0,7.196764788E0
6.102073042E0,7.161482620E0,-4.371590676E0,-1.119138950E0,8.464638819E0
6.112059042E0,7.928462482E0,-4.189036510E0,-3.343648995E0,9.570189800E0
6.122044042E0,8.251398355E0,-4.049392721E0,-4.757475919E0,1.034972141E1
6.132030042E0,8.352134771E0,-3.855073373E0,-5.203624320E0,1.056870153E1
6.142016042E0,7.547949076E0,-3.935625785E0,-4.914171942E0,9.829026984E0
6.152002042E0,5.981334992E0,-4.516882290E0,-4.322769056E0,8.652452035E0
6.161988042E0,4.550419580E0,-4.805752870E0,-3.946414483E0,7.705567226E0
6.171974042E0,3.336945747E0,-4.695218859E0,-3.647446346E0,6.817928710E0
6.181960042E0,1.938833215E0,-4.729385895E0,-3.378349296E0,6.126941255E0
6.191946042E0,6.349134797E-1,-4.830652068E0,-3.459087357E0,5.975248938E0
6.201932042E0,1.074086738E-1,-4.565934582E0,-3.999231212E0,6.070679165E0
6.211918042E0,-2.020727563E-1,-4.031796110E0,-4.630358620E0,6.142998797E0
6.221904042E0,-6.503758568E-1,-3.530040103E0,-5.087381673E0,6.226204636E0
6.231890042E0,-1.073963946E0,-3.212126403E0,-5.475602878E0,6.438430047E0
6.241875042E0,-1.501704143E0,-2.823076063E0,-5.712360148E0,6.546444245E0
6.251861042E0,-1.994944265E0,-2.468037806E0,-5.933368528E0,6.728735046E0
6.261847042E0,-2.413257582E0,-2.078322637E0,-6.074397522E0,6.858683722E0
6.271833042E0,-2.713722605E0,-1.654197189E0,-6.066925950E0,6.848959717E0
6.281819042E0,-2.973375818E0,-1.248779614E0,-5.882359757E0,6.708395530E0
6.291805042E0,-3.187551726E0,-9.914334208E-1,-5.413071585E0,6.359620288E0
6.301791042E0,-3.241706298E0,-9.089628294E-1,-4.788489550E0,5.853589097E0
6.311777042E0,-3.210993213E0,-7.282423505E-1,-4.145806875E0,5.294197671E0
6.321763042E0,-3.008398885E0,-5.263318545E-1,-3.751746640E0,4.837674227E0
6.331749042E0,-2.778218563E0,-4.335958913E-1,-3.367349514E0,4.386974644E0
6.341735042E0,-2.637497717E0,-2.970406017E-1,-2.771165067E0,3.837184274E0
6.351720042E0,-2.331548590E0,-7.824831694E-2,-2.399066974E0,3.346306019E0
6.361706042E0,-1.874074717E0,1.256148568E-1,-2.328299292E0,2.991473338E0
6.371692042E0,-1.217335335E0,2.593441871E-1,-2.110358362E0,2.450056559E0
6.381678042E0,-6.009060735E-1,2.975402462E-1,-1.503234798E0,1.646005214E0
6.391664042E0,-3.560492402E-1,2.526903480E-1,-7.274661326E-1,8.484282218E-1
6.401650042E0,-3.034962201E-1,2.081591231E-1,-2.241856834E-1,4.309285286E-1
6.411636042E0,-3.115460819E-1,3.269081792E-1,-9.404427767E-2,4.612745874E-1
6.421622042E0,-3.185995781E-1,4.165878028E-1,-2.322256780E-1,5.735676543E-1
6.431608042E0,1.162180889E-1,3.417843729E-1,-2.040806171E-1,4.146951893E-1
6.441594042E0,7.246068442E-1,2.571468034E-1,3.292532051E-1,8.364133130E-1
6.451580042E0,1.067541364E0,1.518288016E-2,1.083099636E0,1.520848416E0
6.461565042E0,1.336826695E0,-2.048922837E-1,1.489015685E0,2.011530306E0
6.471551042E0,1.331197581E0,-3.008828071E-1,1.438136723E0,1.982638317E0
6.481537042E0,1.187402269E0,-2.720645124E-1,1.099913816E0,1.641265868E0
6.491523042E0,9.115277106E-1,-2.191489649E-1,6.329564166E-1,1.131168803E0
6.501509042E0,4.235775644E-1,-2.570105633E-1,2.020505369E-1,5.350671006E-1
6.511495042E0,-4.879384518E-2,-2.291719696E-1,-7.940752745E-2,2.473988407E-1
6.521481042E0,-3.160151088E-1,-1.367903477E-1,-1.994193629E-1,3.979261622E-1
6.531467042E0,-4.117375374E-1,-8.888469458E-2,-3.009270266E-1,5.176730281E-1
6.541453042E0,-3.569362628E-1,-1.401562974E-1,-6.079104531E-1,7.187505843E-1
6.551439042E0,-2.118060315E-1,-1.291199702E-1,-9.100770164E-1,9.432782926E-1
6.561425042E0,-8.183295250E-2,-1.084161490E-1,-1.298691155E0,1.305775405E0
6.571410042E0,-6.027017534E-2,-9.909305602E-2,-1.581699901E0,1.585946564E0
6.581396042E0,-4.025691032E-2,-7.918650270E-2,-1.681680272E0,1.684024839E0
6.591382042E0,8.485479355E-3,-6.463570654E-2,-1.426837564E0,1.428326017E0
6.601368042E0,1.227541065E-1,-1.615939441E-1,-1.030638344E0,1.050426851E0
6.611354042E0,4.294832522E-1,-2.605452052E-1,-4.341206789E-1,6.639280320E-1
6.621340042E0,8.195603639E-1,-4.581217450E-1,4.471786809E-1,1.039963219E0
6.631326042E0,1.313696280E0,-6.012952057E-1,1.475804486E0,2.065273038E0
6.641312042E0,2.126904813E0,-7.535014451E-1,2.401805810E0,3.295475635E0
6.651298042E0,3.157612812E0,-9.492197397E-1,3.267734009E0,4.642157078E0
6.661284042E0,3.999559826E0,-1.202446862E0,3.941432655E0,5.742582052E0
6.671270042E0,4.691084878E0,-1.405570071E0,4.294733411E0,6.513573492E0
6.681255042E0,4.947104046E0,-1.562627160E0,4.219409287E0,6.687230878E0
6.691241042E0,4.955946790E0,-1.665548096E0,3.780947635E0,6.452210789E0
6.701227042E0,4.964788365E0,-1.799332682E0,3.345490283E0,6.251322007E0
6.711213042E0,4.824199666E0,-2.069898553E0,2.799693632E0,5.949425760E0
6.721199042E0,4.687816869E0,-2.446746047E0,1.990391039E0,5.650119442E0
6.731185042E0,4.645166693E0,-2.821768625E0,1.123213874E0,5.549915422E0
6.741171042E0,4.628624920E0,-3.067777068E0,2.981753270E-1,5.560965142E0
6.751157042E0,4.300527125E0,-3.322726780E0,-4.453507682E-1,5.452832669E0
6.761143042E0,3.895633754E0,-3.728470044E0,-9.739788973E-1,5.479606382E0
6.771129042E0,3.466317147E0,-4.175554000E0,-1.393613684E0,5.602924671E0
6.781114042E0,3.382235940E0,-4.534549360E0,-1.907468165E0,5.969932383E0
6.791099875E0,3.333708728E0,-4.644836033E0,-2.203275297E0,6.127196561E0
6.801085875E0,2.892475496E0,-4.865293313E0,-2.147593431E0,6.053895528E0
6.811071875E0,2.311116664E0,-5.248854872E0,-1.948022114E0,6.056940470E0
6.821057875E0,1.748205798E0,-5.570721874E0,-1.938735566E0,6.152061549E0
6.831043875E0,1.681275060E0,-5.668279159E0,-2.056312548E0,6.259752051E0
6.841029875E0,1.513420794E0,-5.811483318E0,-2.192743292E0,6.393113795E0
6.851015875E0,1.169177082E0,-5.877611818E0,-2.521686594E0,6.501707392E0
6.861001875E0,5.023606092E-1,-5.864144511E0,-2.703683521E0,6.476917601E0
6.870987875E0,-2.073299879E-1,-5.939363093E0,-2.990619256E0,6.653031130E0
6.880973875E0,-8.371598983E-1,-5.832158487E0,-3.446417903E0,6.825884974E0
6.890959875E0,-1.677994187E0,-5.651317556E0,-4.141815566E0,7.204699216E0
6.900944875E0,-2.215612337E0,-5.507597673E0,-4.952109847E0,7.730844850E0
6.910930875E0,-2.535663779E0,-5.231342461E0,-5.569531381E0,8.050851790E0
6.920916875E0,-2.717991657E0,-4.811809708E0,-6.290345721E0,8.373138038E0
6.930902875E0,-3.095267460E0,-4.355785067E0,-6.797815043E0,8.646608211E0
6.940888875E0,-3.468199366E0,-4.118127910E0,-6.679912956E0,8.579546691E0
6.950874875E0,-3.780740059E0,-3.958883670E0,-5.980559067E0,8.107640967E0
6.960860875E0,-4.234961711E0,-3.985996624E0,-5.412317294E0,7.944573511E0
6.970846875E0,-4.605134316E0,-3.983747785E0,-5.233758531E0,8.029304879E0
6.980832875E0,-4.711829630E0,-3.868955832E0,-5.085055650E0,7.939014338E0
6.990818875E0,-4.640211763E0,-3.781964466E0,-4.935083925E0,7.758213310E0
7.000803875E0,-4.745452874E0,-4.075654905E0,-4.951868942E0,7.978175976E0
7.010789875E0,-4.910602802E0,-4.065556764E0,-4.789407563E0,7.973781818E0
7.020775875E0,-4.921445879E0,-4.070735643E0,-4.056939722E0,7.566391354E0
7.030761875E0,-4.682600568E0,-4.539534988E0,-3.396787906E0,7.353386571E0
7.040747875E0,-4.097889528E0,-4.670599158E0,-2.713361832E0,6.780083149E0
7.050733875E0,-3.475250523E0,-4.799408056E0,-1.987744589E0,6.250024995E0
7.060719875E0,-2.893916250E0,-4.883869917E0,-1.076936671E0,5.778125061E0
7.070705875E0,-2.522437962E0,-4.542553906E0,-9.262800895E-2,5.196736400E0
7.080691875E0,-2.353088563E0,-4.358777672E0,6.604757524E-1,4.997218907E0
7.090677875E0,-2.551593933E0,-4.207641181E0,1.326877073E0,5.096614432E0
7.100663875E0,-3.001430758E0,-3.637223074E0,1.626214753E0,4.988241445E0
7.110648875E0,-3.549311357E0,-3.294403744E0,1.652485124E0,5.116777719E0
7.120634875E0,-3.968225766E0,-3.277198897E0,1.598212438E0,5.388982403E0
7.130620875E0,-4.360820104E0,-3.119321151E0,1.403594881E0,5.542291495E0
7.140606875E0,-4.669406911E0,-2.736668249E0,1.456587027E0,5.604851449E0
7.150592875E0,-4.544291698E0,-2.423762105E0,1.766270771E0,5.444715072E0
7.160578875E0,-4.246328698E0,-2.469156963E0,2.039731160E0,5.318697841E0
7.170564875E0,-3.762583285E0,-2.544994181E0,2.333507992E0,5.106788414E0
7.180550875E0,-3.177339563E0,-2.301333980E0,2.841915207E0,4.844389212E0
7.190536875E0,-2.516527011E0,-2.199785386E0,3.182766949E0,4.615405659E0
7.200522875E0,-1.587683356E0,-2.314502495E0,3.311727290E0,4.341105606E0
7.210508875E0,-7.512648851E-1,-2.305462115E0,3.391674223E0,4.169293528E0
7.220493875E0,-6.564651471E-1,-2.118681727E0,3.386950258E0,4.048603562E0
7.230479875E0,-5.161167687E-1,-1.753269633E0,3.467346549E0,3.919543726E0
7.240465875E0,-2.479716450E-1,-1.172735113E0,3.773723400E0,3.959518390E0
7.250451875E0,-3.846333539E-1,-5.709670868E-1,4.351821240E0,4.405938530E0
7.260437875E0,-8.424867117E-1,-4.484710983E-1,5.223744004E0,5.310217661E0
7.270423875E0,-1.169170650E0,-6.644291279E-1,6.296394666E0,6.438401344E0
7.280409875E0,-1.081401604E0,-1.495241508E0,7.093125746E0,7.329229799E0
7.290395875E0,-4.336599183E-1,-2.250997055E0,7.065011163E0,7.427612766E0
7.300381875E0,2.028632998E-1,-2.247925805E0,6.299733426E0,6.691858126E0
7.310367875E0,7.922111821E-1,-2.106897688E0,5.172907142E0,5.641416907E0
7.320353875E0,1.260107133E0,-2.149511318E0,4.225403268E0,4.905334002E0
7.330338875E0,1.631163252E0,-2.323851900E0,3.546237475E0,4.542772440E0
7.340324875E0,1.545474061E0,-2.414984264E0,3.251780466E0,4.335287219E0
7.350310875E0,1.037921124E0,-2.430214799E0,2.980114734E0,3.983002392E0
7.360296875E0,9.797898602E-1,-3.051476785E0,2.760131956E0,4.229636763E0
7.370282875E0,1.772252473E0,-3.738070295E0,2.537478755E0,4.853127526E0
7.380268875E0,3.188618258E0,-4.127653025E0,2.020143426E0,5.593369767E0
7.390254875E0,4.360247662E0,-4.313461166E0,1.166364571E0,6.243245408E0
7.400240875E0,5.067029854E0,-4.434553494E0,4.540789801E-1,6.748795741E0
7.410226875E0,6.105670770E0,-4.610327228E0,-4.908100194E-1,7.666500322E0
7.420212875E0,7.200539097E0,-4.752747275E0,-1.625742006E0,8.779487857E0
7.430198875E0,7.585705717E0,-4.731136551E0,-2.866487546E0,9.388468200E0
7.440183875E0,7.215067089E0,-4.562981738E0,-4.104487526E0,9.472318264E0
7.450169875E0,6.402693538E0,-4.541407267E0,-4.838467749E0,9.221151483E0
7.460155875E0,5.431071653E0,-4.363350195E0,-5.081321034E0,8.622945418E0
7.470141875E0,4.144905819E0,-4.191278332E0,-5.338724238E0,7.952926178E0
7.480127875E0,3.009975879E0,-4.349560121E0,-5.497024738E0,7.628624319E0
7.490113875E0,2.001117171E0,-4.261394050E0,-5.605986432E0,7.320589666E0
7.500099875E0,9.229648644E-1,-3.887804917E0,-5.874986418E0,7.105093710E0
7.510085875E0,-1.926716030E-2,-3.524438471E0,-6.239927520E0,7.166500764E0
7.520071875E0,-9.310638428E-1,-3.146904221E0,-6.352892218E0,7.150463313E0
7.530057875E0,-1.608607033E0,-2.873061571E0,-6.371495719E0,7.172032980E0
7.540043875E0,-2.089075082E0,-2.586951461E0,-6.313705348E0,7.135785015E0
7.550028875E0,-2.461167912E0,-2.272895170E0,-6.331355753E0,7.163062586E0
7.560014875E0,-2.537486941E0,-1.890475572E0,-6.489738114E0,7.220071928E0
7.570000875E0,-2.400534040E0,-1.458088008E0,-6.441105652E0,7.026836154E0
7.579986875E0,-2.374688178E0,-1.167245162E0,-6.108827097E0,6.657279753E0
7.589972875E0,-2.474373849E0,-9.996920282E-1,-5.346710365E0,5.975719356E0
7.599958875E0,-2.641396641E0,-9.004495758E-1,-4.589306780E0,5.371175139E0
7.609944875E0,-2.840712435E0,-8.291486281E-1,-3.905930700E0,4.900349908E0
7.619930875E0,-2.767255619E0,-7.128223658E-1,-3.007579690E0,4.148657009E0
7.629916875E0,-2.420509883E0,-5.758343822E-1,-2.387126960E0,3.448018047E0
7.639902875E0,-1.944679846E0,-4.436446238E-1,-2.156768005E0,2.937728456E0
7.649888875E0,-9.777193612E-1,-2.879332709E-1,-1.922609238E0,2.176066864E0
7.659874875E0,-1.029530954E-1,-1.878850722E-1,-1.522560869E0,1.537560321E0
7.669859875E0,3.944531679E-1,-1.580929238E-1,-1.242556715E0,1.313215087E0
7.679845875E0,6.638513499E-1,-1.831125748E-1,-1.111803617E0,1.307798193E0
7.689831875E0,9.678498459E-1,-1.940959847E-1,-1.013173953E0,1.414541634E0
7.699817875E0,1.148820586E0,-6.723479390E-2,-8.218495488E-1,1.414123734E0
7.709803875E0,9.329700351E-1,-3.642347574E-2,-5.999012294E-1,1.109793333E0
7.719789875E0,5.107016623E-1,-4.409209907E-2,-4.347363907E-1,6.721279867E-1
7.729775875E0,1.113268930E-1,-3.810747385E-2,-5.300869364E-1,5.429898864E-1
7.739761875E0,-2.328565925E-1,-6.266461015E-3,-6.781141707E-1,7.170078729E-1
7.749747875E0,-7.280204487E-1,5.001065075E-2,-5.998717010E-1,9.446485572E-1
7.759733875E0,-1.129488521E0,3.252572179E-2,-5.613014200E-1,1.261689949E0
7.769718875E0,-1.398062831E0,6.314554363E-2,-6.723979327E-1,1.552638405E0
7.779704875E0,-1.585138648E0,1.019216466E-1,-8.333328956E-1,1.793738072E0
7.789690667E0,-1.690534710E0,1.016363025E-1,-8.629627839E-1,1.900774135E0
7.799676667E0,-1.623851309E0,1.284104106E-1,-7.516092861E-1,1.793961768E0
7.809662667E0,-1.540296936E0,2.248152092E-1,-6.029949912E-1,1.669329054E0
7.819648667E0,-1.440311303E0,3.542947832E-1,-5.114433816E-1,1.568947346E0
7.829634667E0,-1.471261200E0,3.558285078E-1,-5.794023532E-1,1.620780840E0
7.839620667E0,-1.466623188E0,3.922692329E-1,-7.238028520E-1,1.681888610E0
7.849606667E0,-1.453199151E0,4.697322688E-1,-9.573169640E-1,1.802468292E0
7.859592667E0,-1.552909965E0,4.961216301E-1,-1.182219004E0,2.013779483E0
7.869578667E0,-1.711132112E0,5.296992660E-1,-1.261486199E0,2.190867830E0
7.879563667E0,-1.862586692E0,5.029678425E-1,-1.254164608E0,2.301115968E0
7.889549667E0,-1.918555071E0,4.811366782E-1,-1.153881351E0,2.289931928E0
7.899535667E0,-1.920103998E0,4.550051790E-1,-8.250956306E-1,2.138834233E0
7.909521667E0,-1.765626993E0,3.029576916E-1,-2.113984805E-1,1.803860127E0
7.919507667E0,-1.329342259E0,6.997479916E-2,6.713960123E-1,1.490912445E0
7.929493667E0,-6.754995883E-1,-1.716537863E-1,1.503825805E0,1.657485074E0
7.939479667E0,6.755639076E-2,-3.533940196E-1,2.194041374E0,2.223346295E0
7.949465667E0,7.941097730E-1,-5.658947003E-1,2.652957755E0,2.826487572E0
7.959451667E0,1.659853785E0,-7.304716015E-1,2.783573443E0,3.322195729E0
7.969437667E0,2.739835101E0,-7.747373629E-1,2.682836443E0,3.912099914E0
7.979423667E0,3.427609749E0,-7.474823213E-1,2.440611441E0,4.273619381E0
7.989408667E0,3.410595521E0,-7.801162165E-1,2.242870887E0,4.155864884E0
7.999394667E0,3.157798753E0,-9.026498830E-1,2.154981388E0,3.928156637E0
8.009380667E0,3.149798008E0,-1.195460901E0,2.019662493E0,3.928026329E0
8.019366667E0,3.424672108E0,-1.386604627E0,1.470798685E0,3.976719780E0
8.029352667E0,4.149891155E0,-1.474933836E0,6.245688781E-1,4.448270754E0
8.039338667E0,4.894859759E0,-1.502712203E0,4.559571058E-2,5.120534639E0
8.049324667E0,5.216517431E0,-1.805835956E0,-3.004542062E-1,5.528414812E0
8.059310667E0,5.064816098E0,-2.313268440E0,-5.318671212E-1,5.593429683E0
8.069296667E0,5.091665928E0,-2.782116902E0,-1.053211008E0,5.896989893E0
8.079282667E0,5.296920154E0,-2.970450456E0,-1.957759775E0,6.380733685E0
8.089268667E0,5.494100545E0,-3.001523144E0,-2.892459416E0,6.896419612E0
8.099253667E0,5.350152621E0,-3.191317917E0,-3.610770856E0,7.200438131E0
8.109239667E0,4.964368535E0,-3.440528587E0,-4.191935267E0,7.352177446E0
8.119225667E0,4.355484520E0,-3.785821874E0,-4.597606903E0,7.378392908E0
8.129211667E0,3.773574296E0,-3.990290819E0,-4.732122099E0,7.249500904E0
8.139197667E0,3.458487725E0,-3.995633128E0,-4.286112861E0,6.804188776E0
8.149183667E0,2.687528833E0,-4.237495894E0,-3.519518623E0,6.129126693E0
8.159169667E0,1.874161255E0,-4.648468324E0,-2.811590377E0,5.746805949E0
8.169155667E0,1.125995395E0,-4.902030784E0,-2.352329887E0,5.552587445E0
8.179141667E0,2.823807549E-1,-4.995340067E0,-2.263576170E0,5.491533333E0
8.189127667E0,-5.189930141E-1,-4.926699602E0,-2.381091464E0,5.496482446E0
8.199113667E0,-1.404195390E0,-4.867864041E0,-2.356131746E0,5.587416382E0
8.209098667E0,-2.034200717E0,-4.748277371E0,-2.770756931E0,5.861843100E0
8.219084667E0,-2.453029758E0,-4.383938826E0,-3.564298940E0,6.159586151E0
8.229070667E0,-2.741591020E0,-4.000348323E0,-4.474992253E0,6.598838055E0
8.239056667E0,-2.966888916E0,-3.583479561E0,-5.421125540E0,7.143693563E0
8.249042667E0,-3.258346304E0,-3.316233739E0,-6.214207957E0,7.760838059E0
8.259028667E0,-3.614559267E0,-3.119795360E0,-6.767797776E0,8.282587067E0
8.269014667E0,-4.203201975E0,-2.984076222E0,-6.798452389E0,8.531739133E0
8.279000667E0,-4.967481008E0,-2.979189704E0,-6.144947687E0,8.444632670E0
8.288986667E0,-5.802948137E0,-3.083004094E0,-5.154695989E0,8.351647266E0
8.298972667E0,-6.647465002E0,-3.201861324E0,-4.340541376E0,8.560432602E0
8.308958667E0,-7.148456778E0,-3.233566389E0,-3.937808843E0,8.778537713E0
8.318943667E0,-7.209188883E0,-3.326835911E0,-3.952400862E0,8.869143933E0
8.328929667E0,-6.865445693E0,-3.104543483E0,-4.265176613E0,8.658190708E0
8.338915667E0,-6.408898019E0,-2.747519804E0,-4.160101856E0,8.119685113E0
8.348901667E0,-6.042951781E0,-2.905427371E0,-3.541157999E0,7.582781443E0
8.358887667E0,-5.794402431E0,-3.341755666E0,-3.020657573E0,7.339400700E0
8.368873667E0,-5.754674694E0,-3.271252571E0,-2.245651238E0,6.990016001E0
8.378859667E0,-5.824302168E0,-3.377803751E0,-1.429249832E0,6.882936075E0
8.388845667E0,-5.852199819E0,-3.474593881E0,-9.931903629E-1,6.878042778E0
8.398831667E0,-5.963011572E0,-3.324463988E0,-5.972612116E-1,6.853195515E0
8.408817667E0,-6.035220593E0,-3.173707565E0,-8.815583915E-2,6.819389911E0
8.418802667E0,-6.072208325E0,-3.044664486E0,7.980955276E-1,6.839492104E0
8.428788667E0,-5.862794974E0,-3.158102224E0,1.701892634E0,6.873311655E0
8.438774667E0,-5.338619573E0,-3.120450540E0,2.465711199E0,6.657161725E0
8.448760667E0,-4.645290070E0,-2.947897160E0,3.102055492E0,6.315977025E0
8.458746667E0,-3.798953551E0,-2.832728354E0,3.657136644E0,5.985903979E0
8.468732667E0,-2.971463778E0,-2.606813284E0,4.177187712E0,5.750997275E0
8.478718667E0,-2.092514999E0,-2.358047733E0,4.586205710E0,5.565275460E0
8.488704667E0,-1.210156708E0,-2.059153564E0,4.990224922E0,5.532353697E0
8.498690667E0,-5.791965312E-1,-1.833061030E0,5.443178313E0,5.772674555E0
8.508676667E0,-9.773854852E-2,-1.763619059E0,5.839372197E0,6.100669854E0
8.518662667E0,3.142317080E-1,-1.735882645E0,6.010064117E0,6.263617231E0
8.528648667E0,6.556155467E-1,-1.510019176E0,6.084343051E0,6.303111932E0
8.538633667E0,4.792518282E-1,-1.322293587E0,6.144133170E0,6.303056009E0
8.548619667E0,-1.132079422E-1,-1.208260822E0,6.104048168E0,6.223513018E0
8.558605667E0,-8.011632693E-1,-1.048834660E0,5.873096598E0,6.019566461E0
8.568591667E0,-1.220097560E0,-1.010367436E0,5.551837707E0,5.773420332E0
8.578577667E0,-1.157919438E0,-1.073303503E0,5.027866373E0,5.269933406E0
8.588563667E0,-6.902749175E-1,-1.520317439E0,4.468023541E0,4.769809109E0
8.598549667E0,3.424866235E-1,-1.721798457E0,3.966499084E0,4.337626309E0
8.608535667E0,1.035685149E0,-1.640828846E0,3.966644679E0,4.415793591E0
8.618521667E0,1.341024996E0,-1.860322358E0,4.343160928E0,4.911435041E0
8.628507667E0,1.183039076E0,-2.252916111E0,4.907013196E0,5.527566460E0
8.638492667E0,1.165073506E0,-3.285768576E0,4.864187604E0,5.984479297E0
8.648478667E0,1.705473762E0,-4.165894108E0,3.703917586E0,5.829435646E0
8.658464667E0,2.412601816E0,-4.115667402E0,1.666255901E0,5.053293423E0
8.668450667E0,3.048934708E0,-3.344776338E0,-1.481690294E-1,4.528298319E0
8.678436667E0,3.576288948E0,-3.142403619E0,-1.163229294E0,4.900780095E0
8.688422667E0,3.679436755E0,-3.259406989E0,-1.327569968E0,5.091603950E0
8.698408667E0,3.427971399E0,-3.997524410E0,-1.042668478E0,5.368272243E0
8.708394667E0,3.515743076E0,-4.562420406E0,-9.212346733E-1,5.833078318E0
8.718380667E0,4.201234679E0,-4.679992125E0,-1.193888585E0,6.401411491E0
8.728366667E0,5.358297792E0,-5.055403835E0,-1.963354098E0,7.623858766E0
8.738352667E0,6.497076954E0,-4.993815113E0,-2.952711173E0,8.710264152E0
8.748337667E0,7.122116826E0,-5.009530674E0,-3.695882927E0,9.459360246E0
8.758323667E0,7.515736181E0,-5.239660710E0,-4.252726722E0,1.010079300E1
8.768309667E0,7.195056748E0,-5.270967287E0,-4.370100805E0,9.932256481E0
8.778295667E0,6.143174227E0,-5.416545416E0,-4.234486333E0,9.220001536E0
8.788281667E0,5.084755688E0,-5.591662508E0,-4.031387975E0,8.565834403E0
8.798267500E0,3.965799172E0,-5.752963214E0,-3.717655034E0,7.914866251E0
8.808253500E0,2.832711105E0,-5.726295817E0,-3.787224036E0,7.426828522E0
8.818239500E0,1.896637368E0,-5.514104455E0,-4.353033660E0,7.276776985E0
8.828225500E0,7.428753000E-1,-5.050147188E0,-5.212574068E0,7.295668493E0
8.838211500E0,-6.293691498E-1,-4.455954303E0,-6.018425635E0,7.514857377E0
8.848197500E0,-1.955354522E0,-3.928876344E0,-6.430429806E0,7.785236549E0
8.858182500E0,-2.924924619E0,-3.282813393E0,-6.578448561E0,7.912523825E0
8.868168500E0,-3.785554072E0,-2.630584554E0,-6.867105718E0,8.270884817E0
8.878154500E0,-4.467050564E0,-2.030268465E0,-6.952289125E0,8.509456790E0
8.888140500E0,-5.085671947E0,-1.480897996E0,-6.908574171E0,8.705487643E0
8.898126500E0,-5.429374791E0,-9.284296721E-1,-6.819349169E0,8.766049017E0
8.908112500E0,-5.570931205E0,-3.587272650E-1,-6.540766765E0,8.599162146E0
8.918098500E0,-5.418138782E0,4.848745108E-2,-5.869174286E0,7.987852383E0
8.928084500E0,-5.125185676E0,3.567327797E-1,-5.033282064E0,7.192267711E0
8.938070500E0,-4.859718577E0,5.317083693E-1,-4.159983157E0,6.419115072E0
8.948056500E0,-4.550143007E0,6.417360109E-1,-3.189545041E0,5.593641396E0
8.958042500E0,-4.121359667E0,7.025207412E-1,-2.400630519E0,4.821013149E0
8.968027500E0,-3.569427533E0,6.991539145E-1,-1.999900950E0,4.150811116E0
8.978013500E0,-2.860295345E0,7.315176684E-1,-1.805551196E0,3.460696849E0
8.987999500E0,-2.194588088E0,7.801249874E-1,-1.614254566E0,2.833836565E0
8.997985500E0,-1.626070912E0,7.299424285E-1,-1.292763540E0,2.201853794E0
9.007971500E0,-1.108080111E0,5.352488583E-1,-8.686176261E-1,1.506263407E0
9.017957500E0,-7.512935364E-1,3.425386637E-1,-3.545006052E-1,8.985796532E-1
9.027943500E0,-5.281655413E-1,2.022294617E-1,3.485086709E-2,5.666305473E-1
9.037929500E0,-2.200184458E-1,1.422627568E-3,2.805567160E-1,3.565420190E-1
9.047915500E0,1.032717687E-1,-1.067491078E-1,5.662200978E-1,5.853764852E-1
9.057901500E0,2.230549049E-1,-6.241376460E-2,6.180451396E-1,6.600217900E-1
9.067887500E0,2.178356802E-1,-1.020444381E-1,4.208170938E-1,4.847189675E-1
9.077872500E0,1.140505260E-1,-1.346964598E-1,1.564551187E-1,2.358577175E-1
9.087858500E0,-7.707799673E-2,-1.110409641E-1,-8.614264280E-2,1.602862071E-1
9.097844500E0,-2.071820533E-1,-1.715163767E-1,-3.291380149E-1,4.250577650E-1
9.107830500E0,-2.064739555E-1,-2.455333561E-1,-5.561061689E-1,6.420063819E-1
9.117816500E0,2.643818557E-2,-2.423109555E-1,-9.594090977E-1,9.898885764E-1
9.127802500E0,3.567029589E-1,-2.718060654E-1,-1.245833495E0,1.324090871E0
9.137788500E0,5.358107758E-1,-2.271923947E-1,-1.220766189E0,1.352397745E0
9.147774500E0,5.147473508E-1,-2.707319319E-1,-1.187668609E0,1.322428576E0
9.157760500E0,4.039823753E-1,-2.816638863E-1,-1.088276761E0,1.194521918E0
9.167746500E0,1.279037493E-1,-3.442288014E-1,-7.931245172E-1,8.740133504E-1
9.177732500E0,-8.812864959E-2,-3.553148299E-1,-5.686361673E-1,6.762857222E-1
9.187717500E0,-2.048671407E-1,-2.874763110E-1,-6.482015696E-1,7.380910849E-1
9.197703500E0,-3.348220932E-1,-2.690336081E-1,-7.226494887E-1,8.406587893E-1
9.207689500E0,-4.536579806E-1,-1.895415884E-1,-8.344704714E-1,9.685414523E-1
9.217675500E0,-6.215976155E-1,-1.578868094E-1,-9.842559636E-1,1.174764505E0
9.227661500E0,-6.837652123E-1,-6.664773345E-2,-1.024744131E0,1.233724978E0
9.237647500E0,-6.804352230E-1,-6.377821237E-2,-9.933018985E-1,1.205698310E0
9.247633500E0,-7.471694952E-1,-1.616228878E-2,-7.459915736E-1,1.055948343E0
9.257619500E0,-8.880663425E-1,-6.063153327E-2,-4.201481724E-1,9.843081317E-1
9.267605500E0,-9.050881720E-1,-1.254663375E-1,-2.850950325E-1,9.571862820E-1
9.277591500E0,-6.955543685E-1,-1.398501956E-1,-1.586361301E-1,7.269933827E-1
9.287577500E0,-3.701614952E-1,-7.854623258E-2,1.293646762E-1,3.999053171E-1
9.297562500E0,-8.189259410E-2,-4.391639024E-2,4.927553880E-1,5.014408427E-1
9.307548500E0,3.615198952E-1,-6.515347749E-2,9.748653352E-1,1.041779263E0
9.317534500E0,7.348073119E-1,-1.383316737E-1,1.698630473E0,1.855915656E0
9.327520500E0,1.107882475E0,-3.397942731E-1,2.344867963E0,2.615582055E0
9.337506500E0,1.600713876E0,-5.030573049E-1,2.697532250E0,3.176795839E0
9.347492500E0,2.218505539E0,-6.789093921E-1,2.736765020E0,3.587836056E0
9.357478500E0,3.196634790E0,-8.989290074E-1,2.401043040E0,4.097749995E0
9.367464500E0,4.231449289E0,-1.074216838E0,1.846496616E0,4.740111249E0
9.377450500E0,5.039587702E0,-1.271546918E0,1.350642789E0,5.370150064E0
9.387436500E0,5.217509703E0,-1.575302170E0,1.165463516E0,5.573355330E0
9.397421500E0,4.988587702E0,-2.151227476E0,8.860472989E-1,5.504440637E0
9.407407500E0,4.565332319E0,-2.712592338E0,1.836660138E-1,5.313581615E0
9.417393500E0,4.046650962E0,-2.943424332E0,-8.585189000E-1,5.077025262E0
9.427379500E0,3.374107141E0,-2.991103698E0,-1.935565498E0,4.906904740E0
9.437365500E0,2.650891349E0,-3.192723880E0,-2.512564061E0,4.851153356E0
9.447351500E0,2.142070152E0,-3.516076952E0,-2.731051998E0,4.940638287E0
9.457337500E0,1.722885016E0,-3.734410523E0,-2.728846136E0,4.935661654E0
9.467323500E0,1.206988102E0,-3.857973884E0,-2.760168793E0,4.894825281E0
9.477309500E0,1.053710361E0,-3.901264622E0,-2.661417215E0,4.838730491E0
9.487295500E0,7.962633026E-1,-3.823062206E0,-2.589816012E0,4.685828300E0
9.497281500E0,1.957799828E-1,-3.896483354E0,-2.634479677E0,4.707589138E0
9.507267500E0,-2.966994166E-1,-3.852235134E0,-2.831125925E0,4.789887272E0
9.517252500E0,-7.070733833E-1,-3.663566535E0,-3.240106207E0,4.941655670E0
9.527238500E0,-1.310994281E0,-3.436799818E0,-3.884820205E0,5.349965142E0
9.537224500E0,-1.828626648E0,-3.152554970E0,-4.496728107E0,5.788181228E0
9.547210500E0,-1.898771017E0,-2.868962672E0,-5.108523450E0,6.159000733E0
9.557196500E0,-1.672369750E0,-2.476116319E0,-5.641349223E0,6.383791480E0
9.567182500E0,-1.418961364E0,-2.254411683E0,-5.838375832E0,6.417355822E0
9.577168500E0,-1.166517184E0,-2.269570589E0,-5.910933931E0,6.438233681E0
9.587154500E0,-1.097090269E0,-2.230944467E0,-5.851947219E0,6.358144897E0
9.597140500E0,-1.288515245E0,-2.401653490E0,-5.590404772E0,6.219391974E0
9.607126500E0,-1.618469532E0,-2.571081826E0,-5.205063905E0,6.026823013E0
9.617111500E0,-2.161242587E0,-2.703726790E0,-4.848188453E0,5.957015977E0
9.627097500E0,-2.872475095E0,-3.034120787E0,-4.517039580E0,6.153100738E0
9.637083500E0,-3.859565789E0,-3.318152211E0,-3.774633519E0,6.336737360E0
9.647069500E0,-4.921966281E0,-3.433548766E0,-2.719482697E0,6.588671743E0
9.657055500E0,-5.612162846E0,-3.571227890E0,-2.114219863E0,6.979968917E0
9.667041500E0,-5.946252283E0,-3.584569775E0,-1.988921049E0,7.222386283E0
9.677027500E0,-5.640095580E0,-3.421306450E0,-2.348341793E0,7.002194310E0
9.687013500E0,-5.103948589E0,-3.275866609E0,-2.763884699E0,6.664881984E0
9.696999500E0,-5.070832298E0,-3.290800398E0,-2.638831467E0,6.595918357E0
9.706985500E0,-5.116510162E0,-3.740427015E0,-1.762564513E0,6.578457582E0
9.716971500E0,-5.280852590E0,-3.706755239E0,-9.591398335E-1,6.522835864E0
9.726956500E0,-5.521936800E0,-3.794170821E0,-7.621278423E-1,6.743022845E0
9.736942500E0,-5.238046879E0,-3.629809390E0,-1.432275474E-2,6.372821702E0
9.746928500E0,-4.228605788E0,-3.181302221E0,1.514335883E0,5.504089743E0
9.756914500E0,-3.044902468E0,-2.997135978E0,3.067407231E0,5.259585747E0
9.766900500E0,-1.970488286E0,-3.318098124E0,3.682015670E0,5.333839015E0
9.776886500E0,-1.277954589E0,-2.786395017E0,3.530315507E0,4.675499193E0
9.786872500E0,-1.184443578E0,-2.387854061E0,2.860968944E0,3.910229776E0
9.796858250E0,-1.464025270E0,-2.316433099E0,2.050798039E0,3.422718932E0
9.806844250E0,-1.654188418E0,-1.651441688E0,1.956021690E0,3.047887764E0
9.816830250E0,-1.492749717E0,-1.261226436E0,2.575136577E0,3.232695815E0
9.826816250E0,-1.323893824E0,-1.477434836E0,3.539912542E0,4.057892231E0
9.836801250E0,-9.533692163E-1,-1.531422032E0,4.806104288E0,5.133498293E0
9.846787250E0,-8.566007209E-1,-1.476784772E0,5.689922628E0,5.940528391E0
9.856773250E0,-1.009021845E0,-1.260149671E0,5.783603793E0,6.004679435E0
9.866759250E0,-9.357843000E-1,-6.057982926E-1,5.374038497E0,5.488439996E0
9.876745250E0,-1.250021855E0,-4.003247957E-1,4.905040931E0,5.077621600E0
9.886731250E0,-1.376703537E0,-7.429352340E-1,4.374601407E0,4.645901727E0
9.896717250E0,-1.412494344E0,-6.117422797E-1,4.012713722E0,4.297818086E0
9.906703250E0,-1.979431018E0,-2.495596026E-1,3.933958744E0,4.410947579E0
9.916689250E0,-2.489899961E0,-2.980713927E-1,3.992923236E0,4.715069919E0
9.926675250E0,-2.128613369E0,-8.972368962E-1,3.808212032E0,4.454043984E0
9.936661250E0,-1.244042493E0,-1.255720259E0,3.371880521E0,3.807105638E0
9.946646250E0,-2.944803983E-1,-1.213940661E0,2.912187045E0,3.168785890E0
9.956632250E0,5.050620228E-1,-1.058586719E0,2.638391172E0,2.887351981E0
9.966618250E0,9.273514456E-1,-1.176929905E0,2.471498773E0,2.890233709E0
9.976604250E0,9.790367389E-1,-1.302829960E0,2.536225696E0,3.014684001E0
9.986590250E0,7.547001243E-1,-1.217406525E0,2.843371164E0,3.183772997E0
9.996576250E0,7.639358014E-1,-1.196821695E0,3.186838950E0,3.488828252E0
1.000656225E1,1.093425234E0,-1.477179167E0,3.643563795E0,4.080832533E0
1.001654825E1,1.246158600E0,-2.081407043E0,3.779432622E0,4.491021875E0
1.002653425E1,1.531815550E0,-2.249487304E0,3.562705573E0,4.483249158E0
1.003652025E1,1.676156407E0,-2.193384731E0,3.328966051E0,4.324633146E0
1.004650625E1,1.785803395E0,-2.463313548E0,3.134977655E0,4.368648796E0
1.005649125E1,2.257032843E0,-3.064512275E0,2.761549321E0,4.702295970E0
1.006647725E1,3.276432327E0,-3.704276020E0,2.016853783E0,5.340820986E0
1.007646325E1,5.104719252E0,-4.293085374E0,8.867261606E-1,6.728671782E0
1.008644925E1,6.612460061E0,-3.949922227E0,-2.043911773E-1,7.705082051E0
1.009643525E1,7.058588582E0,-3.442356427E0,-4.623106903E-1,7.866843186E0
1.010642125E1,6.630722085E0,-3.722711121E0,1.734687620E-1,7.606256955E0
1.011640725E1,6.011470957E0,-4.406035454E0,8.269728792E-1,7.498987640E0
1.012639325E1,5.401431533E0,-5.243903450E0,6.328002959E-1,7.554761558E0
1.013637925E1,5.596810396E0,-6.135299197E0,-8.381129944E-1,8.346772804E0
1.014636525E1,6.368376814E0,-5.431940550E0,-3.119751506E0,8.932807556E0
1.015635125E1,6.774167148E0,-4.756755542E0,-4.847321895E0,9.592319500E0
1.016633625E1,6.529871648E0,-4.520584747E0,-5.623804067E0,9.731499493E0
1.017632225E1,5.249736632E0,-4.351708388E0,-5.847410949E0,8.982723163E0
1.018630825E1,3.681162561E0,-4.091141841E0,-5.517978820E0,7.793361894E0
1.019629425E1,2.229149226E0,-3.938462269E0,-4.872884753E0,6.650232863E0
1.020628025E1,1.257845430E0,-4.018097838E0,-4.229715589E0,5.968063281E0
1.021626625E1,2.830701417E-1,-3.928414999E0,-4.415852344E0,5.917121347E0
1.022625225E1,-6.918238449E-1,-3.460825442E0,-4.904909953E0,6.042687698E0
1.023623825E1,-1.461816192E0,-3.052098051E0,-5.134332476E0,6.149274678E0
1.024622425E1,-2.187699484E0,-2.731710979E0,-5.404712405E0,6.438881121E0
1.025621025E1,-2.754600490E0,-2.415895845E0,-5.745054270E0,6.813958113E0
1.026619525E1,-3.003511782E0,-2.142970623E0,-6.023844835E0,7.064001183E0
1.027618125E1,-3.035248715E0,-1.751213898E0,-6.207173756E0,7.128007500E0
1.028616725E1,-2.939153234E0,-1.424996275E0,-6.226469568E0,7.031227446E0
1.029615325E1,-2.830669842E0,-1.237226978E0,-6.016439921E0,6.763207203E0
1.030613925E1,-2.743193741E0,-1.021140785E0,-5.352322522E0,6.100425951E0
1.031612525E1,-2.755585161E0,-7.914016351E-1,-4.516884044E0,5.349935289E0
1.032611125E1,-2.850125282E0,-6.639595234E-1,-4.038237988E0,4.987125667E0
1.033609725E1,-2.773943664E0,-4.515146837E-1,-3.856424664E0,4.771859192E0
1.034608325E1,-2.391085525E0,-1.611445856E-1,-3.612586416E0,4.335209127E0
1.035606925E1,-1.836709839E0,-3.161063254E-2,-2.912809188E0,3.443684020E0
1.036605525E1,-1.544017519E0,-1.827807453E-1,-1.963757995E0,2.504744371E0
1.037604125E1,-1.298091815E0,-3.369458020E-1,-1.181778270E0,1.787505165E0
1.038602625E1,-6.758147532E-1,-4.265616909E-1,-7.380799985E-1,1.087861453E0
1.039601225E1,-1.979639179E-1,-3.492056590E-1,-4.954125090E-1,6.376267397E-1
1.040599825E1,3.042306304E-3,-2.901841566E-1,-3.792468989E-1,4.775398525E-1
1.041598425E1,5.575378597E-2,-3.019677579E-1,-4.128436844E-1,5.145220299E-1
1.042597025E1,1.576842034E-1,-3.012938663E-1,-6.704544644E-1,7.517655823E-1
1.043595625E1,3.291315830E-1,-2.565267062E-1,-9.880097298E-1,1.072518893E0
1.044594225E1,3.192860413E-1,-2.007486543E-1,-1.091764186E0,1.155072568E0
1.045592825E1,1.735412675E-1,-2.032907313E-1,-1.256867483E0,1.284974538E0
1.046591425E1,-8.141604602E-2,-1.475965869E-1,-1.354303000E0,1.364752703E0
1.047590025E1,-4.178987485E-1,-1.557721639E-1,-1.311827363E0,1.385566802E0
1.048588525E1,-8.494109845E-1,-1.709737551E-1,-9.682810780E-1,1.299345717E0
1.049587125E1,-1.191336860E0,-2.227072880E-1,-7.237964201E-1,1.411652687E0
1.050585725E1,-1.430761045E0,-1.569044772E-1,-8.789826930E-1,1.686507266E0
1.051584325E1,-1.456778231E0,-1.251654983E-2,-1.165303009E0,1.865553693E0
1.052582925E1,-1.237872511E0,7.648362726E-2,-1.111761371E0,1.665590419E0
1.053581525E1,-8.561709505E-1,4.697214514E-2,-7.048550959E-1,1.109980083E0
1.054580125E1,-3.818646973E-1,-7.056653738E-2,-3.711004119E-1,5.371366669E-1
1.055578725E1,-2.474892497E-2,-2.011395407E-1,-2.801270919E-1,3.457467450E-1
1.056577325E1,2.274946958E-1,-3.142293692E-1,-2.945428173E-1,4.870825436E-1
1.057575925E1,3.761753565E-1,-3.167208678E-1,-3.318598938E-1,5.932545794E-1
1.058574525E1,3.904238516E-1,-2.101594555E-1,-5.957457595E-1,7.426377250E-1
1.059573025E1,3.828441060E-1,-1.690093830E-1,-9.985405652E-1,1.082689725E0
1.060571625E1,3.610351610E-1,-1.216589230E-1,-1.432811079E0,1.482597339E0
1.061570225E1,2.448363680E-1,-7.271421969E-2,-1.800642020E0,1.818665415E0
1.062568825E1,-8.563305795E-2,-6.844692171E-2,-2.019811889E0,2.022784731E0
1.063567425E1,-4.148617047E-1,-1.274719325E-1,-2.292486412E0,2.333206651E0
1.064566025E1,-5.575051153E-1,-8.063018024E-3,-2.605102681E0,2.664101526E0
1.065564625E1,-6.854036021E-1,1.043654904E-1,-2.630580461E0,2.720408759E0
1.066563225E1,-1.034060792E0,8.734219909E-2,-2.320461684E0,2.541938790E0
1.067561825E1,-1.473456829E0,-5.805554241E-2,-1.774266546E0,2.307047301E0
1.068560425E1,-1.771139163E0,-4.370296687E-2,-1.478585714E0,2.307609065E0
1.069559025E1,-2.146061461E0,4.309397936E-3,-1.564123463E0,2.655575375E0
1.070557525E1,-2.325446436E0,2.317242792E-1,-1.666369922E0,2.870224030E0
1.071556125E1,-2.265251690E0,5.075590762E-1,-1.535767975E0,2.783444755E0
1.072554725E1,-1.852084508E0,5.945530736E-1,-8.343710688E-1,2.116573992E0
1.073553325E1,-1.275152019E0,5.524887890E-1,3.852812254E-1,1.442115861E0
1.074551925E1,-7.794157201E-1,6.071164012E-1,1.929491703E0,2.167721712E0
1.075550525E1,-4.395960116E-1,4.539102879E-1,3.123278839E0,3.186557689E0
1.076549125E1,1.336696887E-1,1.197270030E-1,3.637850773E0,3.642274068E0
1.077547725E1,1.078599034E0,1.108801657E-1,3.592136072E0,3.752214259E0
1.078546325E1,2.267621566E0,3.082137537E-1,3.146303712E0,3.890543707E0
1.079544975E1,3.443162758E0,3.932609206E-1,2.665949976E0,4.372334983E0
1.080543575E1,4.453894914E0,1.755427694E-1,2.612554665E0,5.166569175E0
1.081542075E1,5.179388781E0,-1.998923296E-1,2.838082649E0,5.909377142E0
1.082540675E1,5.146938488E0,-6.594372869E-1,2.927409686E0,5.957815103E0
1.083539275E1,4.775938502E0,-1.132267703E0,2.891541403E0,5.696721023E0
1.084537875E1,4.377914439E0,-1.549916191E0,2.587192951E0,5.316196235E0
1.085536475E1,3.924133083E0,-1.855886952E0,1.959183133E0,4.762513557E0
1.086535075E1,3.569224634E0,-2.212757726E0,1.246443652E0,4.380557387E0
1.087533675E1,2.954514454E0,-2.528766988E0,5.307656519E-1,3.924987938E0
1.088532275E1,2.212515652E0,-2.680635258E0,-2.160674822E-1,3.482487050E0
1.089530875E1,1.690563362E0,-2.745879952E0,-6.697857622E-1,3.293398573E0
1.090529475E1,1.584403068E0,-3.036564338E0,-1.165913678E0,3.618067270E0
1.091528075E1,1.619370003E0,-2.939135984E0,-1.898007370E0,3.855296554E0
1.092526575E1,1.679505107E0,-2.778419123E0,-2.310969315E0,3.985088380E0
1.093525175E1,1.724696483E0,-2.864598018E0,-2.354346299E0,4.089431044E0
1.094523775E1,2.049885288E0,-2.978272861E0,-2.081125792E0,4.171717092E0
1.095522375E1,2.468849984E0,-3.279276413E0,-1.352148739E0,4.321710338E0
1.096520975E1,2.631134192E0,-3.629395992E0,-9.251710188E-1,4.577261607E0
1.097519575E1,2.843542487E0,-3.906373042E0,-8.674730337E-1,4.908970736E0
1.098518175E1,3.089632498E0,-4.061598784E0,-1.038823349E0,5.207837133E0
1.099516775E1,3.167442566E0,-4.262906724E0,-1.445642209E0,5.504084624E0
1.100515375E1,3.374546267E0,-4.510728096E0,-2.155393617E0,6.031579570E0
1.101513975E1,3.615800630E0,-4.620345263E0,-2.913219663E0,6.550454439E0
1.102512575E1,3.516286867E0,-4.534077782E0,-3.938180434E0,6.959267188E0
1.103511075E1,3.241632038E0,-4.837800582E0,-5.100226836E0,7.741111453E0
1.104509675E1,2.766320649E0,-5.169247370E0,-6.594872221E0,8.824170664E0
1.105508275E1,2.075004342E0,-5.128627347E0,-7.873208048E0,9.622674600E0
1.106506875E1,1.024351491E0,-5.120513751E0,-7.983134533E0,9.539360252E0
1.107505475E1,-9.698238659E-1,-5.412362317E0,-6.439088362E0,8.467353962E0
1.108504075E1,-3.514215783E0,-5.727052447E0,-3.851709470E0,7.744966633E0
1.109502675E1,-5.693937326E0,-6.231402279E0,-1.749089313E0,8.620360205E0
1.110501275E1,-6.873507249E0,-5.822426966E0,-9.109377265E-1,9.054035853E0
1.111499875E1,-7.303358876E0,-4.810571560E0,-6.444741158E-1,8.769036235E0
1.112498475E1,-7.686630998E0,-4.094193210E0,-8.310135975E-1,8.748559753E0
1.113497075E1,-8.227380332E0,-3.669780956E0,-9.246362910E-1,9.056049452E0
1.114495575E1,-8.501163341E0,-3.650128172E0,-9.346443853E-1,9.298751204E0
1.115494175E1,-8.169513363E0,-3.534812308E0,-2.013893045E0,9.126423825E0
1.116492775E1,-7.523481987E0,-2.712039192E0,-3.430855831E0,8.702224401E0
1.117491375E1,-6.943810077E0,-2.417872204E0,-4.522143030E0,8.632055489E0
1.118489975E1,-6.361024525E0,-2.289132595E0,-5.019991343E0,8.420396317E0
1.119488575E1,-6.041598735E0,-2.401463455E0,-4.702776678E0,8.023967254E0
1.120487175E1,-6.013264298E0,-2.762250694E0,-3.449984120E0,7.462691662E0
1.121485775E1,-6.115732659E0,-3.366563648E0,-1.819443596E0,7.214312979E0
1.122484375E1,-6.130378765E0,-4.215610643E0,-4.248393935E-1,7.452073900E0
1.123482975E1,-5.465920474E0,-4.864213917E0,6.572393185E-1,7.346347880E0
1.124481575E1,-3.720717221E0,-4.706558949E0,1.001862807E0,6.082693718E0
1.125480075E1,-1.857744613E0,-3.703807950E0,1.066022843E0,4.278529313E0
1.126478675E1,-4.645343864E-1,-3.348417107E0,1.175357004E0,3.578987762E0
1.127477275E1,4.642274076E-1,-3.682116242E0,1.342040073E0,3.946461537E0
1.128475875E1,9.391411865E-1,-3.774572124E0,1.644375036E0,4.222955143E0
1.129474475E1,1.197381127E0,-3.661133509E0,1.923563796E0,4.305545007E0
1.130473075E1,1.557354434E0,-3.095717695E0,2.313312294E0,4.166561490E0
1.131471675E1,2.100482415E0,-2.654004407E0,2.906270247E0,4.461185102E0
1.132470275E1,2.239090662E0,-1.966115738E0,3.759562613E0,4.797233487E0
1.133468875E1,1.725891069E0,-1.386054111E0,4.652302635E0,5.152064226E0
1.134467475E1,1.046839882E0,-1.080742916E0,5.026853051E0,5.247202167E0
1.135466075E1,4.434177518E-2,-6.418020844E-1,5.117890690E0,5.158166459E0
1.136464575E1,-7.082714778E-1,-2.415461397E-1,4.935074569E0,4.991488157E0
1.137463175E1,-1.030682271E0,2.747776204E-1,4.597162222E0,4.719291174E0
1.138461775E1,-1.439090989E0,1.060095812E0,4.489855290E0,4.832554866E0
1.139460375E1,-2.489146839E0,1.441204465E0,4.731942297E0,5.537526542E0
1.140458975E1,-3.999520065E0,1.335679764E0,5.239597560E0,6.725591704E0
1.141457575E1,-5.386870796E0,1.222231501E0,5.822657347E0,8.025930812E0
1.142456175E1,-6.452599524E0,1.009829784E0,6.086663811E0,8.927668965E0
1.143454775E1,-6.061682752E0,-9.336921662E-2,5.579255885E0,8.238981237E0
1.144453375E1,-4.156895535E0,-1.431253088E0,4.617353243E0,6.375595412E0
1.145451975E1,-2.191776162E0,-3.021274454E0,3.237403917E0,4.940927665E0
1.146450575E1,-1.178886384E-1,-3.793659774E0,1.465315751E0,4.068525834E0
1.147449075E1,1.883118605E0,-2.926525587E0,2.876485115E-1,3.491909128E0
1.148447675E1,3.090905437E0,-2.217704909E0,8.186101913E-5,3.804196563E0
1.149446275E1,3.286153908E0,-1.943430442E0,4.231805384E-1,3.841199182E0
1.150444875E1,2.873597175E0,-2.381325498E0,1.367885935E0,3.974843870E0
1.151443475E1,2.972787003E0,-3.239544582E0,1.927245203E0,4.800665135E0
1.152442075E1,3.006429543E0,-2.470065036E0,2.385414895E0,4.563994314E0
1.153440675E1,2.991287593E0,-1.970152071E0,2.743494873E0,4.511769583E0
1.154439275E1,2.731884642E0,-2.640653752E0,3.096213539E0,4.901304338E0
1.155437875E1,3.320995127E0,-4.082703724E0,2.953038617E0,6.034725793E0
1.156436475E1,4.741080326E0,-4.747200022E0,1.754515529E0,6.934845019E0
1.157434975E1,6.325320257E0,-4.683404852E0,-4.351632375E-1,7.882469436E0
1.158433575E1,7.222240453E0,-3.845126674E0,-2.325833521E0,8.506189386E0
1.159432175E1,7.253435349E0,-3.211102264E0,-3.087573986E0,8.512145160E0
1.160430775E1,6.572432946E0,-3.552530249E0,-2.799218253E0,7.978281070E0
1.161429375E1,6.254119297E0,-4.191852529E0,-2.483957143E0,7.928157345E0
1.162427975E1,6.009835491E0,-3.791937477E0,-2.638856318E0,7.580268803E0
1.163426575E1,5.706131110E0,-3.528083040E0,-2.797540395E0,7.268667996E0
1.164425175E1,4.750622397E0,-3.442738835E0,-2.676205115E0,6.448483361E0
1.165423775E1,3.296756664E0,-3.204399893E0,-2.325806332E0,5.152296407E0
1.166422375E1,2.122871404E0,-3.037006388E0,-1.775743260E0,4.108923816E0
1.167420975E1,1.101195599E0,-3.368640287E0,-1.559558980E0,3.872027032E0
1.168419475E1,8.465476030E-1,-3.417589083E0,-2.342706832E0,4.229046380E0
1.169418075E1,1.301030626E0,-3.114353941E0,-4.304271097E0,5.469792577E0
1.170416675E1,1.774517684E0,-2.260816869E0,-6.409012624E0,7.023933993E0
1.171415275E1,1.717572235E0,-1.576149724E0,-7.649014106E0,7.996356616E0
1.172413875E1,1.372825663E0,-1.325717863E0,-7.837598505E0,8.066605759E0
1.173412475E1,7.541025388E-1,-1.213504532E0,-7.296724041E0,7.435283829E0
1.174411075E1,3.987918019E-2,-1.097963258E0,-6.406431663E0,6.499960024E0
1.175409675E1,-4.931056362E-1,-9.275879654E-1,-5.396391817E0,5.497691993E0
1.176408275E1,-7.503275764E-1,-7.396917835E-1,-4.443326072E0,4.566539388E0
1.177406875E1,-1.034894605E0,-6.823305979E-1,-3.669709035E0,3.873415327E0
1.178405475E1,-1.308706850E0,-5.646854961E-1,-3.106091241E0,3.417511686E0
1.179404037E1,-1.351320773E0,-4.411542946E-1,-2.844863373E0,3.180240959E0
1.180402638E1,-1.161979160E0,-3.363040701E-1,-2.599003158E0,2.866725206E0
1.181401237E1,-1.007747152E0,-2.234636253E-1,-2.502632858E0,2.707150076E0
1.182399837E1,-9.412268883E-1,-3.459183544E-2,-2.629258990E0,2.792867252E0
1.183398438E1,-9.600438130E-1,1.901146156E-1,-2.828783530E0,2.993299843E0
1.184397037E1,-9.431091070E-1,3.020241836E-1,-2.896890728E0,3.061478285E0
1.185395637E1,-8.912039584E-1,2.018833065E-1,-2.554384224E0,2.712909901E0
1.186394237E1,-8.560481590E-1,1.369988009E-1,-2.067988268E0,2.242356484E0
1.187392838E1,-7.506234455E-1,1.998084220E-1,-1.856357653E0,2.012317743E0
1.188391437E1,-7.158424526E-1,2.470597717E-1,-1.871851459E0,2.019231743E0
1.189390037E1,-8.328610253E-1,1.905192429E-1,-1.714958969E0,1.915995651E0
1.190388538E1,-1.134974964E0,1.669730902E-1,-1.312893018E0,1.743483943E0
1.191387137E1,-1.533831670E0,1.074115974E-1,-9.593936026E-1,1.812350112E0
1.192385737E1,-1.772740130E0,5.251852155E-2,-7.910592806E-1,1.941942468E0
1.193384338E1,-1.716849520E0,1.598628759E-2,-8.657793877E-1,1.922862913E0
1.194382937E1,-1.645652652E0,5.792193353E-2,-1.015545438E0,1.934647291E0
1.195381537E1,-1.734077756E0,1.175056458E-1,-1.168033659E0,2.094071601E0
1.196380138E1,-1.697776487E0,8.458903760E-2,-1.306145185E0,2.143738685E0
1.197378737E1,-1.391814496E0,1.703176975E-2,-1.465727249E0,2.021334717E0
1.198377337E1,-1.104780527E0,7.934145391E-2,-1.703408379E0,2.031855109E0
1.199375938E1,-9.805020511E-1,1.509604901E-2,-1.838211550E0,2.083418793E0
1.200374537E1,-8.707387036E-1,-1.284533876E-1,-1.831958392E0,2.032426557E0
1.201373037E1,-7.005361962E-1,-9.822415978E-2,-1.808510911E0,1.941934773E0
1.202371637E1,-4.735835373E-1,-5.799911678E-2,-1.751549821E0,1.815371047E0
1.203370238E1,-4.564780927E-1,-5.482290924E-2,-1.445467962E0,1.516824126E0
1.204368837E1,-6.193119389E-1,-7.833047032E-2,-1.069392593E0,1.238258236E0
1.205367437E1,-8.098867303E-1,-2.080497801E-2,-9.333749548E-1,1.235936151E0
1.206366038E1,-1.152911298E0,3.446056545E-2,-9.508788872E-1,1.494845360E0
1.207364637E1,-1.470969424E0,1.434260604E-1,-1.007580799E0,1.788726124E0
1.208363237E1,-1.704304318E0,1.923751491E-1,-1.323865757E0,2.166629168E0
1.209361838E1,-1.877057381E0,2.722402212E-1,-1.606143016E0,2.485388207E0
1.210360437E1,-1.953478736E0,3.909930781E-1,-1.968542625E0,2.800734694E0
1.211358937E1,-2.031263661E0,3.862661889E-1,-2.131201639E0,2.969386141E0
1.212357538E1,-1.875764562E0,4.091010278E-1,-1.920260996E0,2.715374493E0
1.213356137E1,-1.693924341E0,4.040595585E-1,-1.323778049E0,2.187471628E0
1.214354737E1,-1.582923138E0,3.547198758E-1,-6.869949219E-1,1.761656571E0
1.215353338E1,-1.700772600E0,1.720782942E-1,7.989167690E-2,1.711321436E0
1.216351937E1,-1.716310991E0,6.240733266E-3,1.065580501E0,2.020203992E0
1.217350537E1,-8.876617151E-1,-4.063083977E-2,2.031663903E0,2.217487858E0
1.218349138E1,1.283762044E-1,-2.791402280E-2,2.685266838E0,2.688478684E0
1.219347737E1,1.198199737E0,-1.458646417E-1,3.013026664E0,3.245810959E0
1.220346337E1,2.312729326E0,-3.460171723E-1,2.991524113E0,3.797059565E0
1.221344938E1,3.238535938E0,-4.929085851E-1,2.643564496E0,4.209454494E0
1.222343438E1,3.953565043E0,-5.050093979E-1,2.113273784E0,4.511278879E0
1.223342037E1,4.273567953E0,-4.830507642E-1,1.475600418E0,4.546879994E0
1.224340637E1,4.068052940E0,-5.108753246E-1,8.825193813E-1,4.193910917E0
1.225339238E1,3.390178798E0,-5.947922248E-1,3.760130963E-1,3.462437858E0
1.226337837E1,2.482479844E0,-7.271486288E-1,6.944533378E-2,2.587715973E0
1.227336437E1,1.542323581E0,-9.847594088E-1,-6.540110707E-4,1.829894409E0
1.228335038E1,7.590276486E-1,-1.189430668E0,-1.976151314E-1,1.424752619E0
1.229333637E1,1.977697903E-1,-1.362894752E0,-6.351728037E-1,1.516588107E0
1.230332237E1,6.594022036E-2,-1.491020696E0,-1.278761797E0,1.965381022E0
1.231330838E1,2.900710130E-1,-1.547738103E0,-1.914666965E0,2.479028845E0
1.232329437E1,6.494174981E-1,-1.278493118E0,-2.536154945E0,2.913480675E0
1.233328037E1,9.949896973E-1,-1.160078815E0,-2.877796938E0,3.258450947E0
1.234326538E1,1.413652677E0,-1.131045050E0,-2.776559416E0,3.314658200E0
1.235325137E1,1.789873057E0,-1.121264412E0,-2.442114176E0,3.228746055E0
1.236323737E1,2.147891055E0,-1.125502474E0,-1.962731662E0,3.119696681E0
1.237322338E1,2.580009647E0,-1.149087219E0,-1.331119667E0,3.122295755E0
1.238320937E1,2.848461165E0,-1.215477090E0,-4.007216755E-1,3.122770152E0
1.239319537E1,2.638068405E0,-1.328555809E0,4.622744375E-1,2.989676087E0
1.240318138E1,2.503438604E0,-1.544373615E0,6.637526782E-1,3.015437335E0
1.241316737E1,2.463395702E0,-1.460229258E0,4.759190615E-1,2.902944509E0
1.242315337E1,2.367377989E0,-1.350589871E0,3.353626683E-2,2.725746911E0
1.243313938E1,2.384341931E0,-1.493616275E0,-5.605924451E-1,2.868839471E0
1.244312438E1,2.636107834E0,-1.687891769E0,-1.260474923E0,3.374439237E0
1.245311037E1,3.063456852E0,-1.792173936E0,-1.827860663E0,3.992208650E0
1.246309637E1,3.526972069E0,-1.985215668E0,-2.139269335E0,4.577891055E0
1.247308238E1,3.870646262E0,-2.292281613E0,-2.127827358E0,4.976354765E0
1.248306837E1,3.250099391E0,-2.601039450E0,-2.091051879E0,4.658438605E0
1.249305437E1,2.264721347E0,-2.836281415E0,-2.200898696E0,4.244691993E0
1.250304038E1,1.217876202E0,-2.837068742E0,-2.394005332E0,3.906845661E0
1.251302637E1,5.040299892E-4,-2.923618936E0,-2.527207536E0,3.864495551E0
1.252301237E1,-1.026628981E0,-2.961894517E0,-2.376294115E0,3.933644610E0
1.253299838E1,-1.256602312E0,-2.919035304E0,-2.023747065E0,3.767674171E0
1.254298437E1,-1.548902868E0,-3.167746621E0,-1.664046239E0,3.899072792E0
1.255296937E1,-1.883408627E0,-3.431190876E0,-1.813417748E0,4.313789843E0
1.256295538E1,-1.607912968E0,-3.313235872E0,-2.336661834E0,4.361525488E0
1.257294137E1,-1.282114883E0,-3.041200011E0,-2.888453196E0,4.385872541E0
1.258292737E1,-1.367070833E0,-2.930201439E0,-3.535161095E0,4.790858702E0
1.259291338E1,-1.477874985E0,-2.769675781E0,-4.060262110E0,5.132343208E0
1.260289937E1,-1.789050938E0,-2.728933552E0,-4.357823406E0,5.444116681E0
1.261288537E1,-2.326701248E0,-2.852740157E0,-4.266391080E0,5.635047289E0
1.262287138E1,-2.655542809E0,-2.961879607E0,-3.911645769E0,5.579033163E0
1.263285737E1,-2.760772226E0,-2.941696480E0,-3.504393046E0,5.343801277E0
1.264284337E1,-2.597463586E0,-2.940912661E0,-3.243016951E0,5.090475745E0
1.265282938E1,-2.609693037E0,-2.794999487E0,-3.280414281E0,5.038217714E0
1.266281438E1,-3.062337695E0,-2.494057331E0,-3.231366082E0,5.102936496E0
1.267280037E1,-3.583564931E0,-2.442163877E0,-3.111401682E0,5.337314160E0
1.268278637E1,-4.040718961E0,-2.455841391E0,-2.799313563E0,5.494972528E0
1.269277238E1,-4.256794630E0,-2.442839815E0,-2.415110272E0,5.469965677E0
1.270275837E1,-4.110013145E0,-2.187345581E0,-2.229451235E0,5.162086937E0
1.271274437E1,-3.934267477E0,-1.965668134E0,-2.165737342E0,4.902318842E0
1.272273038E1,-3.490904104E0,-1.929241881E0,-2.130899631E0,4.522070205E0
1.273271637E1,-2.975030580E0,-1.823928849E0,-2.153188632E0,4.100456643E0
1.274270237E1,-2.748390747E0,-1.741371719E0,-2.099759114E0,3.872339796E0
1.275268838E1,-2.808838093E0,-1.864734082E0,-1.829455199E0,3.835845533E0
1.276267437E1,-3.068179064E0,-2.079003545E0,-1.245100839E0,3.909764009E0
1.277265937E1,-3.438434114E0,-2.161934605E0,-6.185295814E-1,4.108450954E0
1.278264538E1,-3.762213741E0,-2.358412745E0,-3.765589339E-1,4.456249493E0
1.279263137E1,-3.805269713E0,-2.442942434E0,-4.658684286E-1,4.545885911E0
1.280261675E1,-3.714006956E0,-1.921866349E0,-4.567222139E-1,4.206662943E0
1.281260275E1,-3.797221021E0,-1.677032320E0,-7.559865117E-2,4.151751443E0
1.282258875E1,-3.921292505E0,-1.812786249E0,4.972849336E-1,4.348565419E0
1.283257475E1,-4.125702394E0,-1.823717911E0,1.062994570E0,4.634363464E0
1.284256075E1,-4.397272232E0,-1.619976944E0,1.586698685E0,4.947518681E0
1.285254675E1,-4.585888206E0,-1.478903511E0,2.088777751E0,5.251715788E0
1.286253275E1,-4.700906446E0,-1.398266021E0,2.612523090E0,5.556882775E0
1.287251875E1,-4.657050574E0,-1.217103201E0,3.051012808E0,5.698959502E0
1.288250375E1,-4.487589494E0,-1.003709065E0,3.414129578E0,5.727318057E0
1.289248975E1,-4.314412508E0,-8.598853943E-1,3.752203308E0,5.782091995E0
1.290247575E1,-4.110680312E0,-6.890160120E-1,3.952431267E0,5.744053326E0
1.291246175E1,-3.854883923E0,-4.254311317E-1,4.142546468E0,5.674664126E0
1.292244775E1,-3.617381133E0,-3.389269848E-1,4.254591399E0,5.594807033E0
1.293243375E1,-3.193010101E0,-5.217496839E-1,4.135130444E0,5.250413320E0
1.294241975E1,-2.679616966E0,-6.070447728E-1,3.699245076E0,4.607956659E0
1.295240575E1,-2.436822445E0,-4.477085848E-1,3.187038340E0,4.036800712E0
1.296239175E1,-2.452636240E0,-3.485919937E-1,2.724897804E0,3.682663295E0
1.297237775E1,-2.303216491E0,-3.154292909E-1,2.292713723E0,3.265093882E0
1.298236375E1,-1.683318661E0,-3.602037600E-1,2.133291727E0,2.741211786E0
1.299234875E1,-1.003443017E0,-3.270691238E-1,2.422773925E0,2.642670163E0
1.300233475E1,-7.334261996E-1,-1.399430750E-1,3.125934352E0,3.213870505E0
1.301232075E1,-8.182049793E-1,-7.606803641E-2,4.061405826E0,4.143701608E0
1.302230675E1,-6.770046616E-1,-4.429884200E-1,4.852942824E0,4.919921555E0
1.303229275E1,-1.450916398E-1,-9.045259622E-1,5.272365941E0,5.351360707E0
1.304227875E1,5.598206127E-1,-1.321642499E0,5.212265335E0,5.406278567E0
1.305226475E1,1.171862124E0,-1.455084585E0,4.719418731E0,5.075770399E0
1.306225075E1,1.945577393E0,-1.434015459E0,3.978242632E0,4.654899157E0
1.307223675E1,2.756561646E0,-1.460536821E0,3.149740121E0,4.433132385E0
1.308222275E1,3.216461529E0,-1.578997318E0,2.353090902E0,4.286711337E0
1.309220875E1,3.391741174E0,-1.722882969E0,1.551346419E0,4.108395019E0
1.310219375E1,3.511109743E0,-2.052678503E0,7.099952370E-1,4.128616463E0
1.311217975E1,3.651096178E0,-2.138944230E0,8.092137158E-2,4.232272911E0
1.312216575E1,3.664708496E0,-1.765972855E0,1.855309832E-1,4.072243882E0
1.313215175E1,3.327790176E0,-1.962195765E0,7.891495800E-1,3.942988300E0
1.314213775E1,3.104404904E0,-2.738309562E0,1.380451602E0,4.363635605E0
1.315212375E1,3.529519701E0,-3.426508718E0,1.328777418E0,5.095500048E0
1.316210975E1,3.883928797E0,-3.497295696E0,4.887629092E-1,5.249273213E0
1.317209575E1,3.977463782E0,-3.166530401E0,-4.676269788E-1,5.105468432E0
1.318208175E1,4.111597740E0,-3.084903270E0,-1.211230550E0,5.280998353E0
1.319206775E1,3.929272200E0,-3.269470047E0,-1.566847388E0,5.346365602E0
1.320205375E1,3.552186432E0,-3.590078729E0,-1.898679215E0,5.395523746E0
1.321203875E1,3.236244414E0,-3.651123075E0,-2.472951806E0,5.469869126E0
1.322202475E1,3.337073801E0,-3.629146900E0,-3.016901029E0,5.780005242E0
1.323201075E1,3.410194986E0,-3.661039953E0,-3.760460746E0,6.258890349E0
1.324199675E1,3.011637073E0,-3.628227718E0,-4.605756752E0,6.591433038E0
1.325198275E1,2.575325443E0,-3.603513876E0,-5.423783099E0,7.002502160E0
1.326196875E1,2.033921805E0,-3.280303769E0,-6.153962924E0,7.264192343E0
1.327195475E1,1.497460234E0,-2.848857606E0,-6.637409545E0,7.376556262E0
1.328194075E1,8.263179910E-1,-2.602058913E0,-6.784733652E0,7.313420727E0
1.329192675E1,4.631287158E-2,-2.372620602E0,-6.530023091E0,6.947853983E0
1.330191275E1,-6.431761801E-1,-2.123364909E0,-6.056534278E0,6.450113301E0
1.331189875E1,-1.199983723E0,-2.000810777E0,-5.653518448E0,6.116001597E0
1.332188375E1,-1.644952741E0,-1.736879157E0,-5.342620822E0,5.853735216E0
1.333186975E1,-1.861248264E0,-1.516954266E0,-4.882981725E0,5.441406608E0
1.334185575E1,-1.809517363E0,-1.402459352E0,-4.384334682E0,4.946072778E0
1.335184175E1,-1.749800334E0,-1.240171636E0,-4.187249601E0,4.704560140E0
1.336182775E1,-1.682319957E0,-9.856446773E-1,-4.216958134E0,4.645904839E0
1.337181375E1,-1.748714506E0,-8.268933570E-1,-4.135976536E0,4.565967253E0
1.338179975E1,-1.937430468E0,-6.870431614E-1,-3.973780621E0,4.473991233E0
1.339178575E1,-2.072022262E0,-5.518894494E-1,-3.942176421E0,4.487606617E0
1.340177175E1,-1.994135011E0,-3.906624180E-1,-3.926003022E0,4.420711628E0
1.341175775E1,-1.759210258E0,-1.484336159E-1,-3.758175069E0,4.152196180E0
1.342174375E1,-1.447237914E0,-5.000568062E-2,-3.314450923E0,3.616985357E0
1.343172875E1,-9.310258359E-1,-8.230248392E-2,-2.585399026E0,2.749158222E0
1.344171475E1,-4.805493253E-1,-1.502494687E-1,-1.951215863E0,2.015129252E0
1.345170075E1,-6.547829032E-2,-1.233224559E-1,-1.412060772E0,1.418947307E0
1.346168675E1,1.198486251E-1,9.972133934E-3,-8.055603755E-1,8.144879710E-1
1.347167275E1,5.520765603E-2,-3.911085606E-2,-2.713368264E-1,2.796448063E-1
1.348165875E1,-7.060337484E-2,-7.803664774E-2,8.933376074E-3,1.056142042E-1
1.349164475E1,-1.512206912E-2,-9.478278100E-2,1.842662305E-2,9.773429790E-2
1.350163075E1,-1.833160579E-2,2.516524673E-2,-9.259182930E-2,9.768615187E-2
1.351161675E1,-2.231554770E-1,1.237142193E-1,-2.997184803E-1,3.936175078E-1
1.352160275E1,-6.032899833E-1,1.991690290E-1,-4.644732830E-1,7.869958937E-1
1.353158875E1,-9.747711951E-1,2.597900373E-1,-6.638048646E-1,1.207603679E0
1.354157375E1,-1.217834687E0,2.946958682E-1,-8.354592356E-1,1.505974473E0
1.355155975E1,-1.371163884E0,3.364335859E-1,-1.029973004E0,1.747604745E0
1.356154575E1,-1.497846735E0,4.186018762E-1,-1.302052134E0,2.028327423E0
1.357153175E1,-1.569379233E0,4.787901905E-1,-1.515805289E0,2.233798759E0
1.358151775E1,-1.358585354E0,4.569753984E-1,-1.601445071E0,2.149234048E0
1.359150375E1,-1.025027429E0,4.599329200E-1,-1.503877261E0,1.877196403E0
1.360148975E1,-6.924699622E-1,4.410472906E-1,-1.368154761E0,1.595582906E0
1.361147575E1,-3.541968423E-1,3.674700218E-1,-1.250766498E0,1.350890985E0
1.362146175E1,2.092309177E-2,2.356401595E-1,-1.165845631E0,1.189605017E0
1.363144775E1,2.087198710E-1,2.571105507E-1,-1.183247237E0,1.228716340E0
1.364143275E1,1.961676532E-1,2.001767966E-1,-1.229629983E0,1.261167076E0
1.365141875E1,-1.265980661E-2,1.585960767E-1,-1.178773240E0,1.189461785E0
1.366140475E1,-4.765901756E-1,1.645350936E-1,-9.328887588E-1,1.060420402E0
1.367139075E1,-1.102137001E0,1.360079902E-1,-6.051780492E-1,1.264691509E0
1.368137675E1,-1.949532450E0,6.411939740E-2,1.877687126E-2,1.950676970E0
1.369136275E1,-2.490918546E0,4.489141345E-2,7.356700686E-1,2.597672206E0
1.370134875E1,-2.709001563E0,1.501038730E-2,1.270162882E0,2.992027494E0
1.371133475E1,-2.218495599E0,8.714222431E-2,1.648052934E0,2.765030735E0
1.372132075E1,-1.168163760E0,1.083986074E-1,2.000551453E0,2.319172901E0
1.373130675E1,-6.978768826E-2,-1.218366784E-1,2.131810919E0,2.136429801E0
1.374129275E1,1.294239669E0,-3.392203689E-1,2.298504220E0,2.659557939E0
1.375127875E1,2.613262762E0,-4.669247282E-1,2.650046719E0,3.750987681E0
1.376126375E1,3.704957805E0,-6.810982972E-1,3.179265929E0,4.929334547E0
1.377124975E1,4.359071787E0,-1.113190577E0,3.493203229E0,5.695890528E0
1.378123575E1,4.941384884E0,-1.673552057E0,3.140637468E0,6.089471633E0
1.379122175E1,5.644745870E0,-2.175355427E0,2.162595633E0,6.424340203E0
1.380120763E1,6.506268193E0,-2.395632319E0,7.580444393E-1,6.974611916E0
1.381119362E1,6.958237497E0,-2.683825791E0,-6.861359659E-1,7.489377311E0
1.382117962E1,6.925579044E0,-3.128579632E0,-1.650195647E0,7.776554589E0
1.383116563E1,6.249373112E0,-3.665222467E0,-2.269278667E0,7.591979036E0
1.384115162E1,5.144742858E0,-4.146447145E0,-2.791656049E0,7.173196394E0
1.385113762E1,4.040600263E0,-4.413605844E0,-2.963683473E0,6.677558443E0
1.386112363E1,3.337303596E0,-4.677568162E0,-2.695343052E0,6.346819154E0
1.387110862E1,2.675996370E0,-4.955394228E0,-2.427332414E0,6.132603947E0
1.388109462E1,2.247905924E0,-5.200969684E0,-2.345390411E0,6.132211908E0
1.389108063E1,1.855858301E0,-5.188450795E0,-2.281309606E0,5.963942086E0
1.390106662E1,1.118877579E0,-5.155560207E0,-2.095229423E0,5.676413870E0
1.391105262E1,7.359176981E-1,-5.244252529E0,-1.782094506E0,5.587452037E0
1.392103863E1,2.540270215E-1,-5.324123740E0,-1.655151747E0,5.581249917E0
1.393102462E1,-2.508373654E-1,-5.304440258E0,-2.267185071E0,5.774091615E0
1.394101062E1,-4.262497419E-1,-5.097245926E0,-3.118774144E0,5.990856118E0
1.395099663E1,-5.168184346E-1,-4.841092857E0,-3.842309778E0,6.202146868E0
1.396098262E1,-8.251315910E-1,-4.703670717E0,-4.706303426E0,6.704823062E0
1.397096862E1,-1.335019906E0,-4.396772879E0,-5.502516443E0,7.168791886E0
1.398095362E1,-1.832543113E0,-4.138209588E0,-6.135012099E0,7.623737030E0
1.399093963E1,-2.321957987E0,-3.832696078E0,-6.536990633E0,7.925483875E0
1.400092562E1,-2.994193659E0,-3.507103523E0,-6.449570666E0,7.928551732E0
1.401091162E1,-3.844959444E0,-3.451312899E0,-5.837528570E0,7.795640683E0
1.402089763E1,-4.514645730E0,-3.311602160E0,-4.909311737E0,7.446480824E0
1.403088362E1,-5.068478794E0,-3.013439477E0,-4.064829955E0,7.161922740E0
1.404086962E1,-5.528489774E0,-2.785362107E0,-3.697852854E0,7.210863816E0
1.405085563E1,-5.849291414E0,-2.606908886E0,-4.105645859E0,7.607004135E0
1.406084162E1,-5.892567827E0,-2.533952591E0,-4.871284955E0,8.054358350E0
1.407082762E1,-5.270964364E0,-2.567592500E0,-5.272958264E0,7.885409655E0
1.408081363E1,-4.368191105E0,-2.465800661E0,-5.034322869E0,7.106734354E0
1.409079862E1,-3.765439065E0,-2.557152881E0,-4.171185253E0,6.173843910E0
1.410078462E1,-3.482875292E0,-2.899853220E0,-2.750663852E0,5.301482871E0
1.411077063E1,-3.487642527E0,-3.126111815E0,-1.071384447E0,4.804590525E0
1.412075662E1,-3.714550747E0,-3.204034149E0,4.054570431E-1,4.922206568E0
1.413074262E1,-3.848815098E0,-3.174095820E0,1.696258550E0,5.269303085E0
1.414072863E1,-3.817375789E0,-3.049883711E0,2.694727048E0,5.579937493E0
1.415071462E1,-3.737315712E0,-2.743306885E0,3.108364930E0,5.581683791E0
1.416070062E1,-3.478085253E0,-2.594720365E0,2.741588681E0,5.132831508E0
1.417068663E1,-3.011609007E0,-2.017734373E0,2.030385409E0,4.154937511E0
1.418067262E1,-2.815699800E0,-1.156431906E0,1.660415118E0,3.467344587E0
1.419065862E1,-3.230851527E0,-8.683735049E-1,1.563582888E0,3.692866851E0
1.420064362E1,-3.762944058E0,-8.592404464E-1,1.753132077E0,4.239282275E0
1.421062963E1,-4.369245942E0,-8.366292635E-1,1.976013612E0,4.867739560E0
1.422061562E1,-4.740263470E0,-7.262797326E-1,2.106296009E0,5.237753611E0
1.423060162E1,-5.004688010E0,-5.719568011E-1,2.289314444E0,5.533082078E0
1.424058763E1,-5.145929843E0,-4.745413113E-1,2.476349331E0,5.730452811E0
1.425057362E1,-4.989636108E0,-4.785738435E-1,2.564706899E0,5.630561507E0
1.426055962E1,-4.719297693E0,-5.374091122E-1,2.363121216E0,5.305178711E0
1.427054563E1,-3.973713963E0,-4.542950347E-1,2.331947370E0,4.629769452E0
1.428053162E1,-3.376868196E0,-4.813702744E-1,2.790945613E0,4.407304570E0
1.429051762E1,-2.793081601E0,-7.958075121E-1,3.348376468E0,4.432407856E0
1.430050363E1,-2.025202437E0,-1.080216666E0,3.659647731E0,4.319876673E0
1.431048962E1,-1.189928851E0,-9.711937223E-1,3.707767392E0,4.013313712E0
1.432047462E1,-4.003179252E-1,-7.489216134E-1,3.655604966E0,3.752943604E0
1.433046063E1,2.143717897E-1,-8.327011040E-1,3.385626156E0,3.493109053E0
1.434044662E1,5.989741534E-1,-8.198030964E-1,3.170041654E0,3.328665084E0
1.435043262E1,3.946040261E-1,-5.231335737E-1,3.149312105E0,3.216760452E0
1.436041863E1,-4.797856790E-1,-2.953621950E-1,3.200111545E0,3.249330242E0
1.437040462E1,-9.046543086E-1,-1.237784839E-1,3.397374966E0,3.517936496E0
1.438039062E1,-1.020405205E0,-2.106000067E-1,3.754683697E0,3.896566284E0
1.439037663E1,-1.222753950E0,-7.773744571E-1,3.982759606E0,4.238137839E0
1.440036262E1,-1.394658582E0,-1.081454156E0,4.103850764E0,4.467237037E0
1.441034862E1,-1.084575473E0,-2.070677403E0,3.768136386E0,4.434282432E0
1.442033462E1,2.417373437E-1,-2.693831547E0,2.877818865E0,3.949304593E0
1.443031963E1,1.609917979E0,-2.357503796E0,1.751120051E0,3.349041874E0
1.444030562E1,2.718700340E0,-1.962466783E0,6.871139127E-1,3.422679205E0
1.445029162E1,2.989736327E0,-1.568298375E0,2.710470968E-1,3.386967615E0
1.446027763E1,2.885939478E0,-2.021829178E0,4.375588417E-1,3.550760149E0
1.447026362E1,2.828269560E0,-2.241434226E0,7.137959272E-1,3.678673772E0
1.448024962E1,2.893880582E0,-2.273767282E0,8.322166622E-1,3.773214418E0
1.449023563E1,3.526982009E0,-2.547303246E0,4.292166191E-1,4.371794006E0
1.450022162E1,4.027509516E0,-2.402946894E0,-2.089265701E-1,4.694532670E0
1.451020762E1,4.642925456E0,-2.424858165E0,-6.918340775E-1,5.283495841E0
1.452019363E1,5.007263124E0,-2.154770889E0,-5.239277717E-1,5.476332887E0
1.453017962E1,4.979377753E0,-2.172330077E0,2.265889621E-1,5.437330533E0
1.454016462E1,4.369614902E0,-2.539998904E0,1.181945062E0,5.190580213E0
1.455015063E1,3.790009065E0,-3.242191032E0,1.560387384E0,5.225971698E0
1.456013662E1,3.493817772E0,-3.734604943E0,8.174112198E-1,5.179015138E0
1.457012262E1,3.513279060E0,-3.598191156E0,-8.159815755E-1,5.094696780E0
1.458010862E1,3.370792354E0,-3.135592198E0,-2.351171261E0,5.169350619E0
1.459009463E1,2.819844891E0,-3.075669347E0,-3.427600978E0,5.399973667E0
1.460008062E1,2.044609931E0,-3.148674758E0,-4.168048514E0,5.609564236E0
1.461006662E1,1.499431331E0,-2.915964931E0,-4.803478011E0,5.815887446E0
1.462005263E1,1.441681890E0,-2.645331232E0,-5.381930484E0,6.167771050E0
1.463003862E1,1.109183480E0,-2.429558449E0,-5.889710877E0,6.466972744E0
1.464002462E1,5.620788074E-1,-2.301131959E0,-6.187782050E0,6.625691479E0
1.465000963E1,8.755971551E-2,-2.221177717E0,-6.281004210E0,6.662755514E0
1.465999562E1,-1.620544124E-1,-2.183868388E0,-6.301627339E0,6.671285475E0
1.466998162E1,-4.451689929E-1,-1.963129565E0,-6.252002020E0,6.568072958E0
1.467996763E1,-7.898161626E-1,-1.739536132E0,-5.986167716E0,6.283629480E0
1.468995362E1,-8.518030804E-1,-1.637686406E0,-5.509576371E0,5.810595239E0
1.469993962E1,-8.650312364E-1,-1.516106420E0,-5.026043211E0,5.320523290E0
1.470992563E1,-9.151956689E-1,-1.395066133E0,-4.594371346E0,4.887948516E0
1.471991162E1,-1.079902378E0,-1.330211155E0,-4.196468321E0,4.532769268E0
1.472989762E1,-1.345840763E0,-1.202666425E0,-3.763465630E0,4.173891162E0
1.473988363E1,-1.630185598E0,-9.402278915E-1,-3.675778153E0,4.129513119E0
1.474986962E1,-1.843558683E0,-6.385905012E-1,-3.623827980E0,4.115657381E0
1.475985462E1,-1.824223110E0,-4.237155586E-1,-3.443301337E0,3.919649082E0
1.476984062E1,-1.700146948E0,-2.760809648E-1,-3.146481467E0,3.587069273E0
1.477982663E1,-1.269351581E0,-1.520422250E-1,-2.875308656E0,3.146707825E0
1.478981262E1,-8.369874054E-1,-1.207169366E-1,-2.458534327E0,2.599906062E0
1.479979913E1,-6.897135848E-1,-8.318921417E-2,-2.069264131E0,2.182768727E0
1.480978512E1,-5.929690629E-1,5.207325608E-2,-1.805665656E0,1.901250218E0
1.481977112E1,-6.740395385E-1,1.053215101E-1,-1.557337038E0,1.700211919E0
1.482975713E1,-7.846326059E-1,1.007972270E-1,-1.493097042E0,1.689718078E0
1.483974312E1,-7.162728077E-1,1.570582590E-1,-1.581284602E0,1.743036151E0
1.484972912E1,-6.655435342E-1,2.458792189E-1,-1.541872322E0,1.697284609E0
1.485971512E1,-8.167478532E-1,3.512600783E-1,-1.396883593E0,1.655821389E0
1.486970013E1,-1.132847747E0,2.738362187E-1,-1.075337896E0,1.585774852E0
1.487968612E1,-1.229801014E0,1.915384126E-1,-9.623860614E-1,1.573303667E0
1.488967212E1,-1.120427676E0,2.155216447E-1,-1.039278117E0,1.543342723E0
1.489965813E1,-1.095403932E0,2.905387902E-1,-9.762917635E-1,1.495816890E0
1.490964412E1,-1.143023656E0,3.561419186E-1,-8.704644692E-1,1.480219084E0
1.491963012E1,-1.211795683E0,2.192214704E-1,-7.157154219E-1,1.424343847E0
1.492961613E1,-9.158488029E-1,7.878421426E-2,-6.910099125E-1,1.149991601E0
1.493960212E1,-5.679260230E-1,4.859562457E-2,-9.367087448E-1,1.096505711E0
1.494958812E1,-3.805367947E-1,3.197462171E-2,-1.263957817E0,1.320386304E0
1.495957413E1,-2.390955716E-1,-6.864952773E-2,-1.526299871E0,1.546438084E0
1.496956012E1,-1.791867542E-1,-1.891267285E-1,-1.833176805E0,1.851597692E0
1.497954512E1,-1.653089726E-1,-9.940208137E-2,-2.220310575E0,2.228673794E0
1.498953113E1,-3.284258240E-1,-3.082359731E-3,-2.539696896E0,2.560846217E0
1.499951712E1,-7.197232497E-1,8.902970552E-3,-2.642338919E0,2.738619321E0
1.500950312E1,-1.220741923E0,8.503547251E-2,-2.550696093E0,2.829044438E0
1.501948912E1,-1.643956375E0,8.200369120E-2,-2.472370301E0,2.970173744E0
1.502947513E1,-2.099136386E0,2.602771103E-2,-2.465410360E0,3.238101180E0
1.503946112E1,-2.421153662E0,1.412997204E-1,-2.232312277E0,3.296235545E0
1.504944712E1,-2.239282451E0,2.434342057E-1,-1.803078116E0,2.885261999E0
1.505943313E1,-1.537337075E0,1.827874696E-1,-8.174936655E-1,1.750746251E0
1.506941912E1,-7.795139533E-1,-1.264284968E-2,7.475711989E-1,1.080122466E0
1.507940512E1,-8.753749609E-2,-1.134430003E-1,2.114187996E0,2.119038228E0
1.508939113E1,5.888286495E-1,-2.092876357E-1,3.275581265E0,3.334659370E0
1.509937612E1,1.494384014E0,-2.560372943E-1,4.232500326E0,4.495864509E0
1.510936212E1,2.335542238E0,-4.457636547E-1,4.978896527E0,5.517506086E0
1.511934813E1,3.216555669E0,-6.815625662E-1,5.290215737E0,6.228735060E0
1.512933412E1,4.193592076E0,-7.532190245E-1,5.191950939E0,6.716390991E0
1.513932012E1,4.690245802E0,-1.008298545E0,5.123254926E0,7.018747230E0
1.514930613E1,4.665478751E0,-1.817911041E0,4.515021122E0,6.742173852E0
1.515929212E1,4.664005253E0,-2.254475271E0,3.066019687E0,6.019641224E0
1.516927812E1,4.635613512E0,-2.090822815E0,1.420257399E0,5.279922704E0
1.517926413E1,4.346794973E0,-2.010229472E0,2.473524249E-1,4.795501255E0
1.518925012E1,4.003911908E0,-2.239226317E0,-2.091780004E-1,4.592297955E0
1.519923612E1,3.340619552E0,-2.878177299E0,-3.399008386E-1,4.422575736E0
1.520922112E1,2.870454882E0,-3.344699739E0,-8.993137541E-1,4.498365570E0
1.521920713E1,2.934723968E0,-3.242449479E0,-1.918894648E0,4.775797322E0
1.522919312E1,2.880355972E0,-3.139653089E0,-2.916984100E0,5.163590639E0
1.523917912E1,2.803676755E0,-3.114532281E0,-3.691211586E0,5.584438884E0
1.524916513E1,2.798067521E0,-3.032540284E0,-3.948416569E0,5.710996046E0
1.525915112E1,2.624526839E0,-3.140319087E0,-3.813547032E0,5.594004474E0
1.526913712E1,2.328946579E0,-3.413357161E0,-3.661774364E0,5.521194686E0
1.527912313E1,1.897015098E0,-3.543691305E0,-3.511327844E0,5.337212528E0
1.528910912E1,1.395391238E0,-3.595254976E0,-3.376230265E0,5.125612730E0
1.529909512E1,1.079300700E0,-3.782884525E0,-3.237721421E0,5.094894045E0
1.530908113E1,9.912094724E-1,-3.996674809E0,-3.208251454E0,5.220036699E0
1.531906612E1,1.038415214E0,-4.116379301E0,-3.548759379E0,5.533224904E0
1.532905212E1,1.426917086E0,-4.085089388E0,-4.017479203E0,5.904590318E0
1.533903813E1,1.484359547E0,-4.032596594E0,-4.419416807E0,6.164122279E0
1.534902412E1,1.348541592E0,-4.107621926E0,-4.688577007E0,6.377607440E0
1.535901012E1,1.295630137E0,-4.154235637E0,-4.662138821E0,6.377450084E0
1.536899613E1,9.812598503E-1,-4.330703143E0,-4.379569201E0,6.236865158E0
1.537898212E1,3.412166083E-1,-4.475341331E0,-3.872862649E0,5.928252180E0
1.538896812E1,-5.156215096E-1,-4.698808757E0,-3.068555332E0,5.635663324E0
1.539895413E1,-1.386894649E0,-5.105903313E0,-2.146022577E0,5.709565510E0
1.540894012E1,-2.149263396E0,-5.368170231E0,-1.761576919E0,6.044810834E0
1.541892612E1,-2.592447259E0,-5.376076836E0,-2.304474520E0,6.397936210E0
1.542891112E1,-2.803815334E0,-4.854321597E0,-3.056877273E0,6.385163840E0
1.543889713E1,-3.563398468E0,-4.401489828E0,-3.315505469E0,6.562278405E0
1.544888312E1,-4.129038815E0,-4.208059257E0,-3.062547026E0,6.643486925E0
1.545886912E1,-4.382886912E0,-4.399839452E0,-2.678211003E0,6.763216620E0
1.546885513E1,-5.005177422E0,-4.294336970E0,-2.686142458E0,7.120989562E0
1.547884112E1,-6.039197284E0,-3.677479692E0,-2.768902194E0,7.593588090E0
1.548882712E1,-6.922189997E0,-3.644390591E0,-2.831690473E0,8.319661536E0
1.549881313E1,-7.218480694E0,-3.462260349E0,-2.669405096E0,8.439160729E0
1.550879912E1,-7.166019475E0,-3.421173719E0,-2.489611108E0,8.321924549E0
1.551878512E1,-6.828856741E0,-3.235590988E0,-2.258324493E0,7.886847466E0
1.552877113E1,-6.379876533E0,-2.688878955E0,-1.667822078E0,7.121413139E0
1.553875712E1,-6.231005838E0,-2.873112441E0,-7.599035615E-1,6.903452924E0
1.554874212E1,-6.079063016E0,-2.552192103E0,2.382263830E-1,6.597381563E0
1.555872813E1,-5.991066513E0,-2.277312741E0,9.354445767E-1,6.477197530E0
1.556871412E1,-5.666561247E0,-2.331974852E0,1.334569962E0,6.271291738E0
1.557870012E1,-4.897920776E0,-2.125231340E0,1.497913101E0,5.545266435E0
1.558868613E1,-4.215712677E0,-1.705749165E0,1.520656431E0,4.795227792E0
1.559867212E1,-3.895800984E0,-1.460880638E0,1.447061621E0,4.405158894E0
1.560865812E1,-3.790777389E0,-1.498624415E0,1.226453775E0,4.256766051E0
1.561864413E1,-3.524960627E0,-1.512876711E0,1.020558110E0,3.969342794E0
1.562863012E1,-3.081430609E0,-1.454270068E0,9.223269331E-1,3.529986260E0
1.563861612E1,-2.585234719E0,-1.484142031E0,8.047090209E-1,3.087664608E0
1.564860213E1,-2.054961841E0,-1.394198990E0,6.721619976E-1,2.572636924E0
1.565858713E1,-1.577681109E0,-1.230625764E0,9.648601645E-1,2.221367279E0
1.566857312E1,-1.081522642E0,-1.133012930E0,1.616582635E0,2.250944011E0
1.567855912E1,-7.360328883E-1,-8.326666054E-1,2.482754079E0,2.720137111E0
1.568854513E1,-1.021433730E0,-4.853308859E-1,3.346203643E0,3.532131333E0
1.569853112E1,-1.488285953E0,-1.351788551E-1,4.203003754E0,4.460774479E0
1.570851712E1,-1.930592149E0,2.229291898E-1,4.964942147E0,5.331747742E0
1.571850313E1,-2.549954374E0,3.911965612E-1,5.506673228E0,6.081015713E0
1.572848912E1,-3.098079970E0,3.865629351E-1,5.803800661E0,6.590268016E0
1.573847512E1,-3.321550028E0,3.047598034E-1,5.713245417E0,6.615644059E0
1.574846113E1,-3.256145997E0,6.805720478E-2,5.345096533E0,6.259167316E0
1.575844712E1,-3.060744914E0,-1.370637050E-1,5.136269658E0,5.980653132E0
1.576843312E1,-2.424602349E0,-2.935236476E-1,5.055250638E0,5.614304204E0
1.577841813E1,-1.847817795E0,-3.866754940E-1,4.814318456E0,5.171229132E0
1.578840412E1,-1.766211714E0,-5.724378077E-1,4.729580022E0,5.080956214E0
1.579839004E1,-1.632809828E0,-1.430354810E0,4.460528580E0,4.960675159E0
1.580837604E1,-1.446004152E0,-2.354826940E0,4.350040178E0,5.153541256E0
1.581836204E1,-1.528904806E0,-2.571568606E0,4.284116330E0,5.225339006E0
1.582834804E1,-1.257993949E0,-2.806160945E0,3.936192380E0,4.995067415E0
1.583833404E1,-6.218771124E-1,-2.789731438E0,3.742378231E0,4.709004934E0
1.584832004E1,2.459572792E-1,-3.179816736E0,3.659026757E0,4.853885687E0
1.585830604E1,1.752519289E0,-4.196402832E0,3.569411160E0,5.781160491E0
1.586829204E1,4.091656396E0,-4.963314282E0,2.980349207E0,7.089331570E0
1.587827804E1,5.787020321E0,-4.497964209E0,2.054386475E0,7.611950474E0
1.588826304E1,6.309435711E0,-4.179378372E0,1.224185348E0,7.666473265E0
1.589824904E1,6.878960363E0,-4.725274132E0,6.370126301E-1,8.369832519E0
1.590823504E1,7.079404085E0,-4.485109105E0,2.304563105E-2,8.380614356E0
1.591822104E1,7.154371237E0,-4.488657780E0,-5.653234273E-1,8.464789840E0
1.592820704E1,6.992361263E0,-4.483854293E0,-8.526187670E-1,8.350151143E0
1.593819304E1,6.351971281E0,-4.310563286E0,-7.543203476E-1,7.713461881E0
1.594817904E1,5.727607348E0,-4.759765688E0,-6.834725592E-1,7.478501861E0
1.595816504E1,4.708789077E0,-5.003143761E0,-8.285928503E-1,6.920311277E0
1.596815104E1,3.628366297E0,-4.979888214E0,-1.066899340E0,6.253207402E0
1.597813704E1,3.339329656E0,-5.059117402E0,-1.559604296E0,6.259245721E0
1.598812304E1,3.505182420E0,-5.118776543E0,-2.708674119E0,6.769423357E0
1.599810904E1,4.051427552E0,-4.722945771E0,-4.121982980E0,7.463981890E0
1.600809404E1,4.092193170E0,-4.343356225E0,-5.440162904E0,8.075033168E0
1.601808004E1,3.795560412E0,-3.951406251E0,-6.319582969E0,8.364031271E0
1.602806604E1,3.503582037E0,-3.410255213E0,-6.830457709E0,8.400004775E0
1.603805204E1,2.707061457E0,-3.194570138E0,-6.709896308E0,7.909245765E0
1.604803804E1,1.555096239E0,-3.266793777E0,-5.979170938E0,6.988615814E0
1.605802404E1,2.891722959E-1,-3.251433141E0,-5.157276950E0,6.103518954E0
1.606801004E1,-8.426691449E-1,-3.299335286E0,-4.830801172E0,5.910359091E0
1.607799604E1,-1.497987068E0,-3.064626880E0,-5.133353652E0,6.163377555E0
1.608798204E1,-2.035999905E0,-2.549938586E0,-5.504751248E0,6.399200631E0
1.609796804E1,-2.407541928E0,-2.155914019E0,-5.883816884E0,6.712937100E0
1.610795404E1,-2.582747313E0,-1.783054911E0,-6.247711333E0,6.991692599E0
1.611793904E1,-2.690068864E0,-1.431411548E0,-6.326244117E0,7.021878249E0
1.612792504E1,-2.892181381E0,-1.186648563E0,-5.943646764E0,6.715637334E0
1.613791104E1,-3.036615794E0,-9.660845715E-1,-5.374624972E0,6.248275640E0
1.614789704E1,-3.015364088E0,-8.624923754E-1,-4.960847926E0,5.869099235E0
1.615788304E1,-2.843369409E0,-6.919323108E-1,-4.590073643E0,5.443555453E0
1.616786904E1,-2.566853997E0,-5.103274405E-1,-4.040038930E0,4.813635642E0
1.617785504E1,-2.124133818E0,-3.755850801E-1,-3.233233098E0,3.886747341E0
1.618784104E1,-1.633525527E0,-3.333637977E-1,-2.468062949E0,2.978400878E0
1.619782704E1,-1.170913121E0,-2.942804235E-1,-1.860027366E0,2.217507679E0
1.620781304E1,-6.312776810E-1,-2.673270983E-1,-1.421275692E0,1.577973346E0
1.621779904E1,-5.838854134E-2,-2.256344041E-1,-9.666802566E-1,9.943796179E-1
1.622778404E1,1.394116545E-1,-1.130249244E-1,-5.354902752E-1,5.647655069E-1
1.623777004E1,1.074314779E-1,-1.613580090E-1,-9.627447881E-2,2.164409961E-1
1.624775604E1,2.975256282E-1,-2.101120931E-1,1.928948935E-1,4.121614138E-1
1.625774204E1,6.152487087E-1,-2.069013870E-1,2.969520164E-1,7.138064566E-1
1.626772804E1,5.525519389E-1,-1.331928483E-1,3.067227137E-1,6.458581912E-1
1.627771404E1,2.590316534E-1,-1.688602790E-1,1.965004329E-1,3.663654070E-1
1.628770004E1,-4.082993746E-2,-2.221950719E-1,-1.060005911E-1,2.495473083E-1
1.629768604E1,-1.592495030E-1,-1.576736784E-1,-4.191166504E-1,4.752685133E-1
1.630767204E1,-3.854753530E-1,-7.639591902E-2,-6.380796739E-1,7.493819149E-1
1.631765804E1,-8.060702527E-1,-8.132307529E-2,-6.901783653E-1,1.064287964E0
1.632764404E1,-1.071117522E0,-2.095849666E-1,-9.425221927E-1,1.442070278E0
1.633763004E1,-1.176994810E0,-1.509812477E-1,-1.507076711E0,1.918174218E0
1.634761504E1,-1.204376736E0,-1.079512954E-2,-2.169715787E0,2.481593531E0
1.635760104E1,-1.252131531E0,1.387439024E-1,-2.624017546E0,2.910764732E0
1.636758704E1,-1.392561770E0,1.881590143E-1,-2.812328296E0,3.143854726E0
1.637757304E1,-1.514092054E0,1.205298257E-1,-2.857641878E0,3.236219908E0
