"Time (s)","Linear Acceleration x (m/s^2)","Linear Acceleration y (m/s^2)","Linear Acceleration z (m/s^2)","Absolute acceleration (m/s^2)"
4.952541669E-3,1.047645628E-1,1.267287514E-1,6.830343103E-1,7.025465530E-1
1.493854169E-2,7.230345279E-2,-7.576880515E-2,3.716291463E-1,3.861048090E-1
2.492454165E-2,3.406853887E-1,-1.712824881E-2,1.344450295E-2,3.413805291E-1
3.491054167E-2,5.395930472E-1,2.962257922E-1,-8.581432164E-2,6.215098345E-1
4.489654169E-2,6.526685500E-1,5.251536405E-1,3.110408825E-1,8.935933152E-1
5.488254165E-2,6.285771444E-1,6.740804690E-1,1.044057777E0,1.392677402E0
6.486854167E-2,5.363209453E-1,1.013413104E0,2.048710583E0,2.347735362E0
7.485454169E-2,3.051202843E-1,1.548166704E0,3.432906741E0,3.778196293E0
8.484054165E-2,-6.711317182E-2,1.946291923E0,4.754245917E0,5.137646413E0
9.482654167E-2,-6.614276791E-1,2.237693762E0,6.184114092E0,6.609691903E0
1.048125417E-1,-1.298038021E0,2.532392846E0,7.406373952E0,7.934248001E0
1.147985416E-1,-1.693201625E0,2.421836032E0,7.446472403E0,8.011377706E0
1.247845417E-1,-1.853025325E0,1.971326777E0,6.373887815E0,6.924325093E0
1.347705417E-1,-2.179295865E0,1.421189153E0,5.168889520E0,5.786754526E0
1.447565416E-1,-2.465220033E0,1.228775412E0,4.519694801E0,5.292904677E0
1.547425417E-1,-2.755334900E0,1.507088259E0,4.338104841E0,5.355589514E0
1.647285417E-1,-2.699774657E0,1.723045814E0,4.543947005E0,5.559237759E0
1.747145416E-1,-1.912925372E0,1.779398940E0,4.731087434E0,5.404510373E0
1.847005417E-1,-8.138219064E-1,1.617832770E0,4.714262656E0,5.050144687E0
1.946865417E-1,3.347238600E-1,1.242136885E0,4.273595434E0,4.463021627E0
2.046725416E-1,8.009995472E-1,7.498226693E-1,3.560444748E0,3.725667874E0
2.146585417E-1,5.231252414E-1,-2.443934414E-1,2.601442031E0,2.664749297E0
2.246445417E-1,3.975919533E-1,-1.034614231E0,1.469615793E0,1.840727179E0
2.346305416E-1,5.039533907E-1,-1.300423100E0,9.628937459E-1,1.694766540E0
2.446165417E-1,2.807733554E-1,-1.599236285E0,-1.683997925E-1,1.632405851E0
2.546025417E-1,1.434438944E-1,-1.665306314E0,-1.897925509E0,2.529020069E0
2.645885416E-1,5.661338514E-1,-1.738756698E0,-3.176982883E0,3.665651734E0
2.745745417E-1,1.244543599E0,-1.427952043E0,-3.882416707E0,4.319848990E0
2.845605417E-1,1.145500537E0,-1.531914075E0,-3.849265333E0,4.298345707E0
2.945465416E-1,9.866351956E-1,-1.841296103E0,-3.140556192E0,3.771858102E0
3.045325417E-1,1.162087333E0,-2.299669863E0,-2.480153529E0,3.576323528E0
3.145185417E-1,1.674181802E0,-3.101174317E0,-2.272415113E0,4.193332481E0
3.245045416E-1,2.483342893E0,-3.881505126E0,-2.715408650E0,5.348506156E0
3.344905417E-1,3.016654569E0,-4.282135001E0,-4.079689777E0,6.639333824E0
3.444765417E-1,3.159796162E0,-4.624925679E0,-5.634129081E0,7.944662348E0
3.544625416E-1,2.956547531E0,-5.035171300E0,-6.699691163E0,8.887068414E0
3.644485417E-1,2.775507209E0,-5.543746914E0,-7.312427323E0,9.586874541E0
3.744345417E-1,2.865937323E0,-6.147417551E0,-7.789890488E0,1.032892701E1
3.844205416E-1,2.936655303E0,-6.743242394E0,-7.881525713E0,1.078024628E1
3.944065417E-1,2.815817329E0,-7.305905339E0,-7.556976593E0,1.088177262E1
4.043925417E-1,2.099296600E0,-7.657052273E0,-6.999754483E0,1.058461424E1
4.143785416E-1,7.342705375E-1,-8.061435767E0,-6.302230772E0,1.025885045E1
4.243645417E-1,-4.974811077E-1,-8.522605666E0,-6.022264917E0,1.044748628E1
4.343505417E-1,-1.227112464E0,-8.954140706E0,-5.994480118E0,1.084510178E1
4.443365416E-1,-2.262237450E0,-9.239708194E0,-6.372486237E0,1.144982562E1
4.543225417E-1,-3.719509771E0,-9.421258977E0,-6.680676017E0,1.213368475E1
4.643085417E-1,-4.939940037E0,-9.936557136E0,-6.756110362E0,1.299165896E1
4.742945416E-1,-6.086647439E0,-1.085380284E1,-7.162813447E0,1.435821053E1
4.842805417E-1,-7.519635104E0,-1.205915138E1,-7.851811917E0,1.623634794E1
4.942665417E-1,-8.647428517E0,-1.401796746E1,-8.104790533E0,1.835671706E1
5.042535416E-1,-1.037737638E1,-1.632474315E1,-7.419308578E0,2.071794679E1
5.142395417E-1,-1.259670697E1,-1.859811720E1,-5.384909640E0,2.309900954E1
5.242255417E-1,-1.430872844E1,-2.056232558E1,-2.728206158E0,2.519904863E1
5.342115416E-1,-1.605504383E1,-2.175791980E1,-3.612439066E-1,2.704259610E1
5.441975417E-1,-1.860619104E1,-2.125410031E1,3.395336627E0,2.845093031E1
5.541835417E-1,-1.965661994E1,-1.884430019E1,6.580049529E0,2.801405734E1
5.641695416E-1,-1.881727085E1,-1.534694602E1,9.050633213E0,2.591394211E1
5.741555417E-1,-1.844177669E1,-1.026331007E1,1.351163600E1,2.505990759E1
5.841415417E-1,-1.676301067E1,-5.306695529E0,1.779403033E1,2.501573624E1
5.941275416E-1,-1.344211962E1,-2.388315114E0,2.102827382E1,2.507155618E1
6.041135417E-1,-9.613551680E0,-5.629523814E-2,2.264159547E1,2.459807696E1
6.140995417E-1,-7.102305290E0,5.777988274E-1,2.219753218E1,2.331323716E1
6.240855416E-1,-5.474082018E0,-4.267556357E-1,1.955577886E1,2.031197138E1
6.340715417E-1,-5.061418866E0,-4.739299118E-1,1.458021349E1,1.544102315E1
6.440575417E-1,-4.761453487E0,-1.266566990E0,9.935307001E0,1.108990336E1
6.540435416E-1,-5.923182678E0,-2.682896961E0,6.042610888E0,8.876664660E0
6.640295417E-1,-7.425891373E0,-3.584195553E0,3.066857593E0,8.797496004E0
6.740155417E-1,-8.242217642E0,-3.686491714E0,1.587517880E0,9.167583424E0
6.840015416E-1,-7.739962283E0,-3.618654949E0,1.542078583E0,8.682147553E0
6.939875417E-1,-5.619437951E0,-3.234389385E0,3.817975128E0,7.524379819E0
7.039735417E-1,-2.963174765E0,-2.841629278E0,7.851532420E0,8.860125450E0
7.139595416E-1,-4.020128503E-1,-2.215407684E0,1.150762329E1,1.172582787E1
7.239455417E-1,1.851600358E0,-1.292832245E0,1.372422673E1,1.390878278E1
7.339315417E-1,3.612680264E0,-9.727298590E-1,1.429045355E1,1.477209277E1
7.439172083E-1,4.763569010E0,-1.284263296E0,1.328998326E1,1.417619755E1
7.539032083E-1,5.421613782E0,-1.893118367E0,1.105378931E1,1.245648631E1
7.638892083E-1,5.929099476E0,-2.859279391E0,8.276893385E0,1.057528550E1
7.738752083E-1,6.768452080E0,-3.875283689E0,5.310256484E0,9.435496338E0
7.838612083E-1,7.298665901E0,-4.466948238E0,2.727413861E0,8.981254749E0
7.938472083E-1,7.324202446E0,-4.401003048E0,1.148434669E0,8.621581727E0
8.038332083E-1,7.282194294E0,-3.947371379E0,6.221086621E-1,8.306570516E0
8.138192083E-1,7.005299397E0,-3.315097918E0,8.832967687E-1,7.800276087E0
8.238052083E-1,6.543989750E0,-2.383975164E0,1.467463433E0,7.117625191E0
8.337912083E-1,5.895432962E0,-1.390746502E0,2.117582597E0,6.416732946E0
8.437772083E-1,5.017691048E0,-6.491023332E-1,2.751989708E0,5.759514272E0
8.537632083E-1,4.022787890E0,-3.114382739E-1,2.851890557E0,4.940961035E0
8.637492083E-1,3.160086184E0,-2.266683380E-1,2.084792581E0,3.792609040E0
8.737352083E-1,2.239502452E0,-3.254748805E-1,9.526365602E-1,2.455365868E0
8.837212083E-1,1.113932369E0,-5.186644737E-1,-1.441017061E-1,1.237183681E0
8.937072083E-1,-1.139859874E-1,-6.904293571E-1,-7.964930981E-1,1.060229578E0
9.036932084E-1,-8.392843379E-1,-6.875966734E-1,-1.049855876E0,1.509763142E0
9.136792083E-1,-9.559922042E-1,-6.622232658E-1,-1.125535219E0,1.618422157E0
9.236652083E-1,-6.957846757E-1,-4.236455382E-1,-9.535504800E-1,1.254133316E0
9.336512084E-1,-9.426069774E-2,-7.440136068E-2,-6.531755036E-1,6.641226394E-1
9.436372083E-1,5.646931706E-1,1.215362046E-1,-3.622151291E-1,6.817985228E-1
9.536232083E-1,8.935496420E-1,1.897531845E-1,-1.995409119E-1,9.350154059E-1
9.636092084E-1,7.667195146E-1,2.823459640E-1,-2.391534591E-1,8.513356767E-1
9.735962083E-1,4.095510807E-1,1.682610856E-1,-4.524037528E-1,6.330189857E-1
9.835822083E-1,-3.155475508E-1,-1.002699544E-1,-5.712946039E-1,6.603043579E-1
9.935682083E-1,-1.327597158E0,-2.663348258E-1,-4.653734618E-1,1.431789409E0
1.003554208E0,-2.018730008E0,-2.502942321E-1,-1.686781383E-1,2.041168871E0
1.013540208E0,-2.402963851E0,-1.371799915E-1,4.292604733E-1,2.444855450E0
1.023526208E0,-2.345685842E0,1.273025825E-1,1.320648034E0,2.694913588E0
1.033512208E0,-1.998518668E0,5.635633423E-1,2.185760547E0,3.014834934E0
1.043498208E0,-1.596232717E0,6.769822960E-1,2.696228905E0,3.205606686E0
1.053484208E0,-1.272201806E0,6.558020729E-1,3.086533474E0,3.402243771E0
1.063470208E0,-1.495202770E0,8.547418910E-1,3.429085001E0,3.837295789E0
1.073456208E0,-2.292568712E0,9.424458866E-1,3.686842546E0,4.442621243E0
1.083442208E0,-3.038618173E0,1.087592929E0,4.059825323E0,5.186351360E0
1.093428208E0,-4.005648531E0,1.272700574E0,4.746742185E0,6.340074785E0
1.103414208E0,-4.834956204E0,1.672235410E0,5.793002023E0,7.728650930E0
1.113400208E0,-5.025369612E0,2.026201288E0,6.913117458E0,8.783565585E0
1.123386208E0,-4.926033019E0,1.992326321E0,7.792555064E0,9.431812122E0
1.133372208E0,-4.061957803E0,1.905555979E0,8.380311919E0,9.505802051E0
1.143358208E0,-2.564231520E0,1.485935664E0,8.412458741E0,8.919234842E0
1.153344208E0,-9.695002225E-1,7.642842954E-1,8.256279611E0,8.348066494E0
1.163330208E0,7.723230475E-1,2.618362704E-1,8.076078365E0,8.117147459E0
1.173316208E0,2.248658169E0,-4.736592588E-1,7.427851945E0,7.775204252E0
1.183302208E0,2.517018178E0,-1.780616038E0,6.048448749E0,6.788939994E0
1.193288208E0,1.869624985E0,-3.158543104E0,4.679278765E0,5.947061618E0
1.203274208E0,1.109108636E0,-4.772809072E0,3.058251661E0,5.776048098E0
1.213260208E0,1.513908452E-1,-6.633695979E0,1.303558962E0,6.762256095E0
1.223246208E0,-3.916856807E-1,-7.466705523E0,-1.554967600E-1,7.478588656E0
1.233232208E0,5.001433450E-1,-7.539593405E0,-1.237413504E0,7.656814237E0
1.243218208E0,2.275796558E0,-7.799943606E0,-2.252597730E0,8.431640811E0
1.253204208E0,3.936192380E0,-7.994990932E0,-3.206083891E0,9.470610560E0
1.263190208E0,4.078844562E0,-8.626896604E0,-4.706621515E0,1.064014117E1
1.273176208E0,3.241173032E0,-9.394907915E0,-6.067970263E0,1.164430163E1
1.283162208E0,1.857077445E0,-9.232953490E0,-6.923390431E0,1.168886230E1
1.293148208E0,1.164592280E0,-8.111013139E0,-7.563650020E0,1.115139502E1
1.303134208E0,1.365178090E0,-7.393588430E0,-7.031434697E0,1.029416995E1
1.313120208E0,2.172704884E0,-6.817888534E0,-6.024056504E0,9.353796413E0
1.323106208E0,2.749426873E0,-6.671953141E0,-4.715653124E0,8.620422915E0
1.333092208E0,2.755636616E0,-6.399555922E0,-3.369626420E0,7.739653181E0
1.343078208E0,2.693102984E0,-6.068412897E0,-2.101015535E0,6.963670372E0
1.353064208E0,2.307001979E0,-5.591480659E0,-8.476115039E-1,6.107811339E0
1.363050208E0,1.318291022E0,-4.935577430E0,-5.098991320E-1,5.133986064E0
1.373036208E0,2.228894287E-1,-4.728243641E0,-1.026455027E0,4.843508805E0
1.383022208E0,-1.679343724E-1,-5.113074338E0,-2.118080780E0,5.536966438E0
1.393008208E0,-4.522107947E-1,-5.863727605E0,-3.487357475E0,6.837357544E0
1.402994208E0,-1.027502555E0,-6.440551336E0,-4.832170590E0,8.117039831E0
1.412980208E0,-2.084600208E0,-6.631442462E0,-5.912220903E0,9.125565361E0
1.422966208E0,-3.292684663E0,-6.927708015E0,-6.308046412E0,9.931080514E0
1.432952208E0,-4.097266214E0,-7.189564458E0,-6.070104496E0,1.026272849E1
1.442938208E0,-5.317260863E0,-7.077525374E0,-4.794910670E0,1.006756161E1
1.452924208E0,-6.252064000E0,-7.104175814E0,-2.542886844E0,9.799178117E0
1.462910208E0,-6.342343841E0,-7.365635816E0,-6.287019825E-1,9.740286574E0
1.472897208E0,-6.564876004E0,-7.401480417E0,7.377516773E-1,9.920876315E0
1.482883208E0,-7.062886870E0,-7.992004175E0,1.219825079E0,1.073519794E1
1.492869208E0,-8.207781050E0,-9.264614409E0,2.345131087E-1,1.237965049E1
1.502855208E0,-9.900706687E0,-1.057313532E1,-8.519394667E-1,1.451003047E1
1.512841208E0,-1.221189469E1,-1.228621748E1,-9.014523733E-1,1.734630013E1
1.522827208E0,-1.468393374E1,-1.407158759E1,1.046954488E0,2.036476372E1
1.532813208E0,-1.633715796E1,-1.520876813E1,4.697394608E0,2.280953472E1
1.542799208E0,-1.751573794E1,-1.513590363E1,8.855294695E0,2.478533636E1
1.552785208E0,-1.812127677E1,-1.429342277E1,1.238254217E1,2.619179178E1
1.562771208E0,-1.869372386E1,-1.318147414E1,1.597959604E1,2.790258163E1
1.572757208E0,-1.899609156E1,-8.786927880E0,2.241812658E1,3.066975702E1
1.582743208E0,-1.730697948E1,-3.816639917E0,2.510844921E1,3.073324748E1
1.592729208E0,-1.453363106E1,-2.162286315E0,2.557079323E1,2.949181887E1
1.602715208E0,-1.158176248E1,-2.253238585E0,2.366141536E1,2.644006209E1
1.612701208E0,-8.391930336E0,-1.564988558E0,1.967883468E1,2.145064611E1
1.622687208E0,-5.521388331E0,-1.697275673E0,1.649228225E1,1.747460579E1
1.632673208E0,-4.805920100E0,-2.213562888E0,1.307530508E1,1.410532990E1
1.642659208E0,-5.614022845E0,-3.404378469E0,1.055106442E1,1.242706746E1
1.652645208E0,-6.480237558E0,-4.198238858E0,8.936649345E0,1.181026629E1
1.662631208E0,-6.691015649E0,-4.817423912E0,8.072367722E0,1.153864742E1
1.672617208E0,-5.994400595E0,-5.255470996E0,8.541743018E0,1.168392861E1
1.682603208E0,-4.551473249E0,-4.401804408E0,1.031760965E1,1.210557144E1
1.692589208E0,-1.688545049E0,-3.372987984E0,1.260013694E1,1.315263028E1
1.702575208E0,1.674287637E0,-2.609862314E0,1.484631911E1,1.516666778E1
1.712561208E0,4.500124463E0,-1.633486789E0,1.643247342E1,1.711565312E1
1.722547208E0,6.957760949E0,-1.122256539E0,1.620939162E1,1.767524466E1
1.732533208E0,8.501191408E0,-1.703898668E0,1.451571052E1,1.690796788E1
1.742519042E0,8.834581518E0,-2.353605749E0,1.157191343E1,1.474782936E1
1.752505042E0,8.551753451E0,-3.043026973E0,8.365899117E0,1.234426054E1
1.762491042E0,8.012225600E0,-3.882238952E0,5.673108374E0,1.055706858E1
1.772477042E0,7.323657485E0,-4.350223488E0,3.648093633E0,9.266552245E0
1.782463042E0,6.828831013E0,-4.534909256E0,2.304625670E0,8.515258919E0
1.792449042E0,6.697323040E0,-4.426329093E0,1.577200468E0,8.181325471E0
1.802435042E0,6.702667980E0,-4.022262810E0,1.377757205E0,7.937415894E0
1.812421042E0,6.573225828E0,-3.593366326E0,1.407732371E0,7.622420204E0
1.822407042E0,6.330122575E0,-3.066820756E0,1.400848444E0,7.172044180E0
1.832393042E0,5.836200083E0,-2.256047149E0,9.527435642E-1,6.329194297E0
1.842379042E0,4.940291455E0,-1.694601595E0,2.441393799E-1,5.228552215E0
1.852365042E0,3.682214183E0,-1.265711250E0,-4.107815176E-1,3.915286415E0
1.862351042E0,2.466660202E0,-9.351242955E-1,-9.038403761E-1,2.788511687E0
1.872337042E0,1.552418653E0,-9.587638575E-1,-1.140880067E0,2.151938460E0
1.882323042E0,9.705702630E-1,-1.074723207E0,-1.056545091E0,1.792574723E0
1.892309042E0,6.643671475E-1,-1.136662470E0,-8.819653577E-1,1.584691822E0
1.902295042E0,6.192052272E-1,-1.156338789E0,-7.751133388E-1,1.523592858E0
1.912281042E0,5.730701841E-1,-1.124549378E0,-7.429536527E-1,1.464582149E0
1.922267042E0,6.841783181E-1,-9.805707559E-1,-7.532535231E-1,1.413155989E0
1.932253042E0,7.586694335E-1,-8.266283320E-1,-8.262022161E-1,1.393378560E0
1.942240042E0,9.487918697E-1,-7.469163108E-1,-8.421861649E-1,1.472198194E0
1.952226042E0,1.088642138E0,-6.341632819E-1,-8.078612548E-1,1.496644440E0
1.962212042E0,1.054015439E0,-3.304096381E-1,-6.714831358E-1,1.292675008E0
1.972198042E0,7.832849689E-1,-1.699379209E-1,-6.306502748E-1,1.019869604E0
1.982184042E0,4.232279740E-1,-1.688784054E-1,-4.969098347E-1,6.742115526E-1
1.992170042E0,6.394098423E-2,-1.645947352E-1,-4.302960151E-1,4.651177668E-1
2.002156042E0,-1.667534176E-1,-2.319457425E-1,-3.799567509E-1,4.753658194E-1
2.012142042E0,-2.120611162E-1,-2.512647969E-1,-3.462598318E-1,4.774932316E-1
2.022128042E0,-7.953119606E-2,-1.898545606E-1,-2.979425347E-1,3.621321849E-1
2.032114042E0,6.327235512E-2,-1.870594454E-1,-1.329995978E-1,2.380830108E-1
2.042100042E0,2.225972141E-1,-1.538614400E-1,1.203602564E-1,2.961578190E-1
2.052086042E0,3.374758521E-1,3.262760952E-2,4.875203758E-1,5.938271032E-1
2.062072042E0,4.630114791E-1,1.350994791E-1,7.090719616E-1,8.575631439E-1
2.072058042E0,1.804994541E-1,1.394571166E-1,9.261381483E-1,9.538135091E-1
2.082044042E0,-5.736102475E-1,1.959558378E-1,1.206913258E0,1.350580252E0
2.092030042E0,-1.328646879E0,3.203986202E-1,1.480382856E0,2.014817909E0
2.102016042E0,-2.435929722E0,5.824434900E-1,1.958450038E0,3.179389970E0
2.112002042E0,-3.331341483E0,1.057309760E0,2.833090589E0,4.499126836E0
2.121988042E0,-3.657492447E0,1.704610859E0,4.004843954E0,5.685219810E0
2.131974042E0,-3.619112493E0,2.359508952E0,5.033237041E0,6.633154064E0
2.141960042E0,-2.975046367E0,2.837535935E0,5.709985009E0,7.036081287E0
2.151946042E0,-1.945691414E0,2.989430518E0,6.038832418E0,7.013551659E0
2.161932042E0,-1.249831528E0,2.871758226E0,6.311250687E0,7.045634066E0
2.171918042E0,-8.701574904E-1,2.729089380E0,6.469303265E0,7.075096298E0
2.181904042E0,-8.208838812E-1,2.231148097E0,6.614563889E0,7.028821211E0
2.191890042E0,-1.350244593E0,1.580853516E0,6.660544639E0,6.977471833E0
2.201876042E0,-1.832791035E0,1.092810984E0,6.447244644E0,6.791194469E0
2.211862042E0,-2.161341697E0,5.853206125E-1,6.190879321E0,6.583387040E0
2.221848042E0,-2.111723687E0,3.547432646E-1,6.353533072E0,6.704670180E0
2.231834042E0,-1.395013508E0,9.042660534E-2,6.684396601E0,6.829011464E0
2.241820042E0,-6.052768672E-1,-5.507144514E-1,6.926871863E0,6.975041240E0
2.251806042E0,5.158238232E-2,-1.633244276E0,6.757839968E0,6.952592944E0
2.261792042E0,5.787907344E-1,-3.059445955E0,6.059826846E0,6.812980967E0
2.271778042E0,8.734535658E-1,-4.792825553E0,4.368028552E0,6.543223315E0
2.281764042E0,5.376660973E-1,-6.822273361E0,2.753188095E0,7.376485839E0
2.291750042E0,4.450976568E-1,-8.014417137E0,6.562680960E-1,8.053550880E0
2.301736042E0,4.515693551E-1,-8.560455278E0,-1.284604920E0,8.668074714E0
2.311722042E0,2.796460122E-1,-8.754184057E0,-2.648135557E0,9.150221982E0
2.321708042E0,3.409944141E-1,-8.738300681E0,-4.047250301E0,9.636099365E0
2.331694042E0,9.260258818E-1,-8.741923615E0,-5.250546471E0,1.023948195E1
2.341680042E0,1.666315543E0,-8.461550210E0,-6.371492795E0,1.072242323E1
2.351666042E0,2.298049307E0,-7.979005229E0,-6.999302493E0,1.085982461E1
2.361652042E0,2.661482996E0,-7.684139500E0,-7.163498740E0,1.083721393E1
2.371639042E0,2.872434749E0,-7.727038182E0,-7.042620420E0,1.084234766E1
2.381625042E0,3.121998591E0,-7.845458332E0,-6.626212127E0,1.073334891E1
2.391611042E0,3.231875959E0,-7.799029101E0,-6.091479578E0,1.041037946E1
2.401597042E0,3.065547817E0,-7.473056184E0,-5.765459883E0,9.923944771E0
2.411583042E0,2.644866963E0,-7.230373930E0,-5.578039080E0,9.507268188E0
2.421569042E0,2.041433723E0,-7.048258891E0,-5.597562348E0,9.229198734E0
2.431555042E0,2.075115439E0,-7.321605697E0,-6.203038605E0,9.817825727E0
2.441541042E0,2.892577822E0,-8.398895540E0,-7.444692510E0,1.159016390E1
2.451527042E0,3.016445239E0,-9.750299928E0,-9.092633178E0,1.366906247E1
2.461513042E0,1.898081630E0,-1.092823088E1,-1.007655819E1,1.498552531E1
2.471499042E0,6.571241283E-1,-1.173166170E1,-1.057143261E1,1.580565993E1
2.481485042E0,-8.169764793E-1,-1.259750102E1,-1.072036704E1,1.656172551E1
2.491471042E0,-2.457487675E0,-1.395669799E1,-1.030463234E1,1.752181818E1
2.501457042E0,-3.954947909E0,-1.532693451E1,-9.145869738E0,1.828123266E1
2.511443042E0,-5.537948815E0,-1.623464925E1,-7.354260643E0,1.866327578E1
2.521429042E0,-7.614857596E0,-1.706573974E1,-5.561052918E0,1.949745723E1
2.531415042E0,-9.449259539E0,-1.847826332E1,-4.404589437E0,2.121638822E1
2.541401042E0,-1.054667433E1,-1.989230717E1,-3.363523388E0,2.276509419E1
2.551387042E0,-1.192805213E1,-2.097278375E1,-1.906224462E0,2.420268120E1
2.561373042E0,-1.489900837E1,-2.159551221E1,1.289242347E0,2.626801751E1
2.571359042E0,-1.835176114E1,-2.068797523E1,6.200379876E0,2.834120969E1
2.581345042E0,-2.034599731E1,-1.750502000E1,1.133958951E1,2.913711760E1
2.591331042E0,-2.059803570E1,-1.153052449E1,1.725178177E1,2.923792133E1
2.601317042E0,-1.846591867E1,-4.564426585E0,2.210851183E1,2.916522652E1
2.611303042E0,-1.540905397E1,-6.287563616E-1,2.417201295E1,2.867264356E1
2.621289042E0,-1.266858679E1,-1.537125699E0,2.288195345E1,2.619999314E1
2.631275042E0,-1.004684147E1,-2.629071295E0,1.833624497E1,2.107294282E1
2.641261042E0,-7.877613341E0,-1.899217452E0,1.224932155E1,1.468705883E1
2.651247042E0,-7.614931270E0,-1.795013052E0,6.974845344E0,1.048130324E1
2.661233042E0,-8.734449120E0,-3.057724242E0,3.746532093E0,9.983826005E0
2.671219042E0,-9.328223344E0,-3.723919741E0,2.352429582E0,1.031587388E1
2.681205042E0,-9.294421760E0,-2.987810839E0,3.065233237E0,1.023273884E1
2.691191042E0,-8.395148644E0,-1.677111550E0,5.832501134E0,1.035901990E1
2.701177042E0,-5.826315365E0,-5.530983246E-1,9.338785754E0,1.102110647E1
2.711163042E0,-3.208695257E0,8.182070989E-1,1.195749754E1,1.240753543E1
2.721149042E0,-7.739197759E-1,1.635125325E0,1.442028396E1,1.453331263E1
2.731135042E0,1.749940229E0,8.405588847E-1,1.552432715E1,1.564524092E1
2.741121042E0,4.101865927E0,-4.439609581E-1,1.519960320E1,1.574961405E1
2.751106708E0,6.046106354E0,-1.290831474E0,1.327508105E1,1.464409180E1
2.761092708E0,7.395085317E0,-2.178244828E0,1.054898281E1,1.306572140E1
2.771078708E0,7.398132302E0,-3.284929501E0,7.575898182E0,1.108681003E1
2.781064708E0,6.951883328E0,-4.347057805E0,4.664665403E0,9.433170024E0
2.791051708E0,6.819225208E0,-4.895219070E0,2.319312707E0,8.708858341E0
2.801037708E0,7.027687216E0,-4.975961809E0,8.551582128E-1,8.653316076E0
2.811023708E0,7.038326810E0,-4.355393596E0,3.459160155E-1,8.284150865E0
2.821009708E0,6.771479768E0,-3.365298311E0,4.167129332E-1,7.573098483E0
2.830995708E0,6.061003305E0,-2.544851216E0,1.171685538E0,6.677190710E0
2.840981708E0,5.268857027E0,-1.722748045E0,2.215007150E0,5.969503486E0
2.850967708E0,4.313373458E0,-1.043563102E0,3.050889432E0,5.385363577E0
2.860953708E0,3.357121272E0,-6.198522216E-1,3.652327017E0,4.999397229E0
2.870939708E0,2.639639845E0,-4.596456756E-1,3.827273955E0,4.671937348E0
2.880925708E0,2.167957529E0,-5.225436627E-1,3.383520573E0,4.052320718E0
2.890911708E0,1.908978647E0,-7.578185906E-1,2.477094558E0,3.217838707E0
2.900897708E0,1.711088550E0,-9.823252130E-1,1.354081244E0,2.392973645E0
2.910883708E0,1.570251929E0,-1.085759169E0,3.435712820E-1,1.939743622E0
2.920869708E0,1.574612491E0,-1.047913723E0,-4.522078711E-1,1.944741532E0
2.930855708E0,1.595122330E0,-9.292806613E-1,-9.802465278E-1,2.090182062E0
2.940841708E0,1.557213223E0,-8.043372841E-1,-1.145504630E0,2.093812873E0
2.950827708E0,1.343615020E0,-6.644808027E-1,-1.050839378E0,1.830600846E0
2.960813708E0,8.574177231E-1,-3.970533882E-1,-8.082974571E-1,1.243447355E0
2.970799708E0,2.974929934E-1,-1.110217780E-1,-5.002287143E-1,5.925003654E-1
2.980785708E0,-1.547567583E-1,1.163064184E-1,-1.726197463E-1,2.593731174E-1
2.990771708E0,-4.034961793E-1,2.820394968E-1,1.096417254E-1,5.043577623E-1
3.000757708E0,-3.889184128E-1,3.347134081E-1,1.547863233E-1,5.359565312E-1
3.010743708E0,-2.036219030E-1,2.399048263E-1,1.272687417E-1,3.394311973E-1
3.020729708E0,1.219039214E-1,7.664329279E-2,9.811452448E-2,1.742447138E-1
3.030715708E0,5.429810701E-1,-1.258285360E-1,-2.851687074E-2,5.580989831E-1
3.040701708E0,8.059077001E-1,-4.123824853E-1,-2.454871631E-1,9.379821333E-1
3.050687708E0,8.155404031E-1,-4.853136732E-1,-3.989929461E-1,1.029480880E0
3.060673708E0,5.711487159E-1,-4.228757158E-1,-4.328278595E-1,8.320905495E-1
3.070659708E0,9.137341574E-2,-2.716617123E-1,-7.509286702E-2,2.962906102E-1
3.080645708E0,-5.653951288E-1,5.633909225E-2,6.848463625E-1,8.898653186E-1
3.090631708E0,-1.128318347E0,3.296054633E-1,1.641468970E0,2.018950825E0
3.100617708E0,-1.507353138E0,5.771587765E-1,2.635776297E0,3.090718755E0
3.110603708E0,-1.669153343E0,7.102107069E-1,3.468066049E0,3.913815817E0
3.120589708E0,-1.597716886E0,8.133684549E-1,4.073627676E0,4.450697691E0
3.130575708E0,-1.476571641E0,9.237851556E-1,4.449910036E0,4.778633922E0
3.140561708E0,-1.391159023E0,1.041210183E0,4.565395469E0,4.884903055E0
3.150547708E0,-1.373282769E0,1.063348034E0,4.614894488E0,4.930909221E0
3.160533708E0,-1.492102284E0,9.262059760E-1,4.603281333E0,4.926908338E0
3.170519708E0,-1.711658069E0,7.469915206E-1,4.458384406E0,4.833731601E0
3.180505708E0,-1.993274447E0,5.330118598E-1,4.517178744E0,4.966099925E0
3.190491708E0,-2.191342299E0,5.669131391E-1,4.845418042E0,5.348032122E0
3.200477708E0,-2.046479578E0,8.731161815E-1,5.365621430E0,5.808640448E0
3.210463708E0,-1.696691536E0,1.204132614E0,5.858472127E0,6.216944039E0
3.220450708E0,-1.171479131E0,1.266616692E0,6.129770654E0,6.367948608E0
3.230436708E0,-6.773107633E-1,1.022249271E0,6.071126005E0,6.193731865E0
3.240422708E0,-1.829280952E-1,4.584047502E-1,5.901509973E0,5.922112593E0
3.250408708E0,6.740231663E-2,-2.777254942E-1,5.713328447E0,5.720471700E0
3.260394708E0,5.055169362E-1,-1.251274036E0,5.085236914E0,5.261261119E0
3.270380708E0,1.181686323E0,-2.258168957E0,3.891271146E0,4.651634201E0
3.280366708E0,1.961061405E0,-3.076858378E0,2.905886085E0,4.664439222E0
3.290352708E0,2.369080698E0,-3.773649141E0,1.911397494E0,4.848341115E0
3.300338708E0,2.395002574E0,-4.466902337E0,1.019865507E0,5.170046371E0
3.310324708E0,2.222912586E0,-4.713250795E0,7.538739127E-1,5.265396405E0
3.320310708E0,2.442410045E0,-4.892643664E0,8.604674846E-1,5.535678201E0
3.330296708E0,2.948448552E0,-5.144551070E0,1.344640914E0,6.080116262E0
3.340282708E0,3.188262747E0,-6.373597208E0,1.076248161E0,7.207362265E0
3.350268708E0,3.719454222E0,-7.544288135E0,-6.141137642E-1,8.433727461E0
3.360254708E0,3.543189322E0,-8.758208696E0,-2.246349980E0,9.711153297E0
3.370240708E0,2.897328100E0,-9.569984077E0,-3.885194719E0,1.072724771E1
3.380226708E0,3.261036023E0,-1.040940042E1,-5.547334181E0,1.223776489E1
3.390212708E0,4.063855809E0,-1.088907558E1,-6.796157357E0,1.346382731E1
3.400198708E0,4.555733530E0,-1.102029295E1,-7.587663365E0,1.413415013E1
3.410184708E0,4.780919160E0,-1.096936253E1,-8.208077504E0,1.451056989E1
3.420170708E0,4.716074123E0,-1.080559605E1,-8.617461537E0,1.460352370E1
3.430156708E0,4.383041863E0,-1.072581781E1,-8.970671954E0,1.465357223E1
3.440142708E0,3.447106705E0,-1.024348450E1,-8.792023144E0,1.393237921E1
3.450128708E0,2.239125745E0,-9.671668911E0,-7.614301525E0,1.251129295E1
3.460114708E0,1.024948491E0,-9.361827877E0,-5.986953582E0,1.115965742E1
3.470100708E0,3.606504142E-2,-8.952302341E0,-4.657798433E0,1.009158581E1
3.480086708E0,-6.301602781E-1,-8.838862265E0,-3.692197427E0,9.599734889E0
3.490072708E0,-8.454290307E-1,-8.677387896E0,-3.241311611E0,9.301500519E0
3.500058708E0,-9.567740500E-1,-8.451345649E0,-3.289497346E0,9.119290139E0
3.510044708E0,-1.545154803E0,-8.697981205E0,-3.652629318E0,9.559502149E0
3.520030708E0,-2.854180326E0,-9.265568674E0,-3.993896213E0,1.048562421E1
3.530016708E0,-4.928906926E0,-9.659057052E0,-3.748814262E0,1.147367051E1
3.540002708E0,-7.290817183E0,-9.543190965E0,-3.090752240E0,1.240085716E1
3.549988708E0,-9.382601280E0,-9.776998900E0,-2.500023245E0,1.377944231E1
3.559974708E0,-1.101508776E1,-1.055497971E1,-1.705896515E0,1.535089046E1
3.569960708E0,-1.203937025E1,-1.139378268E1,-1.364232010E0,1.663207289E1
3.579946708E0,-1.320215340E1,-1.209432004E1,-1.169424127E0,1.794260250E1
3.589932708E0,-1.469683387E1,-1.329158657E1,-6.263242123E-1,1.982562688E1
3.599918708E0,-1.694688105E1,-1.283242577E1,2.746441870E0,2.143387205E1
3.609905708E0,-1.971839227E1,-9.724430677E0,7.175159842E0,2.312709373E1
3.619891708E0,-2.063263016E1,-7.115308328E0,9.765650623E0,2.391026918E1
3.629877708E0,-2.001990277E1,-6.570255443E0,1.157984927E1,2.404282996E1
3.639863708E0,-1.811398412E1,-6.539284496E0,1.184401945E1,2.260883587E1
3.649849708E0,-1.588678202E1,-6.165374935E0,1.121153081E1,2.039853216E1
3.659835708E0,-1.335041774E1,-5.092517867E0,1.128224704E1,1.820594657E1
3.669821708E0,-1.163458154E1,-2.796491697E0,1.247432708E1,1.728562089E1
3.679807708E0,-1.046311762E1,-1.685024148E0,1.276557572E1,1.659144539E1
3.689793708E0,-9.104449232E0,-1.097532172E0,1.354682922E1,1.635885554E1
3.699779708E0,-7.616496570E0,-1.887714370E-1,1.418825943E1,1.610445156E1
3.709765708E0,-5.473061678E0,4.771219799E-1,1.448588738E1,1.549267513E1
3.719751708E0,-2.389618604E0,1.207084581E0,1.487514822E1,1.511414453E1
3.729737708E0,3.905073937E-1,1.290430355E0,1.518397242E1,1.524371100E1
3.739723708E0,1.714070046E0,5.915293688E-1,1.505497349E1,1.516377822E1
3.749710667E0,1.850216323E0,-9.514339341E-1,1.337400541E1,1.353486415E1
3.759696667E0,2.112717275E0,-2.053749567E0,1.086367411E1,1.125614839E1
3.769682667E0,2.152955767E0,-3.005812077E0,8.141528589E0,8.941734314E0
3.779668667E0,2.347095459E0,-4.074648600E0,6.067385541E0,7.676248147E0
3.789654667E0,3.048454067E0,-4.675646474E0,4.779491270E0,7.348352125E0
3.799640667E0,4.705532763E0,-4.730142817E0,4.078807724E0,7.820035940E0
3.809626667E0,6.658044954E0,-4.213216209E0,3.968079001E0,8.821927476E0
3.819612667E0,8.443267136E0,-2.911137762E0,4.419104565E0,9.964535521E0
3.829598667E0,9.644034385E0,-1.557853640E0,5.126861488E0,1.103263413E1
3.839584667E0,1.019596535E1,-6.341916409E-1,5.555040227E0,1.162834384E1
3.849570667E0,9.796283602E0,-2.119541670E-2,5.429232704E0,1.120018703E1
3.859556667E0,8.532846479E0,2.026589397E-1,4.484092859E0,9.641453648E0
3.869542667E0,6.529907316E0,-3.329846788E-2,3.060326253E0,7.211545959E0
3.879528667E0,4.654582172E0,-2.893764003E-1,1.628499845E0,4.939725260E0
3.889514667E0,2.956040577E0,-5.962220152E-1,6.903047383E-1,3.093570303E0
3.899500667E0,1.597590586E0,-6.334551110E-1,3.095673841E-1,1.746251134E0
3.909486667E0,7.930696996E-1,-5.725499281E-1,3.652147508E-1,1.044104776E0
3.919472667E0,5.876381564E-1,-4.013389952E-1,6.970173419E-1,9.961047971E-1
3.929458667E0,7.384844065E-1,-1.065578308E-1,1.053676447E0,1.291103344E0
3.939444667E0,1.016525358E0,1.816446131E-1,1.102457428E0,1.510539953E0
3.949430667E0,1.301172713E0,3.346156865E-1,7.760559100E-1,1.551541447E0
3.959416667E0,1.437287123E0,2.755347800E-1,1.736979729E-1,1.473731547E0
3.969402667E0,1.344108233E0,1.178100481E-1,-6.071017832E-1,1.479553556E0
3.979388667E0,1.079632237E0,-7.646595770E-2,-1.232203050E0,1.640054013E0
3.989375667E0,6.954160088E-1,-2.817971297E-1,-1.565442302E0,1.735978873E0
3.999361667E0,2.912465957E-1,-4.968911237E-1,-1.493633816E0,1.600833328E0
4.009347667E0,-1.321829610E-1,-5.776444609E-1,-1.265726892E0,1.397572904E0
4.019333667E0,-5.634566306E-1,-4.872669721E-1,-9.616576445E-1,1.216428338E0
4.029319667E0,-7.397634850E-1,-3.871272645E-1,-6.412705725E-1,1.052779882E0
4.039305667E0,-5.931772603E-1,-2.171146820E-1,-3.556545532E-1,7.249056549E-1
4.049291667E0,-1.499530149E-1,1.527573578E-1,-1.970804036E-2,2.149630756E-1
4.059277667E0,2.993527369E-1,5.150107679E-1,4.034303981E-1,7.194471754E-1
4.069263667E0,7.538312280E-1,6.411278274E-1,5.804630381E-1,1.147276667E0
4.079249667E0,1.099772387E0,5.130041862E-1,3.916470891E-1,1.275170592E0
4.089235667E0,1.081873913E0,2.772340905E-1,1.629560530E-2,1.116949172E0
4.099221667E0,8.113230988E-1,7.207756754E-2,-4.493234396E-1,9.302321752E-1
4.109207667E0,5.243629873E-1,-1.950739863E-1,-8.613457364E-1,1.027096334E0
4.119193667E0,3.215599869E-1,-3.943018712E-1,-1.227093168E0,1.328394683E0
4.129179667E0,1.542103726E-1,-3.303426144E-1,-1.336612687E0,1.385438760E0
4.139165667E0,4.303441085E-2,-1.313141013E-1,-9.595596635E-1,9.694586642E-1
4.149151667E0,4.845627811E-2,8.560868237E-2,-3.908045053E-1,4.029950605E-1
4.159137667E0,1.330183454E-1,1.967566871E-1,4.453297913E-2,2.416407672E-1
4.169123667E0,1.369436909E-1,2.909565007E-1,3.606632781E-1,4.832051945E-1
4.179109667E0,-6.451349974E-2,3.133541141E-1,6.924582678E-1,7.627917443E-1
4.189095667E0,-4.161874147E-1,2.520614617E-1,8.862712473E-1,1.011050774E0
4.199081667E0,-8.931621178E-1,1.589693118E-1,9.880537301E-1,1.341364971E0
4.209067667E0,-1.494861439E0,4.398234044E-2,1.082053569E0,1.845910370E0
4.219053667E0,-2.126211333E0,1.597167412E-2,1.283880157E0,2.483823260E0
4.229039667E0,-2.521864935E0,1.597339814E-1,1.592290962E0,2.986755464E0
4.239025667E0,-2.905443451E0,3.727511905E-1,2.040619791E0,3.569968379E0
4.249011667E0,-3.264223633E0,5.686195393E-1,2.526763732E0,4.166895615E0
4.258997667E0,-3.330398034E0,6.980295680E-1,2.958968278E0,4.509355787E0
4.268983667E0,-3.213344378E0,7.223542774E-1,3.362657708E0,4.706893313E0
4.278969667E0,-3.189053875E0,8.367643341E-1,3.745764939E0,4.990089593E0
4.288955667E0,-3.236366913E0,9.949971525E-1,4.158654377E0,5.362694879E0
4.298941667E0,-3.084320303E0,1.034632796E0,4.591413825E0,5.627128723E0
4.308927667E0,-3.052400645E0,1.240819215E0,5.229951409E0,6.181356951E0
4.318913667E0,-2.943507655E0,1.591177214E0,5.881178035E0,6.766412441E0
4.328899667E0,-2.449752686E0,1.902110946E0,6.653767716E0,7.341112932E0
4.338885667E0,-1.980820316E0,1.934743380E0,7.186685874E0,7.701644949E0
4.348871667E0,-1.493485005E0,1.578402656E0,7.559944054E0,7.866041349E0
4.358857667E0,-6.393041539E-1,1.040458670E0,7.743897459E0,7.839592585E0
4.368843667E0,1.895258009E-2,2.882338178E-1,7.580811013E0,7.586312250E0
4.378830667E0,5.859629291E-1,-6.368263963E-1,6.917222788E0,6.971145638E0
4.388816667E0,1.129448906E0,-1.282919460E0,6.204267690E0,6.435407893E0
4.398802667E0,1.770750615E0,-1.869678195E0,5.393647719E0,5.976846159E0
4.408788667E0,2.401517834E0,-2.913969861E0,4.727779664E0,6.050653586E0
4.418774667E0,3.403096467E0,-3.707927021E0,4.422677214E0,6.699989709E0
4.428760667E0,4.515579823E0,-4.696023436E0,3.838107092E0,7.561359884E0
4.438746667E0,5.147901524E0,-6.400425403E0,2.717326244E0,8.651600855E0
4.448732667E0,4.685610130E0,-8.748000042E0,1.186731593E0,9.994537453E0
4.458718667E0,3.529226171E0,-1.119491069E1,-8.201667202E-1,1.176665357E1
4.468704667E0,2.554278975E0,-1.247103744E1,-3.308966235E0,1.315296063E1
4.478690667E0,1.969763231E0,-1.219296725E1,-5.455869110E0,1.350240443E1
4.488676667E0,2.107823009E0,-1.068676543E1,-6.853192268E0,1.286919257E1
4.498662667E0,2.652924426E0,-8.962026846E0,-7.259819924E0,1.183473356E1
4.508648667E0,3.906140031E0,-7.817969402E0,-6.717880096E0,1.102308888E1
4.518634667E0,5.359647329E0,-7.276604941E0,-5.804171959E0,1.074072675E1
4.528620667E0,6.101403472E0,-6.872552399E0,-4.948367044E0,1.043769310E1
4.538606667E0,5.507096567E0,-6.740873687E0,-4.102441585E0,9.622760395E0
4.548592667E0,4.300006723E0,-6.835217927E0,-3.413555381E0,8.767133070E0
4.558578667E0,3.310207014E0,-6.728164764E0,-3.182393897E0,8.145753647E0
4.568564667E0,2.700840020E0,-6.670176757E0,-3.188072712E0,7.870806973E0
4.578550667E0,2.358680255E0,-6.773267847E0,-3.327984889E0,7.906706855E0
4.588536667E0,2.333060095E0,-6.779448354E0,-3.580648924E0,8.014058654E0
4.598522667E0,2.199115003E0,-6.832279701E0,-3.856247494E0,8.147809365E0
4.608508667E0,1.847876267E0,-7.205504553E0,-4.451452532E0,8.668873756E0
4.618494667E0,1.456534987E0,-7.743860037E0,-5.552117203E0,9.639235856E0
4.628480667E0,1.901789349E-1,-8.364896320E0,-6.741964778E0,1.074531282E1
4.638466667E0,-1.548809897E0,-9.028351228E0,-8.018096205E0,1.217373422E1
4.648452667E0,-3.623923582E0,-9.583370692E0,-9.211593611E0,1.377778185E1
4.658438667E0,-6.131890855E0,-1.006391183E1,-9.745177767E0,1.529218416E1
4.668424667E0,-8.602357010E0,-1.068730220E1,-8.914687788E0,1.636125401E1
4.678410667E0,-1.056205718E1,-1.038909654E1,-6.682590981E0,1.625261213E1
4.688396667E0,-1.164691449E1,-9.618822361E0,-4.402001460E0,1.573372104E1
4.698382667E0,-1.237870289E1,-9.488423604E0,-1.943765633E0,1.571752819E1
4.708368667E0,-1.246829392E1,-9.696763406E0,-9.013804525E-2,1.579536954E1
4.718354667E0,-1.228134558E1,-1.039104484E1,1.077716104E0,1.612348393E1
4.728340667E0,-1.265170471E1,-1.044773242E1,2.556705569E0,1.660594737E1
4.738326667E0,-1.306713067E1,-1.022565400E1,3.425303022E0,1.694244978E1
4.748311833E0,-1.375333651E1,-1.081537494E1,3.975581564E0,1.794245939E1
4.758298833E0,-1.564737596E1,-1.057151564E1,5.565257066E0,1.968678246E1
4.768284833E0,-1.778145297E1,-9.075852254E0,7.434139456E0,2.130299493E1
4.778270833E0,-1.883583459E1,-7.725896806E0,9.057375053E0,2.228259834E1
4.788256833E0,-1.906262235E1,-6.580235471E0,1.052531796E1,2.274786557E1
4.798242833E0,-1.829326677E1,-5.473724753E0,1.151494985E1,2.229796721E1
4.808228833E0,-1.696610318E1,-4.157728179E0,1.300939526E1,2.178026000E1
4.818214833E0,-1.518005245E1,-2.076946933E0,1.427784812E1,2.094289015E1
4.828200833E0,-1.250590322E1,-1.021927893E0,1.558766887E1,2.001043160E1
4.838186833E0,-9.726758453E0,-2.153521485E-1,1.647847580E1,1.913625803E1
4.848172833E0,-6.732901009E0,7.890281041E-1,1.696951094E1,1.827344584E1
4.858158833E0,-3.027955483E0,1.385258452E0,1.831801920E1,1.861819763E1
4.868144833E0,-3.485424386E-1,1.384193235E0,1.870626964E1,1.876065022E1
4.878130833E0,1.750561349E0,5.224852636E-2,1.781975223E1,1.790560707E1
4.888116833E0,3.275403217E0,-1.853197964E0,1.532941840E1,1.578460255E1
4.898102833E0,4.426808564E0,-3.936665128E0,1.203406683E1,1.341315514E1
4.908088833E0,5.580531748E0,-5.530753816E0,8.691400164E0,1.171631380E1
4.918074833E0,7.105058159E0,-6.417411565E0,6.048029503E0,1.132447277E1
4.928060833E0,8.698753622E0,-6.578678357E0,4.207980904E0,1.168992843E1
4.938046833E0,9.678617157E0,-5.889524935E0,3.119603571E0,1.175134292E1
4.948032833E0,9.660325313E0,-4.717941724E0,2.771210675E0,1.110227309E1
4.958018833E0,8.952253810E0,-3.634519322E0,2.975521161E0,1.010971341E1
4.968004833E0,7.730545342E0,-2.602827821E0,3.594037879E0,8.913649770E0
4.977990833E0,6.282203473E0,-1.610575790E0,4.218366728E0,7.736578877E0
4.987976833E0,4.769105446E0,-7.653181563E-1,4.542585481E0,6.630623009E0
4.997962833E0,3.427985140E0,-3.997508184E-1,4.511921512E0,5.680520977E0
5.007948833E0,2.506927053E0,-2.307092026E-1,4.091266971E0,4.803787611E0
5.017934833E0,1.992187011E0,-2.065700874E-1,3.378901858E0,3.927907592E0
5.027920833E0,1.767959155E0,-4.229744241E-1,2.504360710E0,3.094577435E0
5.037906833E0,1.820621371E0,-8.161844739E-1,1.588359879E0,2.550236534E0
5.047892833E0,2.002455891E0,-1.208386318E0,6.430802858E-1,2.425609066E0
5.057878833E0,2.225524245E0,-1.321241673E0,-3.169068092E-1,2.607502185E0
5.067864833E0,2.454588625E0,-1.190141031E0,-1.106251101E0,2.943676697E0
5.077850833E0,2.404180656E0,-9.865453678E-1,-1.420878081E0,2.961798594E0
5.087836833E0,2.067825862E0,-7.584101826E-1,-1.442022783E0,2.632587986E0
5.097822833E0,1.670543519E0,-3.992535127E-1,-1.290745373E0,2.148521034E0
5.107808833E0,1.251183258E0,-4.327275798E-2,-8.209391373E-1,1.497088222E0
5.117795833E0,7.580519675E-1,2.508947412E-1,-1.826132226E-1,8.191083846E-1
5.127781833E0,5.860009360E-1,5.169030000E-1,2.530610615E-1,8.213560186E-1
5.137767833E0,6.232058921E-1,5.379879865E-1,3.621858931E-1,8.994416483E-1
5.147753833E0,6.693030015E-1,4.126753942E-1,8.131722808E-2,7.904935043E-1
5.157739833E0,6.635684178E-1,1.542567848E-1,-5.044620985E-1,8.477029017E-1
5.167725833E0,6.023449270E-1,-1.133194413E-1,-1.133939422E0,1.288983832E0
5.177711833E0,6.735422328E-1,-2.535978359E-1,-1.553941998E0,1.712514740E0
5.187697833E0,6.343803598E-1,-2.894407197E-1,-1.671110845E0,1.810752834E0
5.197683833E0,4.528046525E-1,-2.339604007E-1,-1.440168046E0,1.527695494E0
5.207669833E0,1.332482506E-1,-1.030872525E-1,-9.892962635E-1,1.003538328E0
5.217655833E0,-2.186230809E-1,5.102899818E-2,-4.000816977E-1,4.587650543E-1
5.227641833E0,-4.688852996E-1,2.113208039E-1,1.960360909E-1,5.503999048E-1
5.237627833E0,-5.352156754E-1,3.950758598E-1,7.226965588E-1,9.822581485E-1
5.247613833E0,-5.061297244E-1,5.984555785E-1,1.024947907E0,1.290284693E0
5.257599833E0,-4.165161013E-1,7.305571901E-1,1.146159518E0,1.421576980E0
5.267585833E0,-4.047338156E-1,7.214617000E-1,1.183816756E0,1.444208627E0
5.277571833E0,-4.664830441E-1,5.751107892E-1,1.182056159E0,1.394853259E0
5.287557833E0,-6.017859332E-1,4.511589902E-1,1.172466141E0,1.392970781E0
5.297543833E0,-8.867879950E-1,3.840168747E-1,1.248958247E0,1.579163896E0
5.307529833E0,-1.179728821E0,3.467788087E-1,1.453784457E0,1.904075860E0
5.317515833E0,-1.441988723E0,3.468220050E-1,1.704040024E0,2.259063829E0
5.327501833E0,-1.667847221E0,3.451620536E-1,1.956564896E0,2.594031108E0
5.337487833E0,-1.593885498E0,3.383997487E-1,2.176026687E0,2.718469701E0
5.347473833E0,-1.320696274E0,4.129910708E-1,2.627239947E0,2.969375357E0
5.357459833E0,-1.053277813E0,8.266100594E-1,3.322868575E0,3.582475946E0
5.367445833E0,-6.818848939E-1,1.137840830E0,4.157792498E0,4.364273962E0
5.377431833E0,-3.404273804E-1,1.174253342E0,5.116182718E0,5.260236432E0
5.387417833E0,-1.235284971E-1,1.323501768E0,6.015741763E0,6.160849388E0
5.397403833E0,-4.479091443E-2,1.297758524E0,6.395680388E0,6.526171238E0
5.407389833E0,4.526753560E-2,7.859804622E-1,6.323080773E0,6.371904339E0
5.417375833E0,1.904750964E-1,1.493131833E-1,5.916396984E0,5.921345157E0
5.427361833E0,3.915267827E-1,-3.400169058E-1,5.362179174E0,5.387195022E0
5.437347833E0,8.061775491E-1,-7.673140302E-1,4.788807639E0,4.916438921E0
5.447333833E0,1.802928866E0,-1.075062492E0,4.245701877E0,4.736274515E0
5.457319833E0,2.883553230E0,-1.298615433E0,3.707030643E0,4.872715615E0
5.467305833E0,3.779519160E0,-1.451494102E0,3.321076403E0,5.236520666E0
5.477291833E0,4.159665361E0,-1.667691978E0,2.807127782E0,5.288097846E0
5.487278833E0,3.920981726E0,-2.142542022E0,2.203541930E0,4.981985653E0
5.497264833E0,3.286542163E0,-2.943972217E0,1.591478784E0,4.690536912E0
5.507250833E0,3.099766015E0,-3.667311677E0,6.083238512E-1,4.840225428E0
5.517236833E0,3.060018690E0,-3.874839885E0,-2.029358053E-1,4.941586937E0
5.527222833E0,3.094382191E0,-3.861976011E0,-6.918057185E-1,4.996864517E0
5.537208833E0,3.512010214E0,-3.681650511E0,-9.848091102E-1,5.182529808E0
5.547194833E0,4.129932854E0,-3.129008525E0,-9.123878360E-1,5.261130230E0
5.557180833E0,4.692070134E0,-2.698783261E0,-4.819661057E-1,5.434265779E0
5.567166833E0,4.992597138E0,-2.661860726E0,-2.502596605E-1,5.663405212E0
5.577152833E0,5.203365288E0,-3.009009042E0,-4.910795760E-1,6.030779791E0
5.587138833E0,5.146039771E0,-3.843956354E0,-9.053746855E-1,6.486711732E0
5.597124833E0,4.258889687E0,-5.185669860E0,-1.836983489E0,6.957285505E0
5.607110833E0,3.553241855E0,-6.547152509E0,-3.237643068E0,8.122380580E0
5.617096833E0,3.055321037E0,-7.313929473E0,-4.413633910E0,9.072415073E0
5.627082833E0,2.504971744E0,-7.792695982E0,-5.291615560E0,9.746906655E0
5.637068833E0,2.241247700E0,-8.148632371E0,-5.903034927E0,1.030869643E1
5.647054833E0,1.839797169E0,-8.346504487E0,-6.115329201E0,1.050934070E1
5.657040833E0,1.559083455E0,-8.548489535E0,-5.922918384E0,1.051610083E1
5.667026833E0,8.610504520E-1,-8.756717656E0,-5.507273737E0,1.038034566E1
5.677012833E0,-5.519064063E-1,-9.059790537E0,-5.051301429E0,1.038749495E1
5.686998833E0,-1.861908415E0,-9.104994192E0,-5.151822082E0,1.062585963E1
5.696984833E0,-2.529583259E0,-9.356855990E0,-5.471099938E0,1.113025067E1
5.706970833E0,-2.638577698E0,-9.658396901E0,-5.048971898E0,1.121333314E1
5.716956833E0,-2.882028276E0,-9.613907191E0,-4.635318813E0,1.105529190E1
5.726942833E0,-4.377478822E0,-1.005939544E1,-3.895847177E0,1.164179465E1
5.736928833E0,-6.451803133E0,-9.679364432E0,-2.073852441E0,1.181595207E1
5.746915042E0,-8.043034580E0,-7.882927875E0,4.010143286E-1,1.126906250E1
5.756901042E0,-8.976175354E0,-6.668232558E0,2.167203677E0,1.139007556E1
5.766887042E0,-9.467097639E0,-6.461176220E0,3.514798166E0,1.198860050E1
5.776873042E0,-1.019106187E1,-6.178465097E0,4.524543897E0,1.274765353E1
5.786859042E0,-1.122307556E1,-6.006394404E0,4.953990312E0,1.365929056E1
5.796845042E0,-1.203362828E1,-5.955421302E0,4.906631373E0,1.429511399E1
5.806831042E0,-1.206855721E1,-6.377297326E0,3.776585028E0,1.416271827E1
5.816817042E0,-1.190489131E1,-7.156237083E0,3.073749999E0,1.422624706E1
5.826803042E0,-1.195527326E1,-7.917453929E0,2.417711990E0,1.454166313E1
5.836789042E0,-1.230994431E1,-8.256980107E0,2.189814422E0,1.498358223E1
5.846775042E0,-1.302833322E1,-7.538647910E0,3.338731486E0,1.541803512E1
5.856761042E0,-1.427373402E1,-5.615074174E0,5.912286977E0,1.643848163E1
5.866748042E0,-1.453782001E1,-3.699381608E0,7.673902779E0,1.684999759E1
5.876734042E0,-1.374873124E1,-2.064977244E0,9.985368522E0,1.711722309E1
5.886720042E0,-1.264767948E1,-1.125398979E0,1.164199231E1,1.722690640E1
5.896706042E0,-1.111044883E1,-4.746662955E-1,1.244373796E1,1.668873859E1
5.906692042E0,-9.605664956E0,3.019168506E-1,1.225754273E1,1.557585654E1
5.916678042E0,-8.900059808E0,2.801102446E-1,1.236950405E1,1.524119932E1
5.926664042E0,-8.107147545E0,-2.452724241E-2,1.308940505E1,1.539671937E1
5.936650042E0,-7.283193583E0,-4.360273828E-1,1.287145477E1,1.479558638E1
5.946636042E0,-6.077093673E0,-4.274099757E-1,1.300019408E1,1.435683785E1
5.956622042E0,-4.798696158E0,-9.124956440E-1,1.359515178E1,1.444604739E1
5.966608042E0,-3.251184342E0,-1.577178541E0,1.427371297E1,1.472401351E1
5.976594042E0,-1.829884384E0,-2.444512996E0,1.435970447E1,1.468077767E1
5.986580042E0,-1.688671495E-1,-3.287288852E0,1.395841941E1,1.434127807E1
5.996566042E0,1.667496827E0,-3.739932926E0,1.290593112E1,1.353996684E1
6.006552042E0,2.970623533E0,-4.493815317E0,1.146272252E1,1.266542490E1
6.016538042E0,4.130905246E0,-5.018598536E0,9.358397316E0,1.139431041E1
6.026524042E0,4.870288004E0,-4.949067541E0,7.332230673E0,1.009824645E1
6.036510042E0,5.558990021E0,-5.024045218E0,6.068187194E0,9.641903143E0
6.046496042E0,6.117850521E0,-5.055973939E0,5.461283047E0,9.634136183E0
6.056482042E0,6.694181916E0,-4.790930471E0,5.511612956E0,9.906713061E0
6.066468042E0,6.819024063E0,-4.286793477E0,5.523269965E0,9.766381039E0
6.076454042E0,6.751459486E0,-3.752058882E0,5.283114293E0,9.357961727E0
6.086440042E0,6.417026818E0,-3.153915033E0,4.668253255E0,8.539203807E0
6.096426042E0,5.785163246E0,-2.526144219E0,3.745322304E0,7.340092476E0
6.106412042E0,5.367356299E0,-1.989632362E0,2.664116582E0,6.313847301E0
6.116398042E0,4.795914345E0,-1.576538271E0,1.664122252E0,5.315596880E0
6.126384042E0,4.131577091E0,-1.267424631E0,8.107901251E-1,4.397007514E0
6.136370042E0,3.605997481E0,-1.181780463E0,2.256551617E-1,3.801413309E0
6.146356042E0,3.324363708E0,-1.218417947E0,3.677547812E-2,3.540803410E0
6.156342042E0,3.370984143E0,-1.300438887E0,9.527979434E-2,3.614381501E0
6.166328042E0,3.690554359E0,-1.351026220E0,2.271625739E-1,3.936631321E0
6.176314042E0,4.097272354E0,-1.351075190E0,3.947209704E-1,4.332303032E0
6.186300042E0,4.279518079E0,-1.294501917E0,5.058794636E-1,4.499547114E0
6.196286042E0,4.357441583E0,-1.158774520E0,3.928504461E-1,4.525968075E0
6.206272042E0,4.231921744E0,-1.132433325E0,1.964898348E-2,4.380862126E0
6.216259042E0,3.927460148E0,-1.155184914E0,-4.883085805E-1,4.122843760E0
6.226245042E0,3.411139897E0,-1.248621009E0,-1.026473445E0,3.774728805E0
6.236231042E0,2.798825905E0,-1.289192061E0,-1.457253025E0,3.408669681E0
6.246217042E0,2.265875003E0,-1.354799574E0,-1.635204263E0,3.105408893E0
6.256203042E0,1.704362206E0,-1.250311000E0,-1.597369269E0,2.649474798E0
6.266189042E0,1.162712035E0,-1.023774444E0,-1.360251811E0,2.061625178E0
6.276175042E0,6.689678098E-1,-7.731958906E-1,-8.587226754E-1,1.335198281E0
6.286161042E0,2.318654164E-1,-3.727821442E-1,-2.189109832E-1,4.905610226E-1
6.296147042E0,1.194282833E-1,-1.151316031E-1,2.252721691E-1,2.797605245E-1
6.306133042E0,6.555700846E-2,-3.459329724E-2,4.701968300E-1,4.760036518E-1
6.316119042E0,1.062191308E-1,1.268838488E-2,6.326973850E-1,6.416770837E-1
6.326105042E0,1.647485901E-1,6.180419236E-2,6.867320895E-1,7.089166516E-1
6.336091042E0,1.131180413E-1,1.720911580E-1,7.076493341E-1,7.370065386E-1
6.346077042E0,-1.188204653E-1,3.054040204E-1,8.672379756E-1,9.270877116E-1
6.356063042E0,-4.508010310E-1,4.323528463E-1,1.140808146E0,1.300612848E0
6.366049042E0,-7.964496095E-1,6.759984288E-1,1.465205823E0,1.799481581E0
6.376035042E0,-1.150162229E0,8.956146593E-1,1.752330424E0,2.279399194E0
6.386021042E0,-1.341538089E0,9.368321941E-1,2.017543754E0,2.597664683E0
6.396007042E0,-1.446358054E0,9.106966750E-1,2.230283586E0,2.809890555E0
6.405993042E0,-1.547595431E0,9.710510503E-1,2.422421923E0,3.034158818E0
6.415979042E0,-1.646075260E0,9.612275818E-1,2.784928828E0,3.374811225E0
6.425965042E0,-1.515945329E0,1.053045094E0,3.375134497E0,3.846885374E0
6.435951042E0,-1.481367527E0,1.455652788E0,4.130856130E0,4.623564334E0
6.445937042E0,-1.427626353E0,1.848672511E0,5.075168594E0,5.586863459E0
6.455923042E0,-1.242935907E0,1.898799522E0,5.951932853E0,6.369916324E0
6.465909042E0,-1.034067224E0,1.594591257E0,6.323921603E0,6.603332548E0
6.475895042E0,-6.965787276E-1,1.105089844E0,6.179318790E0,6.315886810E0
6.485881042E0,-2.979788605E-1,6.905473977E-1,5.707532687E0,5.756872109E0
6.495867042E0,5.160342316E-2,3.903253260E-1,5.026041457E0,5.041439229E0
6.505853042E0,3.322951459E-1,8.263022035E-2,4.276922500E0,4.290607636E0
6.515839042E0,5.066608708E-1,-4.318095669E-1,3.603491072E0,3.664466216E0
6.525825042E0,7.995568930E-1,-1.076143788E0,3.140946493E0,3.415101982E0
6.535811042E0,1.276851804E0,-1.695806560E0,2.840051699E0,3.545702197E0
6.545797042E0,1.927561537E0,-2.321075934E0,2.315749413E0,3.803364605E0
6.555783042E0,3.017002478E0,-2.614341866E0,2.175944241E0,4.546627397E0
6.565770042E0,4.144661698E0,-2.634857407E0,2.210793062E0,5.385935398E0
6.575756042E0,5.050208584E0,-3.253218296E0,1.856979797E0,6.287798501E0
6.585742042E0,5.507192461E0,-4.475237251E0,1.222667411E0,7.200821679E0
6.595728042E0,6.004360743E0,-5.711763732E0,-4.032006025E-2,8.287232262E0
6.605714042E0,6.442969744E0,-6.232049566E0,-1.670911455E0,9.118237001E0
6.615700042E0,6.279289806E0,-6.269710312E0,-2.701910645E0,9.275724716E0
6.625686042E0,5.848044788E0,-6.340368066E0,-2.775931717E0,9.061219121E0
6.635672042E0,5.710857414E0,-5.902832029E0,-2.313380122E0,8.532821688E0
6.645658042E0,6.481584756E0,-5.137582358E0,-1.379951080E0,8.385103364E0
6.655644042E0,7.540093342E0,-4.465715060E0,1.131845534E-2,8.763318248E0
6.665630042E0,8.995910291E0,-4.056183093E0,1.159876501E0,9.936012115E0
6.675616042E0,9.635779871E0,-4.292937439E0,1.704037685E0,1.068556550E1
6.685602042E0,8.922562233E0,-5.838227897E0,1.413805289E0,1.075620134E1
6.695588042E0,7.723813443E0,-8.030838457E0,7.131024474E-1,1.116513213E1
6.705574042E0,6.394730215E0,-9.542931933E0,-6.819765490E-1,1.150761558E1
6.715560042E0,5.081584743E0,-1.013621382E1,-2.171304768E0,1.154469136E1
6.725546042E0,3.707284997E0,-1.025469946E1,-3.281175588E0,1.138722689E1
6.735532042E0,2.872578006E0,-1.017473528E1,-4.362332194E0,1.143708374E1
6.745518667E0,2.303560308E0,-1.029077327E1,-5.176310806E0,1.174736559E1
6.755504667E0,9.753781360E-1,-1.054644512E1,-5.393700929E0,1.188574259E1
6.765490667E0,-7.957119101E-1,-1.075311145E1,-5.005686130E0,1.188778604E1
6.775476667E0,-2.164844472E0,-1.091933609E1,-4.433215651E0,1.198214727E1
6.785462667E0,-3.037479427E0,-1.109326035E1,-3.418139891E0,1.199876605E1
6.795448667E0,-3.146774998E0,-1.109625764E1,-1.925875931E0,1.169350779E1
6.805434667E0,-2.954537258E0,-1.078396136E1,-1.184694715E0,1.124395902E1
6.815420667E0,-3.886147816E0,-1.055614448E1,-1.478021166E-1,1.124971895E1
6.825406667E0,-7.386189948E0,-1.007579337E1,1.683663062E0,1.260603567E1
6.835392667E0,-1.158709981E1,-8.697125173E0,3.621112534E0,1.493363065E1
6.845378667E0,-1.534594030E1,-7.682663662E0,4.914729767E0,1.785149218E1
6.855364667E0,-1.792405018E1,-6.559356233E0,6.630169523E0,2.020534279E1
6.865350667E0,-1.836391984E1,-5.515857450E0,7.474254279E0,2.057966745E1
6.875336667E0,-1.732159869E1,-5.688836800E0,7.022915304E0,1.953770674E1
6.885322667E0,-1.589032543E1,-6.280980236E0,6.095410661E0,1.814131159E1
6.895308667E0,-1.487693981E1,-6.573186652E0,5.088853417E0,1.704190570E1
6.905294667E0,-1.407117127E1,-6.281031107E0,4.371448004E0,1.601745206E1
6.915280667E0,-1.354651114E1,-5.879500469E0,3.725803714E0,1.523017081E1
6.925266667E0,-1.334468630E1,-5.560516144E0,3.050725710E0,1.477521301E1
6.935253667E0,-1.349716063E1,-5.443424481E0,3.535021931E0,1.497666837E1
6.945239667E0,-1.420158640E1,-4.048251345E0,5.443961840E0,1.573880922E1
6.955225667E0,-1.478271427E1,-1.562842923E0,7.937311658E0,1.685146983E1
6.965211667E0,-1.373487451E1,2.787697704E-1,1.009600369E1,1.704857123E1
6.975197667E0,-1.188825598E1,1.604937028E0,1.357849424E1,1.811855289E1
6.985183667E0,-9.391890167E0,1.270066403E0,1.661180635E1,1.912518705E1
6.995169667E0,-5.719494921E0,1.039748233E0,1.931321764E1,2.016913668E1
7.005155667E0,-2.317893734E0,8.274552014E-1,2.069361194E1,2.083945510E1
7.015141667E0,2.643222872E-1,-4.130563769E-1,2.024434230E1,2.025028091E1
7.025127667E0,2.047647559E0,-2.444453647E0,1.797370474E1,1.825437690E1
7.035113667E0,3.245019915E0,-4.658381401E0,1.358159560E1,1.472040796E1
7.045099667E0,4.527806351E0,-5.935197537E0,9.414477961E0,1.201499045E1
7.055085667E0,6.001783875E0,-6.395211441E0,6.404480447E0,1.085990372E1
7.065071667E0,7.016010911E0,-6.485117644E0,4.493223871E0,1.055794586E1
7.075057667E0,7.937334462E0,-6.086971375E0,3.733002806E0,1.067650733E1
7.085043667E0,8.671830118E0,-5.025063803E0,3.771340075E0,1.070863716E1
7.095029667E0,8.649235307E0,-3.843541202E0,4.342487914E0,1.041341835E1
7.105015667E0,8.071867785E0,-2.558704440E0,5.201766075E0,9.937826133E0
7.115001667E0,7.367146152E0,-1.357918187E0,5.853254657E0,9.506806735E0
7.124987667E0,6.387056329E0,-4.440749423E-1,5.955097366E0,8.743847880E0
7.134973667E0,5.296563474E0,-1.361777422E-1,5.646066172E0,7.742750947E0
7.144959667E0,3.910539476E0,-2.524267848E-1,4.869737197E0,6.250630259E0
7.154945667E0,2.817307200E0,-4.279044309E-1,3.684585521E0,4.657949390E0
7.164931667E0,2.119137664E0,-5.039137027E-1,2.591653208E0,3.385460058E0
7.174917667E0,1.595316896E0,-6.650577767E-1,1.928750276E0,2.589867849E0
7.184903667E0,1.454725274E0,-7.152239634E-1,1.534088947E0,2.231860174E0
7.194889667E0,1.757713371E0,-6.989800329E-1,1.274783059E0,2.281052658E0
7.204875667E0,2.234272264E0,-6.652169672E-1,1.191913980E0,2.618233202E0
7.214861667E0,2.623242498E0,-6.060945637E-1,1.145642624E0,2.925961183E0
7.224847667E0,2.672264384E0,-5.554523406E-1,9.583101135E-1,2.892729250E0
7.234833667E0,2.536220726E0,-5.258860774E-1,5.526232749E-1,2.648464503E0
7.244819667E0,2.188301308E0,-4.524274340E-1,6.116479933E-2,2.235418156E0
7.254805667E0,1.713921965E0,-3.059644029E-1,-3.735838705E-1,1.780648092E0
7.264791667E0,1.208603103E0,-1.074737240E-1,-6.207018220E-1,1.362917024E0
7.274777667E0,7.967076910E-1,5.035183579E-4,-7.153115255E-1,1.070707232E0
7.284764667E0,4.197885686E-1,-1.289918796E-1,-7.812137389E-1,8.961898533E-1
7.294750667E0,6.920764446E-3,-2.386345552E-1,-8.642804539E-1,8.966465585E-1
7.304736667E0,-3.039068408E-1,-1.088882751E-1,-8.047487819E-1,8.670851321E-1
7.314722667E0,-2.910296640E-1,3.510854658E-2,-5.385823560E-1,6.131898805E-1
7.324708667E0,-1.092734970E-1,1.949887083E-1,-1.022110838E-1,2.457812018E-1
7.334694667E0,1.358138627E-1,3.994635374E-1,2.751687992E-1,5.037205485E-1
7.344680667E0,1.740157691E-1,5.399261923E-1,4.260041589E-1,7.094232336E-1
7.354666667E0,-8.754524365E-2,6.471371571E-1,5.413165140E-1,8.482182727E-1
7.364652667E0,-3.670506303E-1,7.706155144E-1,7.843133479E-1,1.159190176E0
7.374638667E0,-7.417906415E-1,8.632387725E-1,1.225619670E0,1.672596218E0
7.384624667E0,-1.177145229E0,8.385625722E-1,1.648175141E0,2.192108431E0
7.394610667E0,-1.437548201E0,6.928661842E-1,1.875130724E0,2.462259858E0
7.404596667E0,-1.713492779E0,6.963801415E-1,2.012922699E0,2.733653343E0
7.414582667E0,-2.110130028E0,8.455128651E-1,2.115554783E0,3.105336178E0
7.424568667E0,-2.335544139E0,8.585674319E-1,2.237000867E0,3.346053995E0
7.434554667E0,-2.578127136E0,7.585733199E-1,2.304519836E0,3.540195571E0
7.444540667E0,-2.492706917E0,6.522843879E-1,2.326721129E0,3.471698994E0
7.454526667E0,-2.054155510E0,3.959474239E-1,2.415551444E0,3.195499648E0
7.464512667E0,-1.766951095E0,2.938247792E-1,2.438312901E0,3.025527883E0
7.474498667E0,-1.006446001E0,-9.226760119E-3,2.108241085E0,2.336171903E0
7.484484667E0,-1.787585188E-1,-6.501005991E-1,1.761014709E0,1.885671817E0
7.494470667E0,2.390265014E-1,-1.066456998E0,1.459403631E0,1.823272650E0
7.504456667E0,5.648204937E-1,-1.202524630E0,1.216848262E0,1.801612436E0
7.514442667E0,9.421150804E-1,-1.264175041E0,1.307358482E0,2.048146860E0
7.524428667E0,9.772146734E-1,-1.145293253E0,1.732891940E0,2.295552141E0
7.534414667E0,1.403280009E0,-8.989398247E-1,2.457254956E0,2.969072163E0
7.544400667E0,1.949945409E0,-7.837166396E-1,3.123900690E0,3.765003903E0
7.554386667E0,2.331191325E0,-7.280912000E-1,3.879372647E0,4.584114083E0
7.564372667E0,2.673245839E0,-7.011244261E-1,4.305427676E0,5.116104598E0
7.574358667E0,2.792450686E0,-9.558922899E-1,4.282534073E0,5.201116129E0
7.584344667E0,2.860731547E0,-1.422979571E0,3.949113557E0,5.079778906E0
7.594330667E0,2.814229226E0,-2.074669297E0,3.448145170E0,4.910584888E0
7.604316667E0,2.894833678E0,-2.655255711E0,3.002772694E0,4.944399738E0
7.614302667E0,3.394449019E0,-2.808041117E0,2.460983140E0,5.046168554E0
7.624288667E0,4.214327472E0,-2.699174148E0,2.224015955E0,5.476526645E0
7.634274667E0,4.998914469E0,-2.547641215E0,2.457943173E0,6.125447435E0
7.644261667E0,5.727091624E0,-2.953498208E0,2.493864373E0,6.909565083E0
7.654247667E0,6.020043560E0,-3.851453946E0,1.899062793E0,7.394664391E0
7.664233667E0,6.281957306E0,-4.638575127E0,8.423838007E-1,7.854233080E0
7.674219667E0,6.655276297E0,-4.663289554E0,1.325610566E-1,8.127517732E0
7.684205667E0,7.158532115E0,-4.263290886E0,-1.355770504E-1,8.332983401E0
7.694191667E0,7.644983620E0,-3.950241485E0,2.321175045E-1,8.608371558E0
7.704177667E0,8.060283281E0,-3.956005670E0,8.201146799E-1,9.016137506E0
7.714163667E0,7.825826306E0,-4.338195473E0,1.152781489E0,9.021773800E0
7.724149667E0,7.125505287E0,-5.331894105E0,8.466838431E-1,8.939731197E0
7.734135667E0,6.157532065E0,-6.377525952E0,3.373860973E-1,8.871407317E0
7.744121667E0,4.584523466E0,-7.747240312E0,-3.667332727E-1,9.009554992E0
7.754107792E0,3.257009046E0,-8.553466685E0,-1.667627074E0,9.303272560E0
7.764093792E0,2.469381496E0,-7.868467711E0,-2.752216288E0,8.693982032E0
7.774079792E0,1.724876577E0,-7.170976744E0,-2.922615846E0,7.933460157E0
7.784065792E0,1.272811378E0,-7.351868547E0,-2.827072635E0,7.978869570E0
7.794051792E0,1.214782441E0,-7.635600008E0,-2.518211594E0,8.131388166E0
7.804037792E0,1.328182172E0,-7.414081752E0,-1.949688278E0,7.780357349E0
7.814023792E0,1.044574671E0,-7.149719777E0,-1.374463468E0,7.355187214E0
7.824009792E0,1.925236684E-1,-7.327077522E0,-9.534902537E-1,7.391364829E0
7.833995792E0,-2.512186038E-1,-7.336504403E0,-1.024734045E0,7.411982697E0
7.843981792E0,-8.468814790E-1,-7.752054325E0,-1.745781543E0,7.991201893E0
7.853967792E0,-1.878666535E0,-8.612268040E0,-2.662641329E0,9.208159838E0
7.863953792E0,-3.076478017E0,-9.101264838E0,-3.716730589E0,1.030105941E1
7.873939792E0,-4.307202891E0,-9.067093125E0,-3.857225148E0,1.075371379E1
7.883925792E0,-6.023936636E0,-8.331478313E0,-2.179221021E0,1.050953604E1
7.893911792E0,-7.665220833E0,-7.240500138E0,5.634961724E-1,1.055926042E1
7.903897792E0,-8.811155233E0,-5.667944698E0,3.900447766E0,1.117924624E1
7.913883792E0,-9.290764326E0,-4.080382964E0,6.293107361E0,1.194031102E1
7.923869792E0,-8.963179332E0,-3.447644649E0,7.394003583E0,1.212007122E1
7.933855792E0,-8.395311781E0,-3.907914661E0,6.492438358E0,1.130950099E1
7.943841792E0,-8.442426891E0,-5.060270473E0,4.020307501E0,1.063220492E1
7.953827792E0,-9.008069576E0,-5.988483213E0,1.265210583E0,1.089073030E1
7.963813792E0,-1.000053971E1,-6.724708475E0,-1.052353806E0,1.209710490E1
7.973799792E0,-1.106953937E1,-7.939969218E0,-2.250344213E0,1.380731191E1
7.983785792E0,-1.214975516E1,-9.201555111E0,-2.240821145E0,1.540475401E1
7.993771792E0,-1.320465601E1,-1.040364442E1,-1.496129993E0,1.687711950E1
8.003757792E0,-1.472081213E1,-1.057572096E1,4.704318881E-2,1.812595919E1
8.013743792E0,-1.638120035E1,-9.329503884E0,2.929173791E0,1.907782553E1
8.023730792E0,-1.781650585E1,-7.659109908E0,5.775070367E0,2.023465550E1
8.033716792E0,-1.838474997E1,-6.038137769E0,9.106868225E0,2.138675263E1
8.043702792E0,-1.771585422E1,-3.699659351E0,1.342138189E1,2.253158809E1
8.053688792E0,-1.581979047E1,-1.515051144E0,1.709847362E1,2.334349911E1
8.063674792E0,-1.285597368E1,-7.999546498E-2,2.011638885E1,2.387365826E1
8.073660792E0,-9.215658011E0,9.938588458E-1,2.191563090E1,2.379518829E1
8.083646792E0,-6.263402921E0,1.091914460E0,2.346556405E1,2.431162663E1
8.093632792E0,-2.933040555E0,9.743956576E-1,2.414236289E1,2.433938905E1
8.103618792E0,-2.299386857E-1,8.607506360E-1,2.285123686E1,2.286859833E1
8.113604792E0,1.520863130E0,-1.251051696E0,2.027724341E1,2.037264724E1
8.123590792E0,1.698862607E0,-4.051864924E0,1.643939301E1,1.701638581E1
8.133576792E0,1.927196086E0,-6.376996779E0,1.238747254E1,1.406519280E1
8.143562792E0,2.531918052E0,-8.331390604E0,8.094216428E0,1.188860875E1
8.153548792E0,3.677449579E0,-9.229777282E0,4.565294897E0,1.093409080E1
8.163534792E0,5.010228832E0,-8.649385580E0,2.319683420E0,1.026134470E1
8.173520792E0,5.926848882E0,-7.007333643E0,1.678661354E0,9.329960686E0
8.183506792E0,6.691450682E0,-5.340327544E0,2.635455285E0,8.957691391E0
8.193492792E0,7.063011416E0,-4.010706958E0,4.585594676E0,9.327356490E0
8.203478792E0,7.019499360E0,-2.476054339E0,6.670328200E0,9.994873419E0
8.213464792E0,7.008917654E0,-1.266883617E0,8.017909679E0,1.072458840E1
8.223450792E0,6.283548918E0,-5.675496816E-1,8.560909606E0,1.063457911E1
8.233436792E0,5.590541596E0,-2.854612874E-1,8.119669942E0,9.862285914E0
8.243422792E0,4.863524530E0,-7.163187084E-1,6.814632220E0,8.402749290E0
8.253408792E0,4.097626403E0,-1.275473323E0,5.079560437E0,6.649760039E0
8.263394792E0,3.667782378E0,-1.978859745E0,3.390848304E0,5.372742845E0
8.273380792E0,3.451391837E0,-2.564483535E0,2.188775371E0,4.824875028E0
8.283366792E0,3.497388666E0,-2.675745524E0,1.426973219E0,4.628994941E0
8.293352792E0,3.626227678E0,-2.560438139E0,1.161361694E0,4.588478138E0
8.303338792E0,3.718612808E0,-2.245774176E0,1.472216050E0,4.586829293E0
8.313324792E0,3.846835523E0,-1.821367768E0,2.027567051E0,4.714504453E0
8.323310792E0,3.983109562E0,-1.217769637E0,2.223598464E0,4.721494975E0
8.333296792E0,4.028606454E0,-7.282684437E-1,2.100107024E0,4.601140554E0
8.343282792E0,3.677215983E0,-4.907367830E-1,1.664920397E0,4.066288222E0
8.353268792E0,3.096725463E0,-4.184983074E-1,9.576780295E-1,3.268332394E0
8.363255792E0,2.648596902E0,-6.404257230E-1,1.635495454E-1,2.729827670E0
8.373241792E0,2.299270059E0,-9.827335679E-1,-7.210061288E-1,2.602356223E0
8.383227792E0,1.888595546E0,-1.271498971E0,-1.520119364E0,2.737565643E0
8.393213792E0,1.428231832E0,-1.503133788E0,-2.110037935E0,2.958296374E0
8.403199792E0,1.196700803E0,-1.573529440E0,-2.444068900E0,3.143494950E0
8.413185792E0,1.198027098E0,-1.509377591E0,-2.456003652E0,3.121769302E0
8.423171792E0,1.496894955E0,-1.339652947E0,-2.126682034E0,2.925430053E0
8.433157792E0,1.904465181E0,-1.074151715E0,-1.550467583E0,2.680436393E0
8.443143792E0,2.090652807E0,-6.856063543E-1,-8.393526042E-1,2.354866881E0
8.453129792E0,2.224018733E0,-2.772458763E-1,-3.068285483E-1,2.262138006E0
8.463115792E0,2.082053892E0,-5.116723001E-2,1.371593070E-1,2.087194090E0
8.473101792E0,1.754934482E0,1.422982787E-1,4.051693600E-1,1.806711390E0
8.483087792E0,1.192801003E0,3.185083616E-1,4.729064298E-1,1.322067434E0
8.493073792E0,5.204306982E-1,4.094219669E-1,4.126005864E-1,7.802010655E-1
8.503059792E0,-9.825368822E-2,4.354673658E-1,3.055094165E-1,5.409451150E-1
8.513045792E0,-5.449508509E-1,3.355056328E-1,1.539384770E-1,6.582040065E-1
8.523031792E0,-9.366314153E-1,1.974771371E-1,1.188966984E-1,9.645786919E-1
8.533017792E0,-1.416875808E0,1.010356472E-1,1.975113434E-1,1.434139459E0
8.543003792E0,-1.659425476E0,2.369481817E-1,3.879189044E-1,1.720557593E0
8.552989792E0,-1.827672090E0,6.419399326E-1,8.084693652E-1,2.099069999E0
8.562975792E0,-2.204903015E0,1.286081634E0,1.571173743E0,2.997363876E0
8.572961792E0,-2.589200301E0,1.866185653E0,2.479666749E0,4.041701903E0
8.582947792E0,-2.878096023E0,2.158676390E0,3.446810836E0,4.982351394E0
8.592933792E0,-3.166214066E0,2.056708697E0,4.270752518E0,5.700376237E0
8.602919792E0,-3.233241284E0,1.831430388E0,4.772443036E0,6.048487332E0
8.612905792E0,-2.987508830E0,1.522726784E0,5.029419394E0,6.044746918E0
8.622891792E0,-2.551959969E0,1.078332401E0,5.048252106E0,5.758485024E0
8.632877792E0,-2.155773979E0,6.097005782E-1,4.882106981E0,5.371597976E0
8.642863792E0,-1.700917465E0,1.326493496E-1,4.533567320E0,4.843960024E0
8.652849792E0,-1.031881535E0,-3.163878688E-1,4.141224997E0,4.279559003E0
8.662835792E0,-3.661510362E-1,-7.472876090E-1,3.924206758E0,4.011471554E0
8.672821792E0,4.619735252E-1,-1.267389255E0,3.829143310E0,4.059807083E0
8.682807792E0,1.302543154E0,-1.786595108E0,3.983248433E0,4.555744596E0
8.692793792E0,2.240517529E0,-2.028663404E0,4.243316798E0,5.209715102E0
8.702779792E0,3.225587571E0,-2.104963136E0,4.236241082E0,5.725471464E0
8.712765792E0,3.982014670E0,-2.381922061E0,4.175060495E0,6.241884625E0
8.722752792E0,4.306633080E0,-3.124124931E0,3.765934324E0,6.518397533E0
8.732738792E0,4.983590671E0,-4.183721976E0,2.611907963E0,7.011545390E0
8.742724792E0,5.451280800E0,-4.718422658E0,1.742862613E0,7.417381265E0
8.752710333E0,5.520963823E0,-4.758469653E0,8.849725807E-1,7.342155776E0
8.762696333E0,5.616345944E0,-4.816086069E0,5.463275778E-1,7.418658950E0
8.772682333E0,5.789757403E0,-4.693493931E0,7.259856176E-1,7.488473221E0
8.782668333E0,6.234849797E0,-4.424420854E0,1.054755258E0,7.717600699E0
8.792654333E0,6.658389355E0,-4.306972511E0,1.437761332E0,8.059238094E0
8.802640333E0,6.787514003E0,-4.086510846E0,1.920298710E0,8.152144771E0
8.812626333E0,6.627956352E0,-3.960749516E0,2.171110933E0,8.020664861E0
8.822612333E0,6.110870115E0,-4.542969643E0,2.258532069E0,7.942435007E0
8.832598333E0,5.789615316E0,-5.842554837E0,1.843285618E0,8.429281962E0
8.842584333E0,6.011760979E0,-7.056463119E0,8.326821005E-1,9.307432583E0
8.852570333E0,6.429950919E0,-7.430942198E0,-4.894762695E-1,9.838839250E0
8.862556333E0,6.416602895E0,-7.696054956E0,-1.730853601E0,1.016847623E1
8.872542333E0,6.055826765E0,-8.059614944E0,-2.580855739E0,1.040630805E1
8.882528333E0,5.323516799E0,-8.255426502E0,-3.284997913E0,1.035775599E1
8.892514333E0,4.427005323E0,-8.359993429E0,-3.679268063E0,1.015011723E1
8.902500333E0,2.647705202E0,-8.737573287E0,-3.357685236E0,9.727773636E0
8.912486333E0,4.756774253E-1,-9.120972878E0,-3.205403275E0,9.679515763E0
8.922472333E0,-1.536478704E0,-9.496009782E0,-3.267055732E0,1.015916442E1
8.932458333E0,-3.242181677E0,-9.969916670E0,-3.581342989E0,1.107867312E1
8.942444333E0,-4.011920840E0,-9.463226198E0,-4.471127828E0,1.120888678E1
8.952430333E0,-3.390248964E0,-8.931338904E0,-5.277638376E0,1.091403085E1
8.962416333E0,-2.012142096E0,-9.184615143E0,-5.551559964E0,1.091905166E1
8.972402333E0,-1.510974319E0,-9.884856055E0,-5.031862360E0,1.119433167E1
8.982388333E0,-2.096349018E0,-9.967091296E0,-3.357692837E0,1.072435030E1
8.992374333E0,-3.668954160E0,-9.265994352E0,-1.049634851E0,1.002105829E1
9.002360333E0,-5.657754171E0,-7.957920755E0,1.259369214E0,9.845034069E0
9.012346333E0,-7.221141762E0,-6.902594808E0,2.968867030E0,1.042136627E1
9.022332333E0,-8.355952418E0,-6.169744560E0,4.117627974E0,1.117329624E1
9.032318333E0,-9.300616300E0,-5.720157411E0,3.995820239E0,1.162704794E1
9.042304333E0,-9.807569312E0,-5.711860211E0,2.301564653E0,1.158062877E1
9.052290333E0,-1.007561328E1,-6.313039350E0,7.399651408E-2,1.189024492E1
9.062276333E0,-1.057306866E1,-7.274942577E0,-1.863853784E0,1.296875173E1
9.072262333E0,-1.062213849E1,-8.029137502E0,-3.341134692E0,1.372807547E1
9.082249333E0,-1.049290684E1,-8.762008216E0,-3.973422187E0,1.423593923E1
9.092235333E0,-1.075184143E1,-9.250421462E0,-3.945343857E0,1.472202872E1
9.102221333E0,-1.122239494E1,-9.241200988E0,-3.458541520E0,1.494334144E1
9.112207333E0,-1.222765995E1,-8.400042763E0,-1.272487442E0,1.488944628E1
9.122193333E0,-1.351405324E1,-6.591256303E0,1.574291478E0,1.511795913E1
9.132179333E0,-1.426569176E1,-4.286383003E0,4.346571609E0,1.551694962E1
9.142165333E0,-1.401500876E1,-1.524081730E0,7.534278286E0,1.598463778E1
9.152151333E0,-1.219241293E1,5.546228400E-1,1.021043838E1,1.591274934E1
9.162137333E0,-1.064281659E1,1.567151005E0,1.244544768E1,1.645037006E1
9.172123333E0,-9.779240137E0,7.381229755E-1,1.437715957E1,1.740347898E1
9.182109333E0,-7.754366899E0,2.851889534E-1,1.472165413E1,1.664147347E1
9.192095333E0,-6.361785833E0,4.110764366E-1,1.424674795E1,1.560804697E1
9.202081333E0,-5.300480524E0,3.742058681E-1,1.314669256E1,1.417993826E1
9.212067333E0,-4.099273271E0,9.142074895E-1,1.132484167E1,1.207857009E1
9.222053333E0,-3.868202418E0,4.172675416E-1,1.011495101E1,1.083740449E1
9.232039333E0,-3.974492520E0,-7.969765167E-1,9.041915599E0,9.908985824E0
9.242025333E0,-3.767232114E0,-1.879932019E0,8.276730832E0,9.286035509E0
9.252011333E0,-3.577694911E0,-2.419328453E0,7.965524474E0,9.061050225E0
9.261997333E0,-2.554557887E0,-2.557173639E0,8.008731889E0,8.786619912E0
9.271983333E0,-1.596489848E0,-2.637037541E0,8.700265127E0,9.230241607E0
9.281969333E0,-5.810056597E-1,-2.678622647E0,9.637995381E0,1.002015678E1
9.291955333E0,8.566191396E-1,-2.669007193E0,1.046776381E1,1.083658041E1
9.301941333E0,2.556636280E0,-2.349981353E0,1.108415975E1,1.161539490E1
9.311927333E0,4.206844205E0,-2.072221945E0,1.108882115E1,1.203966762E1
9.321913333E0,5.534455104E0,-1.848222568E0,1.047087453E1,1.198688172E1
9.331899333E0,6.152622743E0,-1.806637901E0,9.595598974E0,1.154098032E1
9.341885333E0,6.195245436E0,-2.008879057E0,8.410835554E0,1.063761326E1
9.351871333E0,5.947867284E0,-2.208962883E0,6.977826839E0,9.431156326E0
9.361857333E0,5.382862530E0,-2.284457162E0,5.535633318E0,8.052154356E0
9.371843333E0,4.640150952E0,-2.229930268E0,4.340630254E0,6.733844433E0
9.381829333E0,3.781820040E0,-2.109914266E0,3.393826876E0,5.501996173E0
9.391815333E0,3.134371299E0,-1.998198095E0,2.830968634E0,4.672415058E0
9.401801333E0,2.930401414E0,-1.794134654E0,2.608311925E0,4.313868647E0
9.411787333E0,3.096845623E0,-1.443972098E0,2.537369412E0,4.256025348E0
9.421773333E0,3.292086200E0,-1.044304603E0,2.445162914E0,4.231692962E0
9.431759333E0,3.481916349E0,-7.001822935E-1,2.201954995E0,4.178827887E0
9.441745333E0,3.626504251E0,-4.332803975E-1,1.770860835E0,4.058966997E0
9.451732333E0,3.491294113E0,-3.151675915E-1,1.190702437E0,3.702193605E0
9.461718333E0,3.274085839E0,-3.972002629E-1,4.969595361E-1,3.335322310E0
9.471704333E0,2.764482284E0,-7.544921096E-1,-3.054486054E-1,2.881825722E0
9.481690333E0,2.092038158E0,-1.032380303E0,-1.196610464E0,2.621890415E0
9.491676333E0,1.468969676E0,-9.705326215E-1,-1.960738639E0,2.635204259E0
9.501662333E0,9.225649148E-1,-9.798327642E-1,-2.334810752E0,2.694909927E0
9.511648333E0,6.098227850E-1,-8.643212382E-1,-2.425712151E0,2.646320931E0
9.521634333E0,4.912576237E-1,-6.215262794E-1,-2.064752419E0,2.211522444E0
9.531620333E0,4.741615346E-1,-4.891490447E-1,-1.469912832E0,1.620104837E0
9.541606333E0,5.832851967E-1,-3.166852363E-1,-9.858440673E-1,1.188444229E0
9.551592333E0,1.008464606E0,-5.947590418E-2,-6.061141884E-1,1.178097048E0
9.561578333E0,1.410795727E0,1.361644763E-1,-3.659725499E-1,1.463837852E0
9.571564333E0,1.449590834E0,1.306266880E-1,-2.222246003E-1,1.472331719E0
9.581550333E0,1.047629549E0,3.752154630E-2,-3.122939408E-1,1.093829531E0
9.591536333E0,5.735495827E-1,-2.442425832E-2,-5.907301641E-1,8.237219160E-1
9.601522333E0,7.291770279E-3,-1.026833561E-1,-7.675797862E-1,7.744519157E-1
9.611508333E0,-4.033611086E-1,-2.090932523E-1,-6.734355211E-1,8.123641875E-1
9.621494333E0,-6.695386443E-1,-2.426612403E-1,-3.635471249E-1,7.995830074E-1
9.631480333E0,-8.429693994E-1,-1.894823854E-1,7.840180635E-2,8.675527799E-1
9.641466333E0,-8.862770945E-1,-9.108412474E-2,5.441360414E-1,1.043967163E0
9.651452333E0,-8.812736320E-1,1.451270520E-1,9.564992309E-1,1.308661856E0
9.661438333E0,-7.317319688E-1,4.230046103E-1,1.197635481E0,1.465842870E0
9.671424333E0,-5.043922243E-1,5.963714481E-1,1.442107567E0,1.640044102E0
9.681410333E0,-2.650066307E-1,7.146790760E-1,1.730068320E0,1.890537249E0
9.691396333E0,-2.282522026E-1,7.363028104E-1,1.945497286E0,2.092653958E0
9.701382333E0,-4.889862728E-1,6.401797745E-1,2.036560653E0,2.190095207E0
9.711368333E0,-7.438339511E-1,5.376811539E-1,2.013829603E0,2.213119888E0
9.721354333E0,-9.738575676E-1,3.724627400E-1,2.070174542E0,2.317919259E0
9.731340333E0,-1.041188110E0,2.094433178E-1,2.319473505E0,2.551057922E0
9.741326333E0,-9.296742520E-1,1.472663654E-1,2.773910919E0,2.929259870E0
9.751312542E0,-7.432863593E-1,3.194654777E-1,3.336883181E0,3.433558237E0
9.761298542E0,-3.554816218E-1,4.775777704E-1,3.814962058E0,3.861137554E0
9.771284542E0,2.272799568E-1,3.759722389E-1,4.108958892E0,4.132378791E0
9.781270542E0,9.027216576E-1,1.697401388E-1,4.250759134E0,4.348870120E0
9.791256542E0,1.341752390E0,-1.512850106E-2,4.040245337E0,4.257242151E0
9.801242542E0,1.438076789E0,-3.769441192E-1,3.711153515E0,3.997850939E0
9.811228542E0,1.409850086E0,-5.403151783E-1,3.502747055E0,3.814296093E0
9.821215542E0,1.463821495E0,-5.303455295E-1,3.472839131E0,3.805870647E0
9.831201542E0,1.713505205E0,-5.493788011E-1,3.471447494E0,3.910097807E0
9.841187542E0,1.940286832E0,-8.110216749E-1,3.488695026E0,4.073507350E0
9.851173542E0,2.025020296E0,-1.332610268E0,3.357440822E0,4.141131029E0
9.861159542E0,2.044621625E0,-1.866717457E0,3.070623785E0,4.134469988E0
9.871145542E0,2.151244287E0,-2.372619725E0,3.002850462E0,4.390249109E0
9.881131542E0,2.289193699E0,-2.732909074E0,2.970728783E0,4.640520369E0
9.891117542E0,2.858136553E0,-3.014849826E0,2.775811849E0,4.996338204E0
9.901103542E0,3.769840264E0,-2.828908953E0,2.881433029E0,5.524226442E0
9.911089542E0,4.612836853E0,-2.225531554E0,3.237653593E0,6.059179426E0
9.921075542E0,5.409408304E0,-2.042535046E0,3.605048186E0,6.813957737E0
9.931061542E0,6.100718179E0,-2.350908136E0,3.573400716E0,7.450820360E0
9.941047542E0,6.468995701E0,-2.848161203E0,3.149288131E0,7.738083959E0
9.951033542E0,6.306672317E0,-3.600605471E0,2.452238629E0,7.664982046E0
9.961019542E0,5.930102273E0,-4.213363851E0,1.773395603E0,7.487555000E0
9.971005542E0,4.943242545E0,-4.803292946E0,1.215818567E0,6.998963121E0
9.980991542E0,3.669378083E0,-5.913794973E0,4.779935074E-1,6.976086603E0
9.990977542E0,2.614075818E0,-6.454751884E0,-2.127357388E-1,6.967242694E0
1.000096354E1,1.531061259E0,-6.399651816E0,-8.588612545E-1,6.636063186E0
1.001094954E1,9.578534460E-1,-6.343769976E0,-1.402001223E0,6.567077597E0
1.002093554E1,1.066029274E0,-6.522211211E0,-2.035665445E0,6.915171097E0
1.003092154E1,1.867673185E0,-6.598238463E0,-2.809535081E0,7.410697761E0
1.004090754E1,2.879706346E0,-6.805034015E0,-3.366787012E0,8.120126315E0
1.005089354E1,3.216483749E0,-7.073961496E0,-3.790164601E0,8.645926594E0
1.006087954E1,3.180714576E0,-7.628323148E0,-4.072588626E0,9.213806889E0
1.007086554E1,2.611924335E0,-7.757636077E0,-4.331339028E0,9.260861947E0
1.008085154E1,1.704130071E0,-7.565581940E0,-4.310451604E0,8.872546558E0
1.009083754E1,1.183917328E0,-7.416831113E0,-3.987296460E0,8.503503810E0
1.010082354E1,1.318234888E0,-7.112895182E0,-3.488117906E0,8.031063915E0
1.011080954E1,1.299221497E0,-6.574954265E0,-2.571841087E0,7.178604785E0
1.012079554E1,5.562187278E-1,-5.525096051E0,-9.900862223E-1,5.640597164E0
1.013078154E1,-8.120320737E-2,-4.784144484E0,-1.230885673E-1,4.786416531E0
1.014076754E1,-7.434565133E-1,-4.959726430E0,4.466723120E-1,5.034990566E0
1.015075354E1,-1.574739960E0,-5.289486589E0,1.289544940E-1,5.520426032E0
1.016073954E1,-2.643863581E0,-5.792562897E0,-9.710167710E-1,6.441014914E0
1.017072554E1,-4.090640150E0,-6.459344287E0,-1.946869043E0,7.889661876E0
1.018071154E1,-5.415848427E0,-6.844875773E0,-2.927885649E0,9.206315925E0
1.019069854E1,-5.980686536E0,-7.021835908E0,-3.740718791E0,9.953279260E0
1.020068454E1,-6.305798158E0,-7.368701511E0,-3.889773089E0,1.044945870E1
1.021067054E1,-6.909510895E0,-7.789619762E0,-3.967836927E0,1.114285631E1
1.022065654E1,-7.546088492E0,-8.114299859E0,-3.509694716E0,1.162339325E1
1.023064254E1,-8.220102888E0,-8.365571088E0,-2.954289921E0,1.209465585E1
1.024062854E1,-8.981754182E0,-8.529493686E0,-2.411970025E0,1.261910338E1
1.025061454E1,-1.012056433E1,-8.512064306E0,-1.018646947E0,1.326343480E1
1.026060054E1,-1.055090070E1,-8.194763394E0,6.155317140E-1,1.337365066E1
1.027058654E1,-1.062726767E1,-8.254243611E0,1.914644453E0,1.359180706E1
1.028057254E1,-1.114185539E1,-8.131039268E0,3.075257118E0,1.413194776E1
1.029055854E1,-1.175916232E1,-7.537205987E0,4.190427563E0,1.458242284E1
1.030054454E1,-1.200154812E1,-7.127178175E0,4.588187916E0,1.469303557E1
1.031053054E1,-1.220481137E1,-6.937509702E0,4.460270718E0,1.473025717E1
1.032051654E1,-1.252879740E1,-7.080135571E0,4.438710864E0,1.505992159E1
1.033050254E1,-1.295453551E1,-6.445815584E0,5.213275734E0,1.538007714E1
1.034048854E1,-1.319392988E1,-4.892498361E0,6.462034591E0,1.548464455E1
1.035047454E1,-1.287752067E1,-3.717815248E0,7.980928379E0,1.559961238E1
1.036046054E1,-1.143244798E1,-2.702556762E0,9.667132641E0,1.521374817E1
1.037044654E1,-9.968417444E0,-1.216817710E0,1.201155622E1,1.565654733E1
1.038043254E1,-7.744044809E0,-1.410283365E-1,1.449892667E1,1.643803497E1
1.039041854E1,-5.649393822E0,9.154619365E-1,1.570734734E1,1.671749029E1
1.040040454E1,-3.783172793E0,1.619631373E0,1.622352317E1,1.673733271E1
1.041039054E1,-2.543606052E0,1.818893081E0,1.618776160E1,1.648702306E1
1.042037654E1,-1.557835659E0,1.729040087E0,1.492110734E1,1.510151899E1
1.043036254E1,-9.403495136E-1,6.159484012E-1,1.333243288E1,1.337973901E1
1.044034854E1,-5.152953811E-1,-5.267874257E-1,1.190452644E1,1.192731253E1
1.045033454E1,-3.547818562E-1,-1.284487829E0,9.980874352E0,1.006944050E1
1.046032054E1,2.044774237E-1,-2.029259820E0,9.162091084E0,9.386352830E0
1.047030654E1,2.745659512E-1,-3.311955916E0,8.363128706E0,8.999242202E0
1.048029254E1,1.761499443E0,-3.048317826E0,7.108933693E0,7.932972968E0
1.049027854E1,2.610758400E0,-3.613338076E0,7.104992085E0,8.387680490E0
1.050026454E1,3.716311052E0,-3.288317670E0,6.915318350E0,8.511499798E0
1.051025054E1,5.210649165E0,-2.654853423E0,6.716395488E0,8.905564540E0
1.052023654E1,5.918156412E0,-2.478435325E0,6.819326364E0,9.363248851E0
1.053022254E1,6.118776720E0,-1.869073154E0,6.654236662E0,9.231019909E0
1.054020854E1,6.421520988E0,-1.353700444E0,6.324798685E0,9.114357635E0
1.055019554E1,6.546981186E0,-1.313724785E0,5.960006104E0,8.950447375E0
1.056018054E1,6.507908921E0,-1.335851672E0,5.384820762E0,8.551822780E0
1.057016754E1,6.452355110E0,-1.444353044E0,4.572313895E0,8.038973599E0
1.058015354E1,6.351879480E0,-1.585511116E0,3.666451551E0,7.503538192E0
1.059013954E1,6.173580918E0,-1.664061149E0,2.773767663E0,6.969647617E0
1.060012554E1,5.727757037E0,-1.559754131E0,1.979072583E0,6.257536409E0
1.061011154E1,5.305319679E0,-1.422504777E0,1.327036702E0,5.650748902E0
1.062009754E1,4.964128214E0,-1.311319094E0,7.736217141E-1,5.192361433E0
1.063008354E1,4.695318847E0,-1.202272323E0,3.104555762E-1,4.856733519E0
1.064006954E1,4.425148832E0,-1.080182752E0,-1.396005195E-1,4.557216834E0
1.065005554E1,4.053623766E0,-9.015026593E-1,-5.409101325E-1,4.187738824E0
1.066004154E1,3.625096534E0,-6.372741468E-1,-9.596871328E-1,3.803740608E0
1.067002754E1,3.320715338E0,-4.266972366E-1,-1.158480771E0,3.542781193E0
1.068001354E1,2.926081198E0,-2.670473821E-1,-1.169168311E0,3.162312449E0
1.068999954E1,2.719253194E0,-2.216260647E-1,-1.107801198E0,2.944601763E0
1.069998554E1,2.262223417E0,-1.672063575E-1,-1.038527480E0,2.494825060E0
1.070997154E1,1.691038009E0,-1.793372835E-1,-9.384167165E-1,1.942266033E0
1.071995754E1,1.321688400E0,-2.656680239E-1,-8.643710858E-1,1.601429705E0
1.072994354E1,1.043424085E0,-2.477270852E-1,-8.677729958E-1,1.379540685E0
1.073992954E1,9.589971614E-1,-1.354602158E-1,-7.959797126E-1,1.253638197E0
1.074991529E1,1.093013590E0,-2.740977354E-2,-6.067965585E-1,1.250452745E0
1.075990129E1,1.370879417E0,-1.498384825E-1,-4.371431047E-1,1.446670675E0
1.076988729E1,1.621425007E0,-3.092555083E-1,-5.292560470E-1,1.733427237E0
1.077987329E1,1.825259968E0,-3.711648774E-1,-6.579228580E-1,1.975398644E0
1.078985929E1,1.746793550E0,-3.204039923E-1,-6.191879779E-1,1.880781799E0
1.079984529E1,1.605212724E0,-2.397666858E-1,-4.638602024E-1,1.688005403E0
1.080983129E1,1.493183288E0,-1.917722281E-1,-3.354073995E-1,1.542358922E0
1.081981729E1,1.241357305E0,-1.339307303E-1,-3.201637083E-1,1.288957020E0
1.082980329E1,1.009361861E0,-1.030886047E-2,-1.434117347E-1,1.019551158E0
1.083978929E1,8.828073567E-1,1.910746187E-1,1.724308813E-1,9.195600838E-1
1.084977529E1,8.767174816E-1,3.317099858E-1,5.078786266E-1,1.066117140E0
1.085976129E1,9.131142063E-1,3.565549148E-1,7.763757527E-1,1.250467221E0
1.086974729E1,9.234338111E-1,2.746659386E-1,7.618723190E-1,1.228259261E0
1.087973329E1,9.527084810E-1,1.668313683E-1,7.045830542E-1,1.196630033E0
1.088971929E1,9.369394174E-1,9.135086741E-2,7.443634164E-1,1.200115556E0
1.089970529E1,8.463151762E-1,9.095855579E-2,7.758436561E-1,1.151718809E0
1.090969129E1,6.350501584E-1,7.046837725E-2,7.385062605E-1,9.765479981E-1
1.091967729E1,1.337775698E-1,4.910469778E-2,6.474797308E-1,6.629764033E-1
1.092966329E1,-5.805114238E-1,1.208341733E-1,5.538049972E-1,8.113534282E-1
1.093964929E1,-1.394518979E0,2.321457173E-1,6.409758729E-1,1.552232227E0
1.094963629E1,-2.117664020E0,3.989921422E-1,9.061085111E-1,2.337675825E0
1.095962229E1,-2.796282367E0,6.114848195E-1,1.415827841E0,3.193380221E0
1.096960829E1,-3.119378161E0,7.587833811E-1,1.913224164E0,3.737204709E0
1.097959429E1,-3.349612570E0,7.863842855E-1,2.284500139E0,4.130041827E0
1.098958029E1,-3.400917209E0,8.117341581E-1,2.546029138E0,4.325206883E0
1.099956629E1,-3.440425384E0,9.088229348E-1,2.816681548E0,4.538301542E0
1.100955229E1,-3.407479540E0,1.109597317E0,3.235615253E0,4.828180722E0
1.101953829E1,-3.538081487E0,1.327671563E0,3.897442882E0,5.428700895E0
1.102952429E1,-3.644212836E0,1.384473609E0,4.550751117E0,5.992194097E0
1.103951029E1,-3.573737515E0,1.334439131E0,5.048005353E0,6.327296869E0
1.104949629E1,-3.046551967E0,1.267027897E0,5.532949446E0,6.442077937E0
1.105948229E1,-2.220408808E0,1.038780811E0,5.965193753E0,6.449249364E0
1.106946829E1,-9.908302074E-1,6.204030293E-1,6.337546200E0,6.444465553E0
1.107945429E1,4.657851789E-1,8.582689315E-2,6.441505017E0,6.458893788E0
1.108944029E1,1.709709777E0,-3.302469394E-1,6.213717960E0,6.453097043E0
1.109942629E1,2.544405366E0,-6.288643889E-1,5.837071318E0,6.398505346E0
1.110941229E1,2.995025426E0,-9.935410497E-1,5.379460035E0,6.236657068E0
1.111939829E1,3.307752353E0,-1.507652808E0,5.021363100E0,6.199058799E0
1.112938429E1,3.583813730E0,-1.909718174E0,4.911226700E0,6.372667577E0
1.113937029E1,3.869290293E0,-2.419785998E0,4.927141652E0,6.715913676E0
1.114935629E1,4.035185156E0,-3.216864987E0,4.827444286E0,7.066481297E0
1.115934229E1,4.244314333E0,-4.285784248E0,4.530392282E0,7.543646665E0
1.116932829E1,4.770173147E0,-5.473641722E0,3.990378528E0,8.284831100E0
1.117931429E1,5.401674192E0,-6.730714150E0,3.000934330E0,9.137078521E0
1.118930029E1,6.044332309E0,-7.717693162E0,1.523332994E0,9.920548584E0
1.119928629E1,6.524859415E0,-8.489794015E0,2.482517266E-1,1.071036982E1
1.120927229E1,7.035414897E0,-8.689244295E0,-7.748426127E-1,1.120715888E1
1.121925829E1,7.194196622E0,-8.582436131E0,-1.968598466E0,1.137057848E1
1.122924429E1,6.816157758E0,-8.836353809E0,-3.290242281E0,1.163472602E1
1.123923029E1,6.047209724E0,-9.372164585E0,-4.375354528E0,1.198123290E1
1.124921629E1,5.071555599E0,-9.936308044E0,-5.186018938E0,1.230226346E1
1.125920229E1,4.108910944E0,-1.044839784E1,-5.843108568E0,1.265678017E1
1.126918829E1,2.980694193E0,-1.074609479E1,-5.930397558E0,1.263062573E1
1.127917429E1,2.037447676E0,-1.057448369E1,-5.340773102E0,1.202059714E1
1.128916029E1,1.405696955E0,-9.548213723E0,-4.584219410E0,1.068454196E1
1.129914629E1,2.911755520E-1,-9.320902630E0,-4.119821849E0,1.019494684E1
1.130913229E1,-4.960660815E-1,-9.536445032E0,-4.123700307E0,1.040167148E1
1.131911829E1,-4.968811834E-1,-9.284297306E0,-4.637553619E0,1.038999379E1
1.132910529E1,-2.402954203E-1,-9.158800271E0,-4.824550499E0,1.035459568E1
1.133909129E1,-3.805870807E-1,-9.390044786E0,-5.190727701E0,1.073598816E1
1.134907729E1,-2.268450701E-1,-9.622579781E0,-5.581838601E0,1.112665370E1
1.135906329E1,-1.880148804E-1,-9.546644331E0,-5.981320374E0,1.126720733E1
1.136904929E1,-1.088414755E0,-9.481624462E0,-5.542015554E0,1.103629401E1
1.137903529E1,-2.106247770E0,-9.351581801E0,-3.866913400E0,1.033641045E1
1.138902129E1,-2.847013394E0,-8.459698981E0,-1.601297429E0,9.068414722E0
1.139900729E1,-3.528763071E0,-7.364697338E0,6.197476295E-1,8.189934237E0
1.140899329E1,-4.384713582E0,-7.032659104E0,2.298093746E0,8.600304770E0
1.141897929E1,-4.711043179E0,-7.105473896E0,2.556026123E0,8.900278459E0
1.142896529E1,-4.914247956E0,-7.090575775E0,1.283229947E0,8.721970929E0
1.143895129E1,-6.124846714E0,-7.456289293E0,-4.646829057E-1,9.660534535E0
1.144893729E1,-7.708566243E0,-8.327140848E0,-1.723677313E0,1.147755774E1
1.145892329E1,-9.222941887E0,-9.049395942E0,-2.533991475E0,1.316720687E1
1.146890929E1,-1.096949117E1,-1.001920168E1,-2.203209808E0,1.501893046E1
1.147889529E1,-1.286701556E1,-1.110671363E1,-1.248017137E0,1.704337771E1
1.148888129E1,-1.467227323E1,-1.171576195E1,2.581387836E-1,1.877768131E1
1.149886729E1,-1.678454246E1,-1.094485685E1,3.369659164E0,2.031908856E1
1.150885329E1,-1.867895028E1,-9.453680034E0,6.893997062E0,2.204092660E1
1.151883929E1,-1.963154474E1,-7.170252274E0,1.062894933E1,2.344748666E1
1.152882529E1,-1.915590065E1,-5.021729136E0,1.356454512E1,2.400339929E1
1.153881129E1,-1.748611127E1,-4.086043653E0,1.548435792E1,2.371128804E1
1.154879729E1,-1.503355865E1,-3.551660768E0,1.640787886E1,2.253532047E1
1.155878329E1,-1.131504875E1,-2.662899191E0,1.601370519E1,1.978787796E1
1.156876929E1,-7.126699873E0,-1.031871449E0,1.633492900E1,1.785173703E1
1.157875529E1,-5.244771177E0,6.939488693E-1,1.575322343E1,1.661785901E1
1.158874129E1,-6.468458927E0,4.138687744E-1,1.462543235E1,1.599735977E1
1.159872729E1,-7.780292283E0,-9.325270354E-1,1.410222349E1,1.613304876E1
1.160871329E1,-8.209229990E0,-9.884261978E-1,1.303180530E1,1.543361243E1
1.161869929E1,-7.743045520E0,-8.713063221E-1,1.237813921E1,1.462642332E1
1.162868529E1,-6.035291929E0,-6.798183417E-1,1.238748540E1,1.379625660E1
1.163867129E1,-3.808369030E0,-5.813426055E-2,1.269698438E1,1.325595966E1
1.164865729E1,-1.595376977E0,6.114395401E-1,1.347227605E1,1.358018071E1
1.165864329E1,2.399826673E-1,6.598948315E-1,1.427412111E1,1.429138154E1
1.166862929E1,1.536487036E0,2.238034947E-1,1.389779665E1,1.398426373E1
1.167861529E1,2.822246928E0,-7.153407615E-1,1.279641745E1,1.312345570E1
1.168860129E1,3.437129308E0,-2.011084920E0,1.126148358E1,1.194484545E1
1.169858729E1,3.690947292E0,-2.591395053E0,9.273284660E0,1.031175197E1
1.170857329E1,4.583464535E0,-2.912176812E0,7.210354233E0,9.026523644E0
1.171856029E1,5.490130286E0,-3.175392733E0,5.612190912E0,8.468845045E0
1.172854629E1,6.318995908E0,-3.333210545E0,4.405341389E0,8.393273175E0
1.173853229E1,7.081859331E0,-3.424306072E0,3.658140904E0,8.675286654E0
1.174851829E1,8.174168331E0,-3.310331560E0,3.463488264E0,9.474759833E0
1.175850383E1,9.133544392E0,-3.032800193E0,3.458142155E0,1.022635113E1
1.176848983E1,9.606113437E0,-2.879632087E0,3.671647387E0,1.067945181E1
1.177847583E1,9.601126932E0,-2.590796298E0,3.769318108E0,1.063492467E1
1.178846183E1,9.108972638E0,-2.382319086E0,3.563182706E0,1.006703023E1
1.179844783E1,8.331039187E0,-2.139406599E0,2.966421724E0,9.098512646E0
1.180843383E1,7.386807414E0,-1.812974237E0,2.055208009E0,7.878812050E0
1.181841983E1,6.314750830E0,-1.593589629E0,1.129214287E0,6.609896433E0
1.182840583E1,5.365561788E0,-1.549393303E0,3.791732240E-1,5.597646402E0
1.183839183E1,4.585487671E0,-1.640675502E0,-1.370610738E-1,4.872093906E0
1.184837783E1,4.029998091E0,-1.748733363E0,-5.897566026E-1,4.432467241E0
1.185836383E1,3.736992946E0,-1.846054567E0,-9.302066410E-1,4.270634395E0
1.186834983E1,3.549550215E0,-1.891760644E0,-1.092453427E0,4.167915493E0
1.187833583E1,3.456765136E0,-1.848639913E0,-1.268044728E0,4.120028175E0
1.188832183E1,3.411331393E0,-1.608651472E0,-1.451277171E0,4.041181369E0
1.189830783E1,3.375588533E0,-1.358027384E0,-1.649340491E0,3.994891785E0
1.190829383E1,3.153602207E0,-1.123898145E0,-1.841292887E0,3.820826273E0
1.191827983E1,2.829060688E0,-7.982092559E-1,-1.968844049E0,3.537947043E0
1.192826583E1,2.416900105E0,-4.194703339E-1,-1.827819148E0,3.059131300E0
1.193825183E1,2.005641308E0,-1.264296663E-1,-1.444457563E0,2.474881647E0
1.194823783E1,1.643119785E0,6.038631566E-2,-1.062475922E0,1.957637407E0
1.195822383E1,1.476732439E0,2.278643860E-1,-8.457465345E-1,1.716958962E0
1.196820983E1,1.410742810E0,4.067869192E-1,-7.330391139E-1,1.641041504E0
1.197819583E1,1.571427951E0,4.411067129E-1,-6.724795014E-1,1.765273241E0
1.198818183E1,1.829589977E0,3.524885783E-1,-7.744087493E-1,2.017760291E0
1.199816783E1,1.909516591E0,2.019430943E-1,-9.955001593E-1,2.162881225E0
1.200815383E1,1.842951157E0,6.813782327E-2,-1.252266017E0,2.229188621E0
1.201813983E1,1.579466703E0,-1.349142686E-2,-1.361338808E0,2.085219517E0
1.202812583E1,1.230752356E0,3.000988416E-2,-1.307626285E0,1.795978412E0
1.203811183E1,7.336396229E-1,1.225276731E-1,-1.106045864E0,1.332883183E0
1.204809783E1,2.180269207E-1,1.576133059E-1,-9.103465730E-1,9.492673887E-1
1.205808383E1,-2.183843135E-1,2.138939260E-1,-8.118244976E-1,8.674683480E-1
1.206806983E1,-5.826913023E-1,3.197319645E-1,-6.557219660E-1,9.336642757E-1
1.207805583E1,-8.245020651E-1,4.043342315E-1,-3.830926126E-1,9.950124501E-1
1.208804183E1,-1.060935984E0,5.240618192E-1,-1.494133168E-1,1.192707128E0
1.209802783E1,-1.332725751E0,4.946229156E-1,-3.654042006E-2,1.422021433E0
1.210801383E1,-1.870325482E0,3.972767884E-1,-8.196626902E-3,1.912070459E0
1.211799983E1,-2.620602188E0,4.150961050E-1,-3.911787271E-4,2.653273592E0
1.212798683E1,-3.411392204E0,5.274048185E-1,-6.313823462E-2,3.452497509E0
1.213797283E1,-4.446925617E0,6.032591392E-1,1.277967453E-2,4.487675607E0
1.214795883E1,-5.700775060E0,8.493077812E-1,3.214524347E-1,5.772650315E0
1.215794483E1,-6.593596943E0,1.097685004E0,6.229220098E-1,6.713305061E0
1.216793083E1,-7.010581187E0,1.254600810E0,9.706980246E-1,7.187804006E0
1.217791683E1,-7.084843165E0,1.322207340E0,1.502392361E0,7.362093298E0
1.218790283E1,-6.856085470E0,1.406902944E0,2.462078324E0,7.419374202E0
1.219788883E1,-6.166901643E0,1.465278182E0,3.505377132E0,7.243299308E0
1.220787483E1,-4.967317286E0,1.302024360E0,4.540230222E0,6.854429146E0
1.221786083E1,-3.420710034E0,8.293051873E-1,5.245006235E0,6.316573013E0
1.222784683E1,-1.679296508E0,4.809434277E-1,5.619338549E0,5.884582319E0
1.223783283E1,2.179192954E-1,4.061081305E-2,5.706514687E0,5.710818499E0
1.224781883E1,1.674946033E0,-6.185991633E-1,5.949174137E0,6.211343015E0
1.225780483E1,2.458346046E0,-1.029943475E0,6.256705520E0,6.800780309E0
1.226779083E1,3.199053199E0,-1.287132964E0,6.467476594E0,7.329318258E0
1.227777683E1,4.050142919E0,-1.259214409E0,6.768824548E0,7.987882344E0
1.228776283E1,4.672396592E0,-1.429767603E0,7.503593268E0,8.954297138E0
1.229774883E1,5.226212699E0,-1.406755301E0,8.224262597E0,9.845341788E0
1.230773483E1,5.835446377E0,-9.398413906E-1,8.833250107E0,1.062836035E1
1.231772083E1,5.960178012E0,-6.465052924E-1,9.367835891E0,1.112196207E1
1.232770683E1,6.143336779E0,-7.439368621E-1,9.659735329E0,1.147190113E1
1.233769283E1,6.170778347E0,-1.352366840E0,9.558200768E0,1.145716385E1
1.234767883E1,5.607206746E0,-2.887242530E0,9.379105815E0,1.130241403E1
1.235766483E1,5.332533206E0,-4.237952270E0,8.788791972E0,1.111930817E1
1.236765083E1,4.977102601E0,-5.719586138E0,7.167957827E0,1.043383129E1
1.237763683E1,4.866759502E0,-7.255698806E0,4.945399582E0,1.003929730E1
1.238762283E1,4.815632618E0,-7.945907650E0,3.038756459E0,9.775571938E0
1.239760883E1,4.982648685E0,-7.628522539E0,1.713325403E0,9.271279738E0
1.240759483E1,5.245172296E0,-7.167073143E0,1.143285611E0,8.954656433E0
1.241758083E1,4.900701127E0,-7.290449393E0,9.203014576E-1,8.832580521E0
1.242756683E1,4.048400449E0,-7.820222334E0,5.704876882E-1,8.824447844E0
1.243755283E1,3.053241767E0,-8.235510886E0,-8.923207766E-1,8.828485782E0
1.244753883E1,2.074506744E0,-8.535689396E0,-2.504100509E0,9.134116873E0
1.245752483E1,1.085460742E0,-8.472738857E0,-3.539421961E0,9.246244458E0
1.246751083E1,1.773571604E-1,-7.985875708E0,-4.185287568E0,9.017887691E0
1.247749683E1,-3.540652800E-1,-7.632023267E0,-4.249452573E0,8.742481829E0
1.248748283E1,-3.938251770E-1,-7.310494233E0,-4.096916551E0,8.389466576E0
1.249746883E1,-1.562978286E-1,-6.941577026E0,-4.120988368E0,8.074185144E0
1.250745483E1,-9.240717423E-1,-7.054003780E0,-4.023364425E0,8.173147448E0
1.251744083E1,-1.750304949E0,-7.243734818E0,-3.179713533E0,8.102212024E0
1.252742783E1,-1.784558523E0,-6.756331387E0,-2.231783981E0,7.335770080E0
1.253741383E1,-2.060994998E0,-6.314867774E0,-1.381390811E0,6.784798889E0
1.254739983E1,-2.016911085E0,-6.456528268E0,-1.306573348E0,6.889254061E0
1.255738583E1,-1.903952819E0,-6.486833802E0,-1.944477824E0,7.034560620E0
1.256737183E1,-2.120690392E0,-6.729971554E0,-3.299476496E0,7.789505119E0
1.257735783E1,-2.343189812E0,-7.784040349E0,-4.543081032E0,9.312432975E0
1.258734383E1,-1.858322318E0,-8.583357652E0,-6.099600776E0,1.069263859E1
1.259732983E1,-1.490824814E0,-8.966957218E0,-7.670645880E0,1.189401903E1
1.260731583E1,-2.263539625E0,-9.768285964E0,-8.574346508E0,1.319327254E1
1.261730183E1,-3.393814597E0,-1.073436995E1,-8.683984140E0,1.421816642E1
1.262728783E1,-4.492618684E0,-1.126052931E1,-7.931288441E0,1.448752841E1
1.263727383E1,-5.807454001E0,-1.148907475E1,-6.070447728E0,1.423290892E1
1.264725983E1,-7.078342815E0,-1.122191313E1,-3.789958194E0,1.379848015E1
1.265724583E1,-8.134607824E0,-1.099447749E1,-2.033134185E0,1.382693076E1
1.266723183E1,-8.868132842E0,-1.113597777E1,-1.223359137E0,1.428812054E1
1.267721783E1,-9.696702011E0,-1.154465605E1,-8.479982972E-1,1.510047066E1
1.268720383E1,-1.051020057E1,-1.202961709E1,-8.435393567E-1,1.599648593E1
1.269718983E1,-1.116340004E1,-1.238062779E1,-7.238534304E-1,1.668608429E1
1.270717583E1,-1.194829168E1,-1.272771383E1,-8.010015938E-1,1.747563953E1
1.271716183E1,-1.340549033E1,-1.275704347E1,1.297855588E0,1.855084252E1
1.272714783E1,-1.500996513E1,-1.085235390E1,5.043265015E0,1.919654032E1
1.273713383E1,-1.602621004E1,-8.616183336E0,7.893508996E0,1.983394837E1
1.274711983E1,-1.630319967E1,-6.448365555E0,1.086430093E1,2.062543993E1
1.275710654E1,-1.482942299E1,-5.514516683E0,1.322206083E1,2.061903425E1
1.276709254E1,-1.243379652E1,-5.386341623E0,1.460484547E1,1.992268765E1
1.277707854E1,-1.066864959E1,-4.665258603E0,1.481014589E1,1.883945708E1
1.278706454E1,-9.478115548E0,-2.909320447E0,1.432056905E1,1.741773572E1
1.279705054E1,-9.376158818E0,-7.749902549E-1,1.461634812E1,1.738247958E1
1.280703654E1,-9.318217589E0,3.299642265E-1,1.472392402E1,1.742790848E1
1.281702254E1,-9.007333412E0,6.610388392E-1,1.476186426E1,1.730553854E1
1.282700854E1,-7.841176416E0,1.357917894E0,1.464747635E1,1.666962963E1
1.283699454E1,-6.185438486E0,1.986641219E0,1.469957037E1,1.607120909E1
1.284698054E1,-4.651376144E0,1.213993871E0,1.498048230E1,1.573289329E1
1.285696654E1,-3.060602242E0,8.546544021E-1,1.403870285E1,1.439384931E1
1.286695254E1,-2.146603352E0,1.241301025E-1,1.283164107E1,1.301054676E1
1.287693854E1,-1.543649145E0,-1.068779074E0,1.170658884E1,1.185619516E1
1.288692454E1,-3.403804564E-1,-1.926786489E0,1.088089182E1,1.105541369E1
1.289691054E1,1.175577152E0,-2.195989520E0,1.015895949E1,1.045986661E1
1.290689654E1,2.855890637E0,-2.222232555E0,9.464159998E0,1.013236169E1
1.291688254E1,4.818136103E0,-1.918667483E0,8.599961405E0,1.004266183E1
1.292686954E1,5.972773499E0,-1.487255381E0,7.768365718E0,9.911279320E0
1.293685554E1,6.395489184E0,-1.284347642E0,7.085565296E0,9.631047001E0
1.294684154E1,6.363435917E0,-1.496032783E0,6.386884421E0,9.139131434E0
1.295682754E1,6.293133674E0,-1.881074857E0,5.402136122E0,8.504413486E0
1.296681354E1,6.294097295E0,-2.066966321E0,4.312270673E0,7.904662478E0
1.297679954E1,6.418045403E0,-2.039749579E0,3.172587531E0,7.444272750E0
1.298678554E1,6.280207234E0,-1.841162932E0,2.425094100E0,6.979395765E0
1.299677154E1,6.252641705E0,-1.607178850E0,2.121065199E0,6.795400631E0
1.300675754E1,6.714692194E0,-1.265452950E0,1.990208606E0,7.116838675E0
1.301674354E1,7.129728731E0,-9.762949064E-1,1.942490648E0,7.453821398E0
1.302672954E1,7.198665065E0,-8.709876488E-1,1.925972849E0,7.502584195E0
1.303671554E1,6.940849632E0,-7.742455389E-1,1.784181962E0,7.208200541E0
1.304670154E1,6.250862398E0,-7.433068246E-1,1.591361255E0,6.492935884E0
1.305668754E1,5.425965865E0,-7.559405380E-1,1.401789261E0,5.654870891E0
1.306667354E1,4.630406859E0,-7.412036542E-1,1.230169389E0,4.848027152E0
1.307665954E1,3.998354715E0,-6.419996472E-1,8.559089953E-1,4.139031792E0
1.308664554E1,3.499952963E0,-6.406424354E-1,2.111710238E-1,3.564363432E0
1.309663154E1,3.001339542E0,-7.874723793E-1,-4.731847572E-1,3.138798434E0
1.310661754E1,2.582488574E0,-8.879836044E-1,-1.139073277E0,2.958927178E0
1.311660354E1,2.354050430E0,-8.234319516E-1,-1.624589812E0,2.976388023E0
1.312658954E1,2.398700792E0,-6.290552274E-1,-1.825936344E0,3.079532351E0
1.313657554E1,2.495335825E0,-4.038242081E-1,-1.618958943E0,3.001799948E0
1.314656154E1,2.375963163E0,-2.220883602E-1,-1.223050404E0,2.681487737E0
1.315654754E1,2.020927976E0,-1.539762647E-1,-9.120796877E-1,2.222554371E0
1.316653354E1,1.741973543E0,-1.060264651E-1,-8.163660300E-1,1.926698454E0
1.317651954E1,1.364200728E0,-1.075894989E-2,-7.225989103E-1,1.543796802E0
1.318650554E1,1.012995321E0,1.017411138E-1,-4.639385551E-1,1.118816230E0
1.319649154E1,6.854337153E-1,1.458204221E-1,-1.403372687E-1,7.146870102E-1
1.320647754E1,4.803069583E-1,1.292953867E-1,-8.280300558E-2,5.042503435E-1
1.321646354E1,4.043951887E-1,2.263234254E-1,-2.429863089E-1,5.232591211E-1
1.322644954E1,3.561954206E-1,2.598922905E-1,-3.425135207E-1,5.583320627E-1
1.323643554E1,2.924825509E-1,2.935391428E-1,-4.830525184E-1,6.364361762E-1
1.324642154E1,1.377962150E-1,3.249718007E-1,-5.555094606E-1,6.581680856E-1
1.325640754E1,-1.860151327E-1,3.221467915E-1,-5.343501413E-1,6.510839104E-1
1.326639354E1,-7.974695832E-1,3.303725814E-1,-4.540550065E-1,9.753305735E-1
1.327637954E1,-1.495510626E0,3.357661262E-1,-2.669552153E-1,1.555813617E0
1.328636554E1,-2.262502767E0,4.139808217E-1,6.003862560E-2,2.300848437E0
1.329635154E1,-3.336809506E0,6.009065120E-1,4.536328375E-1,3.420697161E0
1.330633754E1,-4.284682925E0,7.997469275E-1,8.938515776E-1,4.449390245E0
1.331632354E1,-5.067180128E0,9.532605312E-1,1.240465166E0,5.303185261E0
1.332630954E1,-5.774565752E0,1.068160292E0,1.531155984E0,6.068856126E0
1.333629654E1,-6.285594274E0,1.238723719E0,1.944429000E0,6.695068033E0
1.334628254E1,-6.262343405E0,1.301443731E0,2.443567209E0,6.847022814E0
1.335626854E1,-6.077192491E0,1.182379876E0,3.047802102E0,6.900680285E0
1.336625454E1,-5.389004445E0,9.037911864E-1,3.891720797E0,6.708479573E0
1.337624054E1,-4.002398064E0,4.381434171E-1,4.678265442E0,6.172303255E0
1.338622654E1,-2.749744669E0,1.026198041E-1,5.484117594E0,6.135729162E0
1.339621254E1,-1.374025219E0,-3.213546400E-1,6.344573969E0,6.499602523E0
1.340619854E1,4.323782086E-2,-1.125266832E0,6.775366997E0,6.868310775E0
1.341618454E1,1.792438815E0,-1.929345084E0,6.786062139E0,7.279137910E0
1.342617054E1,3.252930028E0,-2.572506792E0,6.591815296E0,7.787899195E0
1.343615654E1,4.376449420E0,-2.973256827E0,6.075384532E0,8.056293372E0
1.344614254E1,5.284927515E0,-3.094596199E0,5.440610801E0,8.191900290E0
1.345612854E1,5.891410078E0,-3.081552523E0,5.021587633E0,8.331927809E0
1.346611454E1,6.177886223E0,-3.207856767E0,4.687679459E0,8.392315648E0
1.347610054E1,6.273209871E0,-3.375320146E0,4.193010278E0,8.266031899E0
1.348608654E1,6.289089155E0,-3.672863023E0,3.603166552E0,8.125599940E0
1.349607254E1,6.255119171E0,-4.166396968E0,3.059260890E0,8.114459731E0
1.350605854E1,6.340225394E0,-4.428273000E0,2.507397754E0,8.129889501E0
1.351604454E1,7.111801168E0,-4.064966195E0,2.212530270E0,8.485102015E0
1.352603054E1,7.572420843E0,-3.611247404E0,2.011314715E0,8.627169415E0
1.353601654E1,7.923563685E0,-3.356821017E0,2.209484455E0,8.884420655E0
1.354600254E1,8.173262013E0,-3.075949429E0,2.607949398E0,9.114004437E0
1.355598854E1,8.208254675E0,-3.080789169E0,2.763005862E0,9.192437550E0
1.356597454E1,8.200714105E0,-3.380002304E0,2.580075721E0,9.237581834E0
1.357596054E1,7.584343901E0,-3.951123245E0,2.069437208E0,8.798648627E0
1.358594654E1,5.879672962E0,-4.775507562E0,1.630043510E0,7.748100958E0
1.359593254E1,3.902090541E0,-5.560251850E0,9.198167235E-1,6.854835814E0
1.360591854E1,2.072214636E0,-6.538569381E0,-1.666175795E-1,6.861102278E0
1.361590454E1,1.084037822E0,-7.074878340E0,-1.255594836E0,7.266743419E0
1.362589054E1,1.002945419E0,-6.955380548E0,-2.529568641E0,7.468730520E0
1.363587654E1,1.077439531E0,-6.947882078E0,-3.406674378E0,7.812769780E0
1.364586254E1,1.633916706E0,-6.946094584E0,-4.391270942E0,8.378614102E0
1.365584854E1,2.008732000E0,-6.770944163E0,-4.594955775E0,8.425811990E0
1.366583454E1,2.388265412E0,-6.422764106E0,-4.163619833E0,8.018194345E0
1.367582054E1,2.840237056E0,-5.974645777E0,-3.849431979E0,7.653852968E0
1.368580654E1,2.869502370E0,-5.826266248E0,-3.346671420E0,7.306136588E0
1.369579254E1,3.093888686E0,-5.934991715E0,-2.308535119E0,7.079944086E0
1.370577854E1,3.456583872E0,-6.097090566E0,-1.455819873E0,7.158344567E0
1.371576454E1,3.412112288E0,-6.185610979E0,-6.111493720E-1,7.090683818E0
1.372575054E1,2.635737121E0,-5.512402915E0,7.395923808E-2,6.110578208E0
1.373573654E1,1.207016754E0,-5.077810950E0,4.165790319E-1,5.235894535E0
1.374572254E1,-8.814619124E-2,-5.260040011E0,2.418045866E-1,5.266332702E0
1.375570821E1,-3.140428430E-1,-5.212386373E0,-2.661301732E-1,5.228615484E0
1.376569421E1,-2.578446686E-1,-5.282510276E0,-1.005123507E0,5.383462822E0
1.377568121E1,-1.057384751E0,-5.327798715E0,-1.799001730E0,5.721879838E0
1.378566721E1,-2.476322141E0,-5.494102299E0,-2.316133575E0,6.456144837E0
1.379565321E1,-4.307995189E0,-5.408840539E0,-2.313007654E0,7.291391015E0
1.380563921E1,-5.722888645E0,-5.283209018E0,-2.211177224E0,8.096484218E0
1.381562521E1,-6.324895164E0,-5.354554989E0,-2.288940514E0,8.597372078E0
1.382561121E1,-6.649298104E0,-5.397357193E0,-2.422303224E0,8.900122631E0
1.383559721E1,-6.937254764E0,-5.409414151E0,-2.805859521E0,9.233640277E0
1.384558321E1,-7.373980377E0,-5.640862734E0,-3.490756170E0,9.918684269E0
1.385556921E1,-8.204718863E0,-6.228942356E0,-4.399613457E0,1.120150584E1
1.386555521E1,-9.707588941E0,-7.303491608E0,-5.372127627E0,1.328299770E1
1.387554121E1,-1.155517636E1,-8.538843384E0,-5.984197204E0,1.556420776E1
1.388552721E1,-1.328244620E1,-9.735981851E0,-5.407010946E0,1.733344994E1
1.389551321E1,-1.465875212E1,-1.102420941E1,-4.253378102E0,1.882826153E1
1.390549921E1,-1.610804533E1,-1.161723519E1,-1.580043384E0,1.992299714E1
1.391548521E1,-1.779112192E1,-1.029577381E1,2.742166386E0,2.073756143E1
1.392547121E1,-1.821169694E1,-8.669904630E0,6.036305251E0,2.105398140E1
1.393545721E1,-1.746277270E1,-7.123250601E0,9.527719232E0,2.112975540E1
1.394544321E1,-1.603486860E1,-4.420487724E0,1.362161745E1,2.149898102E1
1.395542921E1,-1.232486055E1,-1.728670835E0,1.638258614E1,2.057376046E1
1.396541521E1,-8.339528174E0,-3.990351192E-1,1.789980061E1,1.975119797E1
1.397540121E1,-5.018835933E0,1.875089135E-1,1.773450918E1,1.843194752E1
1.398538721E1,-1.920297249E0,6.567459597E-1,1.643608700E1,1.656091219E1
1.399537321E1,7.340740710E-2,6.754941065E-1,1.404526694E1,1.406169279E1
1.400535921E1,3.478125599E-1,-1.800501687E-1,1.166383633E1,1.167041000E1
1.401534521E1,5.151967093E-2,-1.028449366E0,9.895827770E0,9.949259753E0
1.402533121E1,-1.155133532E-1,-9.831764214E-1,9.357096895E0,9.409316740E0
1.403531721E1,1.107794474E-1,1.340943793E-1,1.018647181E1,1.018795668E1
1.404530321E1,1.248103822E0,1.162485602E0,1.138630292E1,1.151334140E1
1.405528921E1,2.749935581E0,1.358238760E0,1.255134661E1,1.292065245E1
1.406527521E1,3.243875323E0,1.383926456E0,1.349125962E1,1.394460705E1
1.407526121E1,3.120900484E0,1.326903093E0,1.312826799E1,1.355920764E1
1.408524721E1,2.595207730E0,5.622331008E-1,1.184508832E1,1.213908261E1
1.409523321E1,1.895682810E0,-4.323504344E-1,9.910951009E0,1.009987575E1
1.410521921E1,2.158360494E0,-1.408657401E0,7.936642737E0,8.344647004E0
1.411520521E1,2.954422360E0,-1.975778847E0,6.155075065E0,7.107549690E0
1.412519121E1,4.086994703E0,-2.336670751E0,4.888036643E0,6.786490855E0
1.413517721E1,5.794137552E0,-2.673230344E0,3.956222602E0,7.507988261E0
1.414516321E1,7.805017819E0,-2.644939176E0,3.026312415E0,8.779098658E0
1.415514921E1,9.628003659E0,-2.457848156E0,2.055695082E0,1.014718455E1
1.416513521E1,1.050543275E1,-2.190023313E0,1.154779483E0,1.079323098E1
1.417512121E1,1.012528070E1,-1.915798986E0,6.270992607E-1,1.032399382E1
1.418510721E1,8.694386337E0,-1.638938002E0,5.821932292E-1,8.866646520E0
1.419509421E1,6.858344250E0,-1.273309707E0,8.607060510E-1,7.028443524E0
1.420508021E1,5.213945825E0,-7.792184497E-1,1.150212808E0,5.395868972E0
1.421506621E1,3.947871609E0,-3.101970196E-1,1.469853775E0,4.224024449E0
1.422505221E1,3.024962878E0,9.507426471E-2,1.692875935E0,3.467746885E0
1.423503821E1,2.498933324E0,2.479707679E-1,1.639464544E0,2.999000042E0
1.424502421E1,2.465815864E0,2.695765769E-1,1.328037161E0,2.813645697E0
1.425501021E1,2.817767376E0,2.190026749E-1,7.950581914E-1,2.935965375E0
1.426499621E1,3.103987120E0,-1.570891030E-4,1.692207599E-1,3.108596425E0
1.427498221E1,3.268651730E0,-4.584263849E-1,-4.619692129E-1,3.332814791E0
1.428496821E1,3.321188670E0,-9.028736852E-1,-1.186900578E0,3.640632919E0
1.429495421E1,3.104533542E0,-1.078289643E0,-1.945390867E0,3.819081394E0
1.430494021E1,2.644754112E0,-1.028022519E0,-2.497314230E0,3.779964679E0
1.431492621E1,2.185043824E0,-8.628552682E-1,-2.721046243E0,3.594861386E0
1.432491221E1,1.806015611E0,-7.548860657E-1,-2.616279341E0,3.267485723E0
1.433489821E1,1.564596649E0,-7.273439989E-1,-2.412727239E0,2.966183524E0
1.434488421E1,1.440461722E0,-4.595790904E-1,-2.218173417E0,2.684480624E0
1.435487021E1,1.400360494E0,-3.934811597E-2,-1.939071196E0,2.392186216E0
1.436485621E1,1.327146630E0,3.336199423E-1,-1.406688058E0,1.962496302E0
1.437484221E1,1.420533388E0,6.342792761E-1,-8.422387898E-1,1.769065144E0
1.438482821E1,1.673124041E0,7.517129280E-1,-4.702208036E-1,1.893547989E0
1.439481421E1,1.797383367E0,6.922476950E-1,-4.071141440E-1,1.968638048E0
1.440480021E1,1.802734593E0,5.882460841E-1,-6.916636312E-1,2.018485582E0
1.441478621E1,1.642499395E0,4.625010172E-1,-8.343292612E-1,1.899425379E0
1.442477221E1,1.338324459E0,3.795118143E-1,-6.819975990E-1,1.549277993E0
1.443475821E1,1.265811530E0,3.159307627E-1,-5.480478287E-1,1.415078619E0
1.444474421E1,1.289486175E0,2.830060416E-1,-5.200227088E-1,1.418904730E0
1.445473021E1,1.208463574E0,3.351962420E-1,-5.192274874E-1,1.357327490E0
1.446471621E1,1.071931966E0,3.137729209E-1,-4.356526494E-1,1.198868139E0
1.447470221E1,8.864699795E-1,3.016851547E-1,-3.958196622E-1,1.016619969E0
1.448468821E1,5.482088464E-1,1.900272180E-1,-3.358921337E-1,6.704228578E-1
1.449467421E1,7.521854561E-2,1.376418119E-1,-2.929501820E-1,3.322994239E-1
1.450466021E1,-4.624290964E-1,2.454073851E-1,-2.638175994E-1,5.862296305E-1
1.451464621E1,-9.094474174E-1,2.633569485E-1,-1.353922784E-1,9.564426571E-1
1.452463221E1,-1.393955308E0,2.268460751E-1,4.620937586E-2,1.413048424E0
1.453461821E1,-1.963007212E0,2.819033481E-1,3.331328326E-1,2.010931201E0
1.454460421E1,-2.715010454E0,5.084196402E-1,7.829866147E-1,2.871034715E0
1.455459021E1,-3.646238604E0,8.348215967E-1,1.511665460E0,4.034490738E0
1.456457621E1,-4.478756398E0,1.262449966E0,2.435957057E0,5.252325730E0
1.457456221E1,-5.085521674E0,1.673416694E0,3.412035105E0,6.348609114E0
1.458454821E1,-5.440730084E0,1.946536483E0,4.457766355E0,7.298097629E0
1.459453421E1,-5.388147828E0,2.029610214E0,5.329445876E0,7.845664279E0
1.460452021E1,-4.919097052E0,1.808530353E0,5.868815267E0,7.868372798E0
1.461450621E1,-4.501817816E0,1.648758109E0,6.166896381E0,7.811234084E0
1.462449221E1,-3.719779912E0,1.416749509E0,6.354002604E0,7.497819073E0
1.463447821E1,-2.898528534E0,8.860701761E-1,6.477946619E0,7.151949413E0
1.464446521E1,-2.063976055E0,2.090155209E-1,6.597416344E0,6.915893801E0
1.465445121E1,-1.065271841E0,-5.760933407E-1,6.779048404E0,6.886376761E0
1.466443721E1,1.826673459E-1,-1.331706288E0,6.803378668E0,6.934895118E0
1.467442321E1,1.470030507E0,-2.149411185E0,6.733390421E0,7.219383955E0
1.468440921E1,2.500332271E0,-2.785774920E0,6.663503914E0,7.642937118E0
1.469439521E1,3.184612915E0,-3.097787902E0,6.399727830E0,7.790671704E0
1.470438121E1,3.885095024E0,-3.432821080E0,6.116295161E0,8.017935546E0
1.471436721E1,4.775181872E0,-3.789130229E0,5.917068245E0,8.495385007E0
1.472435321E1,5.268979234E0,-4.415447717E0,5.339673826E0,8.704621604E0
1.473433921E1,5.644709033E0,-5.288703062E0,4.457380439E0,8.927561846E0
1.474432521E1,5.751707817E0,-5.826133516E0,3.543629032E0,8.920946210E0
1.475431167E1,5.697807598E0,-6.363121337E0,2.620091726E0,8.934159458E0
1.476429767E1,5.916759512E0,-6.981330491E0,1.754834202E0,9.318071776E0
1.477428367E1,6.171546087E0,-7.285075217E0,8.598394936E-1,9.586429261E0
1.478426967E1,6.394837219E0,-7.418076569E0,-9.681176484E-2,9.794446159E0
1.479425567E1,6.378020627E0,-7.019801077E0,-8.176530021E-1,9.519732701E0
1.480424167E1,6.347989327E0,-6.438898328E0,-1.095538418E0,9.108050538E0
1.481422767E1,6.426871775E0,-6.136388533E0,-1.200261465E0,8.966636639E0
1.482421367E1,6.506800289E0,-6.168032495E0,-1.320553894E0,9.062391376E0
1.483419967E1,6.667920316E0,-6.068270810E0,-1.448770469E0,9.131484427E0
1.484418567E1,6.714417960E0,-6.283766434E0,-1.818096398E0,9.374145489E0
1.485417167E1,6.425749694E0,-7.093636208E0,-2.545551420E0,9.904027757E0
1.486415767E1,5.668154029E0,-8.080565518E0,-3.176416288E0,1.036885382E1
1.487414367E1,4.721261188E0,-8.825531783E0,-4.039170034E0,1.079329482E1
1.488412967E1,3.840651215E0,-9.384878186E0,-5.038607708E0,1.132316687E1
1.489411567E1,3.629533401E0,-9.228693793E0,-5.682931112E0,1.142969850E1
1.490410167E1,3.381421423E0,-8.900898299E0,-6.048347007E0,1.128018186E1
1.491408767E1,3.137213046E0,-8.995205117E0,-5.955918900E0,1.123515869E1
1.492407367E1,3.112288120E0,-9.204230797E0,-5.435573425E0,1.113326818E1
1.493405967E1,2.859121224E0,-9.488439392E0,-4.717686785E0,1.097550112E1
1.494404567E1,2.070863344E0,-9.631373409E0,-4.202780390E0,1.071051781E1
1.495403167E1,1.087325419E0,-9.329775195E0,-4.064565076E0,1.023463097E1
1.496401767E1,6.484562159E-1,-9.324008086E0,-4.199145176E0,1.024648440E1
1.497400367E1,2.304609883E-1,-9.618570930E0,-4.104318541E0,1.046018402E1
1.498398967E1,-9.640474015E-1,-9.685625630E0,-3.911568586E0,1.049004767E1
1.499397567E1,-2.854317151E0,-9.494155045E0,-3.259040369E0,1.043587325E1
1.500396167E1,-4.658712353E0,-8.586264887E0,-2.317360321E0,1.003980599E1
1.501394767E1,-6.254080705E0,-7.458409494E0,-7.583856243E-1,9.763019328E0
1.502393367E1,-7.519440392E0,-6.392139314E0,8.586343825E-1,9.906496950E0
1.503391967E1,-8.379428989E0,-5.640006702E0,1.683950161E0,1.024012666E1
1.504390567E1,-8.123780535E0,-5.476030310E0,1.995776470E0,9.998291947E0
1.505389167E1,-7.814115502E0,-5.485475317E0,1.511832544E0,9.666254610E0
1.506387767E1,-8.086693985E0,-6.033385736E0,1.183341962E-1,1.009011229E1
1.507386367E1,-8.751470364E0,-7.213960211E0,-1.939566455E0,1.150614503E1
1.508384967E1,-9.458461302E0,-9.017207020E0,-3.602657259E0,1.355550265E1
1.509383667E1,-1.095736638E1,-1.047465768E1,-4.273282608E0,1.574938970E1
1.510382267E1,-1.308670832E1,-1.110928172E1,-3.313933445E0,1.748314130E1
1.511380867E1,-1.498820297E1,-1.144526741E1,-1.993409371E0,1.896349270E1
1.512379467E1,-1.634103583E1,-1.178114317E1,-6.684297198E-1,2.015617981E1
1.513378067E1,-1.709314213E1,-1.158922235E1,1.387993340E0,2.069811847E1
1.514376667E1,-1.753561731E1,-1.044375281E1,4.077021400E0,2.081326381E1
1.515375267E1,-1.749614977E1,-8.708907897E0,7.262121972E0,2.084943043E1
1.516373867E1,-1.694727515E1,-6.663537244E0,1.143780169E1,2.150432912E1
1.517372467E1,-1.484022397E1,-4.261661560E0,1.539718997E1,2.180521648E1
1.518371067E1,-1.110462500E1,-1.797958294E0,1.911437723E1,2.217892620E1
1.519369667E1,-6.679223569E0,2.059674405E-1,2.143943132E1,2.245670647E1
1.520368267E1,-2.614387474E0,1.580715960E0,2.316542179E1,2.336601060E1
1.521366867E1,5.083442111E-1,2.658272582E0,2.292060589E1,2.307983971E1
1.522365467E1,7.785874620E-1,2.700318448E0,2.084483263E1,2.103342496E1
1.523364067E1,1.497362586E0,1.945152154E0,1.787173865E1,1.803953309E1
1.524362667E1,6.680248732E-1,6.589370576E-1,1.456195030E1,1.459215035E1
1.525361267E1,-8.755258922E-2,-8.415796624E-1,1.083942103E1,1.087239486E1
1.526359867E1,3.821804104E-1,-1.795336695E0,8.253094048E0,8.454753520E0
1.527358467E1,1.212446551E0,-2.181290497E0,6.565585856E0,7.023885855E0
1.528357067E1,1.929241150E0,-2.544460330E0,5.916420958E0,6.723115850E0
1.529355667E1,2.660969610E0,-3.156478452E0,5.831365020E0,7.144853636E0
1.530354267E1,3.147099518E0,-3.849116229E0,5.820357052E0,7.654834246E0
1.531352867E1,4.073923253E0,-4.095548303E0,5.562988347E0,8.019800865E0
1.532351467E1,5.228275596E0,-3.789869609E0,5.247055684E0,8.320430921E0
1.533350067E1,6.290788355E0,-3.011428912E0,4.958429518E0,8.557379594E0
1.534348667E1,7.128453453E0,-2.479252766E0,4.971399812E0,9.037497386E0
1.535347267E1,7.558603873E0,-2.223686172E0,4.991191467E0,9.326803577E0
1.536345867E1,7.669324409E0,-1.840537426E0,4.781344838E0,9.223197568E0
1.537344467E1,7.732092515E0,-1.892265404E0,4.389049292E0,9.090086728E0
1.538343067E1,7.566702851E0,-2.201364134E0,3.544052371E0,8.640677247E0
1.539341667E1,6.980860375E0,-2.438860492E0,2.574664707E0,7.830028763E0
1.540340267E1,6.297114458E0,-2.423082804E0,1.646889923E0,6.945302527E0
1.541338867E1,5.599611797E0,-2.278330449E0,9.118376130E-1,6.113745967E0
1.542337467E1,5.102390306E0,-2.009017052E0,6.248053980E-1,5.519141069E0
1.543336067E1,4.789516321E0,-1.550890921E0,8.492075014E-1,5.105475749E0
1.544334667E1,4.620480918E0,-1.090579321E0,1.453457013E0,4.964951607E0
1.545333267E1,4.463270924E0,-7.396325073E-1,2.074841205E0,4.977229110E0
1.546331867E1,4.355336586E0,-4.567834635E-1,2.221454875E0,4.910444956E0
1.547330467E1,4.284034469E0,-3.917509868E-1,1.680510244E0,4.618499198E0
1.548329067E1,4.009672585E0,-6.572291590E-1,9.409929997E-1,4.170718431E0
1.549327667E1,3.561091157E0,-9.556412981E-1,1.077945900E-1,3.688663741E0
1.550326267E1,3.179805334E0,-9.882314855E-1,-8.850100029E-1,3.445432649E0
1.551324867E1,2.808397213E0,-1.094266794E0,-1.779011269E0,3.499913687E0
1.552323467E1,2.495882247E0,-1.025380016E0,-2.245398638E0,3.510362861E0
1.553322167E1,2.133891359E0,-7.393543991E-1,-2.204989116E0,3.156281714E0
1.554320767E1,1.897681973E0,-4.081083168E-1,-1.699663383E0,2.580039706E0
1.555319367E1,1.692350855E0,-5.457078461E-3,-1.014376726E0,1.973079152E0
1.556317967E1,1.647712042E0,4.208998320E-1,-4.724450845E-1,1.765025779E0
1.557316567E1,1.629289219E0,6.858039171E-1,-6.839780509E-2,1.769064338E0
1.558315167E1,1.552669498E0,6.597181725E-1,1.874477005E-1,1.697394261E0
1.559313767E1,1.499096577E0,5.736721549E-1,3.372673988E-1,1.640164500E0
1.560312367E1,1.387418852E0,5.140252928E-1,3.983211011E-1,1.532257410E0
1.561310967E1,1.414726080E0,4.769167061E-1,4.177034515E-1,1.550282425E0
1.562309567E1,1.580226548E0,4.029276107E-1,4.172140396E-1,1.683310476E0
1.563308167E1,1.707189335E0,3.843908041E-1,2.705898446E-1,1.770726003E0
1.564306767E1,1.763389848E0,4.143680535E-1,-6.991398811E-2,1.812769319E0
1.565305367E1,1.744362570E0,4.520950198E-1,-3.673197484E-1,1.839052604E0
1.566303967E1,1.682088846E0,4.190640986E-1,-5.861032623E-1,1.829905636E0
1.567302567E1,1.697740380E0,3.351929529E-1,-8.489098781E-1,1.927517755E0
1.568301167E1,1.731909170E0,1.159064323E-1,-1.032129457E0,2.019464010E0
1.569299767E1,1.642060269E0,-1.758091832E-1,-1.266755417E0,2.081331325E0
1.570298367E1,1.527787257E0,-3.869990643E-1,-1.636766054E0,2.272202740E0
1.571296967E1,1.285749074E0,-5.576059067E-1,-2.014472212E0,2.454011679E0
1.572295567E1,7.804894882E-1,-6.577919535E-1,-2.398881032E0,2.607006771E0
1.573294167E1,-4.352550387E-2,-6.044491207E-1,-2.760343625E0,2.826083887E0
1.574292767E1,-1.009309675E0,-5.516866972E-1,-2.938456830E0,3.155565365E0
1.575291367E1,-1.870284698E0,-4.040863095E-1,-3.060612767E0,3.609515356E0
1.576289929E1,-2.727645118E0,-2.309839486E-1,-3.035611827E0,4.087583716E0
1.577288529E1,-3.613644762E0,-2.004214295E-1,-2.822032920E0,4.589386344E0
1.578287129E1,-4.725265069E0,-3.025899748E-1,-2.426831893E0,5.320639407E0
1.579285729E1,-5.717891030E0,-2.875027697E-1,-1.951649142E0,6.048625467E0
1.580284329E1,-6.527121118E0,-1.201126269E-1,-1.451899899E0,6.687731338E0
1.581282929E1,-7.022764446E0,-9.686058909E-3,-8.956039882E-1,7.079648352E0
1.582281529E1,-7.358171260E0,-6.794340335E-2,-3.063151628E-1,7.364857743E0
1.583280129E1,-7.300206057E0,-1.822566155E-1,4.047612244E-1,7.313689739E0
1.584278729E1,-6.824889990E0,-3.763938962E-1,1.148171545E0,6.931023996E0
1.585277329E1,-6.203760152E0,-4.399499875E-1,2.138678766E0,6.576788189E0
1.586275929E1,-5.030981770E0,-1.825752340E-1,3.665045881E0,6.227091824E0
1.587274529E1,-3.899944906E0,-6.674633212E-3,5.393628423E0,6.655887798E0
1.588273129E1,-2.403055214E0,2.531608113E-1,7.258131248E0,7.649786531E0
1.589271729E1,-6.063735124E-1,1.182784430E0,9.372018989E0,9.465802015E0
1.590270329E1,1.273186477E0,1.885186327E0,1.144519023E1,1.166907497E1
1.591268929E1,3.307208854E0,1.492087812E0,1.295177446E1,1.345036870E1
1.592267529E1,4.703068454E0,6.620896570E-1,1.325022102E1,1.407570861E1
1.593266129E1,5.573734360E0,-6.853485652E-1,1.217485492E1,1.340758403E1
1.594264729E1,5.905511223E0,-2.522261961E0,1.019722835E1,1.205073999E1
1.595263329E1,6.144854717E0,-4.116689203E0,8.334425309E0,1.114311513E1
1.596261929E1,6.416028113E0,-5.037441773E0,6.811491095E0,1.062721258E1
1.597260529E1,6.583709886E0,-4.852390847E0,5.445195603E0,9.825532451E0
1.598259229E1,6.926181307E0,-4.331243718E0,4.523897780E0,9.337950030E0
1.599257829E1,7.213799413E0,-3.902989551E0,4.482582523E0,9.346966111E0
1.600256429E1,6.991463131E0,-3.127918897E0,4.932695922E0,9.110209788E0
1.601255029E1,6.841313649E0,-2.191526486E0,5.606435498E0,9.112545187E0
1.602253629E1,6.863716087E0,-1.958903198E0,6.431372961E0,9.607833181E0
1.603252229E1,7.018197185E0,-2.261490760E0,6.636720743E0,9.920458377E0
1.604250829E1,7.195521017E0,-3.007854217E0,6.178494333E0,9.949698584E0
1.605249429E1,6.769306943E0,-3.787630418E0,5.481984529E0,9.498516466E0
1.606248029E1,5.810992736E0,-4.925296270E0,4.473053316E0,8.833707370E0
1.607246629E1,4.924429713E0,-6.531986586E0,2.816699674E0,8.651627235E0
1.608245229E1,4.205526243E0,-7.642507909E0,1.058426140E0,8.787186354E0
1.609243829E1,3.761349815E0,-7.958238258E0,-4.969782472E-1,8.816365237E0
1.610242429E1,3.413366224E0,-7.475912549E0,-1.249975662E0,8.312807984E0
1.611241029E1,2.903536089E0,-6.946350108E0,-1.649426445E0,7.707328282E0
1.612239629E1,2.270264508E0,-6.483037789E0,-2.188464884E0,7.209248121E0
1.613238229E1,1.301869701E0,-6.344997307E0,-2.727013034E0,7.027834349E0
1.614236829E1,2.245149547E-1,-6.320461221E0,-3.349713142E0,7.156760101E0
1.615235429E1,-3.988824338E-1,-6.098381631E0,-3.711714555E0,7.150258083E0
1.616234029E1,-1.333789651E0,-6.115215765E0,-4.033516946E0,7.446080690E0
1.617232629E1,-2.469831732E0,-6.367809049E0,-4.196470368E0,8.016197629E0
1.618231229E1,-2.967575964E0,-6.333639091E0,-4.322343671E0,8.222174046E0
1.619229829E1,-2.353262810E0,-6.328783563E0,-4.412789572E0,8.066229544E0
1.620228429E1,-1.183498083E0,-6.467543253E0,-4.345865266E0,7.881391270E0
1.621227029E1,-6.210210800E-2,-6.762590831E0,-4.186290658E0,7.953711139E0
1.622225629E1,7.430454540E-1,-6.863140136E0,-3.908190649E0,7.932765169E0
1.623224229E1,1.183147250E0,-6.924375687E0,-3.939279710E0,8.053864954E0
1.624222829E1,1.355009782E0,-7.388049948E0,-4.011978142E0,8.515591709E0
1.625221429E1,9.555256695E-1,-7.807283615E0,-3.808181627E0,8.738933234E0
1.626220029E1,1.428661895E-1,-8.006878322E0,-3.729480443E0,8.833998844E0
1.627218629E1,-1.124530082E0,-8.088436455E0,-3.880200028E0,9.041201494E0
1.628217229E1,-2.790264997E0,-7.966389277E0,-3.671346256E0,9.204766167E0
1.629215829E1,-4.620706621E0,-7.744770448E0,-3.228548309E0,9.578931211E0
1.630214429E1,-6.358350009E0,-7.619665761E0,-3.022540376E0,1.037418293E1
1.631213029E1,-7.393700112E0,-7.571609834E0,-3.369052223E0,1.110615099E1
1.632211629E1,-8.112185506E0,-7.621090143E0,-4.304135149E0,1.193373990E1
1.633210229E1,-8.797314874E0,-7.789735537E0,-5.420915624E0,1.294059716E1
1.634208829E1,-9.369356752E0,-8.297563877E0,-6.337110583E0,1.402830648E1
1.635207429E1,-9.939005949E0,-9.211631033E0,-7.027305393E0,1.526502560E1
1.636206029E1,-1.058539927E1,-1.012999706E1,-7.300242895E0,1.636951632E1
1.637204629E1,-1.150959380E1,-1.097442154E1,-6.492755862E0,1.717744324E1
1.638203229E1,-1.280976781E1,-1.139929193E1,-5.093376238E0,1.788788666E1
1.639201829E1,-1.461282108E1,-1.031236002E1,-2.171640106E0,1.801652935E1
1.640200429E1,-1.677448876E1,-7.026547594E0,2.033597285E0,1.830003721E1
1.641199029E1,-1.788581992E1,-3.935016797E0,5.519927112E0,1.912737584E1
1.642197629E1,-1.855381519E1,-1.256882393E0,9.730393082E0,2.098819575E1
1.643196229E1,-1.763425165E1,9.868294694E-1,1.340353970E1,2.217195391E1
1.644194829E1,-1.444668765E1,1.448197150E0,1.532586096E1,2.111127834E1
1.645193429E1,-1.041255908E1,1.593475901E0,1.576626389E1,1.896142476E1
1.646192029E1,-6.520466402E0,1.917795517E0,1.468109083E1,1.617803602E1
1.647190629E1,-3.830267145E0,2.066106927E0,1.268835739E1,1.341395384E1
1.648189329E1,-2.932304390E0,1.270961027E0,1.042832201E1,1.090704593E1
1.649187929E1,-3.224879766E0,-5.483193588E-2,8.328466412E0,8.931193023E0
1.650186529E1,-3.829925668E0,-1.516802385E0,7.046131089E0,8.161922777E0
1.651185129E1,-3.617501001E0,-1.936340254E0,6.703283692E0,7.859372706E0
