"Time (s)","Linear Acceleration x (m/s^2)","Linear Acceleration y (m/s^2)","Linear Acceleration z (m/s^2)","Absolute acceleration (m/s^2)"
-9.956666618E-4,1.672838112E0,-5.367626659E-1,7.249290258E-1,1.900532452E0
8.990333299E-3,1.737458616E0,-5.298794333E-2,4.011680373E-1,1.783957947E0
1.897633332E-2,1.362740386E0,3.850948454E-1,-2.839607092E-1,1.444296743E0
2.896233334E-2,7.144350278E-1,7.610095623E-1,-6.322173285E-1,1.220349013E0
3.894733335E-2,2.207820922E-1,6.577711228E-1,-4.189880848E-1,8.105298251E-1
4.893333331E-2,1.224285920E0,2.621443090E-1,-9.949247932E-1,1.599209491E0
5.891933333E-2,3.554001408E0,1.032392436E-1,-1.465511048E0,3.845686802E0
6.890533335E-2,3.788785243E0,-5.268409277E-1,-5.754386719E-1,3.868279287E0
7.889133331E-2,4.117366603E0,-7.948397979E-1,3.627261758E-1,4.209043636E0
8.887633332E-2,4.294689265E0,-7.642742090E-1,1.233342673E0,4.533167226E0
9.886233334E-2,4.053788073E0,-9.825946965E-1,1.766308193E0,4.529738923E0
1.088483333E-1,3.818731173E0,-1.090317220E0,2.302629723E0,4.590599422E0
1.188343333E-1,3.207662639E0,-1.172356360E0,2.791527118E0,4.410911776E0
1.288203333E-1,2.273995616E0,-1.213506140E0,2.827954687E0,3.826353476E0
1.388053334E-1,1.539905173E0,-1.166458639E0,2.419361198E0,3.096004248E0
1.487913333E-1,1.014698907E0,-1.197665375E0,1.750749045E0,2.351412010E0
1.587773333E-1,6.029911906E-1,-9.923105762E-1,7.416424146E-1,1.377792483E0
1.687633333E-1,8.426480949E-2,-6.928977592E-1,-4.561585423E-1,8.338396000E-1
1.787493333E-1,-7.942495215E-1,-3.354107617E-1,-1.318314995E0,1.575210179E0
1.887343333E-1,-1.663279669E0,-1.651326060E-1,-1.765960284E0,2.431539380E0
1.987203333E-1,-2.252288997E0,5.108317629E-2,-1.618592323E0,2.774032503E0
2.087063333E-1,-2.881872155E0,2.162312043E-1,-1.067853313E0,3.080950138E0
2.186923333E-1,-3.551623930E0,1.616603100E-1,-5.766784278E-1,3.601766873E0
2.286783333E-1,-3.696131433E0,1.735110082E-1,-3.963184297E-1,3.721365601E0
2.386633334E-1,-3.518011796E0,4.055128840E-1,-3.257431215E-1,3.556255935E0
2.486493333E-1,-3.343466561E0,5.057328446E-1,-3.229651093E-1,3.396886931E0
2.586353333E-1,-3.168723106E0,4.530253118E-1,-4.668194783E-1,3.234804242E0
2.686213334E-1,-2.920606450E0,3.599526952E-1,-7.837017292E-1,3.045274435E0
2.786073333E-1,-2.593340714E0,1.723498973E-1,-1.514500190E0,3.008127552E0
2.885923333E-1,-2.132982994E0,2.112354894E-1,-2.584217888E0,3.357442327E0
2.985783333E-1,-1.851265898E0,5.360918806E-1,-3.285759805E0,3.809304061E0
3.085643333E-1,-2.002105935E0,5.906863099E-1,-3.471162150E0,4.050469746E0
3.185503333E-1,-2.451450425E0,3.788327698E-1,-3.469078202E0,4.264695420E0
3.285363333E-1,-2.974795521E0,3.283077103E-1,-3.185757215E0,4.371068906E0
3.385213333E-1,-3.611618117E0,2.961069475E-1,-2.568140969E0,4.441487677E0
3.485073333E-1,-4.110037118E0,2.637332533E-1,-1.494054816E0,4.381114029E0
3.584933333E-1,-4.445645077E0,1.439963101E-1,-2.198500460E-1,4.453406464E0
3.684793333E-1,-4.349117487E0,2.872590870E-3,9.188647968E-1,4.445125834E0
3.784653333E-1,-3.315745497E0,-6.128408253E-2,2.030785359E0,3.888703269E0
3.884501667E-1,-2.016122881E0,-2.496613441E-1,2.965712457E0,3.594792432E0
3.984361666E-1,-8.384316677E-1,-6.451623331E-1,3.274592208E0,3.441243413E0
4.084221667E-1,6.451349974E-2,-7.738487323E-1,2.712608126E0,2.821568127E0
4.184081667E-1,4.059037703E-1,-4.537148447E-1,1.840350900E0,1.938428866E0
4.283941666E-1,-1.397075236E-2,-2.293507482E-1,1.091959337E0,1.115872816E0
4.383791666E-1,-9.659430689E-1,-1.695249613E-1,7.253254670E-1,1.219787587E0
4.483651667E-1,-1.977147095E0,-1.243508349E-1,8.388374645E-1,2.151330300E0
4.583511666E-1,-2.788267588E0,-4.126950189E-2,1.238567744E0,3.051260292E0
4.683371666E-1,-3.510904505E0,-1.887144998E-2,1.688495201E0,3.895872511E0
4.783231667E-1,-4.241479602E0,7.828690857E-3,2.129610320E0,4.746098463E0
4.883081667E-1,-4.604004634E0,6.250556588E-2,2.486450688E0,5.232896200E0
4.982941666E-1,-4.169217373E0,1.260023810E-1,3.189252096E0,5.250674150E0
5.082801667E-1,-3.709623883E0,1.061160006E-1,4.343039891E0,5.712667105E0
5.182661667E-1,-3.709688787E0,-5.838430211E-2,5.875339006E0,6.948727082E0
5.282521666E-1,-3.991594748E0,-4.204713041E-1,7.562249027E0,8.561380444E0
5.382371666E-1,-4.194572654E0,-1.714604481E0,8.449213169E0,9.587674976E0
5.482231667E-1,-4.382510936E0,-2.667860554E0,8.393166438E0,9.837129911E0
5.582091666E-1,-4.218585999E0,-2.862902326E0,8.166300318E0,9.627104364E0
5.681951666E-1,-3.455705035E0,-3.328222870E0,8.084201902E0,9.400706630E0
5.781811667E-1,-2.927574577E0,-3.897381194E0,8.192502860E0,9.532962614E0
5.881661667E-1,-2.183067319E0,-4.764691967E0,8.496071586E0,9.982550018E0
5.981521666E-1,-2.735970676E-2,-6.239142823E0,8.374465873E0,1.044314753E1
6.081381667E-1,4.023877226E0,-6.702756858E0,7.826867695E0,1.106247691E1
6.181241667E-1,8.334431157E0,-5.810009819E0,7.182651295E0,1.244224403E1
6.281101666E-1,1.064540106E1,-4.715257560E0,6.329646027E0,1.325226910E1
6.380951667E-1,1.112508909E1,-4.424981017E0,6.397729252E0,1.357494029E1
6.480811667E-1,1.035832148E1,-5.287496197E0,7.591495045E0,1.388824096E1
6.580671666E-1,9.361241401E0,-6.447859771E0,8.035710357E0,1.392050204E1
6.680531666E-1,9.500887529E0,-7.292702326E0,5.903685722E0,1.335304745E1
6.780391667E-1,1.019171793E1,-6.389829664E0,2.392610625E0,1.226481240E1
6.880241667E-1,1.005051118E1,-5.549395325E0,-2.801725540E-1,1.148420917E1
6.980101666E-1,8.891652097E0,-5.280777161E0,-1.155402796E0,1.040591371E1
7.079961667E-1,7.247600997E0,-5.664742763E0,-1.414399366E0,9.306855342E0
7.179821667E-1,6.479927655E0,-5.659545173E0,-1.561905906E0,8.744110249E0
7.279681666E-1,6.307794982E0,-5.146146775E0,-2.281864214E0,8.454466775E0
7.379531667E-1,6.152866572E0,-4.380595388E0,-2.803104313E0,8.056350091E0
7.479391667E-1,5.634897990E0,-4.184209049E0,-2.405001898E0,7.419145156E0
7.579251666E-1,4.592687348E0,-4.446357268E0,-1.514270541E0,6.569313914E0
7.679111667E-1,3.377761066E0,-4.762097558E0,-1.057235647E0,5.933345615E0
7.778971667E-1,2.518917353E0,-4.935879146E0,-1.286452932E0,5.688831929E0
7.878821667E-1,2.346697556E0,-4.643920359E0,-2.025219833E0,5.583413033E0
7.978681666E-1,2.466507005E0,-4.357076425E0,-2.716169665E0,5.696081936E0
8.078541667E-1,2.053607626E0,-4.289111314E0,-3.275054723E0,5.774059541E0
8.178401667E-1,1.243080626E0,-4.136018344E0,-3.937035549E0,5.843983752E0
8.278261666E-1,3.467702937E-1,-3.952194455E0,-4.612769610E0,6.084220092E0
8.378111667E-1,-6.481346190E-1,-3.558550542E0,-5.034361460E0,6.199044745E0
8.477971667E-1,-1.589738653E0,-3.133548011E0,-5.430208604E0,6.467886642E0
8.577831666E-1,-2.430384661E0,-2.829958820E0,-5.763033873E0,6.864983318E0
8.677691667E-1,-3.043899086E0,-2.374567725E0,-6.095408907E0,7.215116303E0
8.777551667E-1,-3.324960709E0,-1.805121718E0,-6.219822453E0,7.280111227E0
8.877401667E-1,-3.521332430E0,-1.394282167E0,-5.810337263E0,6.935692031E0
8.977261666E-1,-3.757503809E0,-1.254685448E0,-4.979414005E0,6.362989414E0
9.077121667E-1,-3.884618184E0,-1.236815334E0,-4.386520956E0,5.988450276E0
9.176981667E-1,-3.528892295E0,-1.158383488E0,-3.965985113E0,5.433596512E0
9.276841666E-1,-2.929399493E0,-8.182658634E-1,-3.801699404E0,4.868660881E0
9.376691667E-1,-2.543409585E0,-5.194749708E-1,-3.597973055E0,4.436687578E0
9.476551667E-1,-2.522111687E0,-3.427001565E-1,-3.192214880E0,4.082735186E0
9.576411666E-1,-2.471671266E0,-4.013848959E-1,-2.643509824E0,3.641210358E0
9.676271667E-1,-2.431520190E0,-5.630617243E-1,-1.889342966E0,3.130326786E0
9.776131667E-1,-2.047434136E0,-6.591768665E-1,-1.070338672E0,2.402524829E0
9.875981667E-1,-1.387978138E0,-6.535462902E-1,-5.428005373E-1,1.627340925E0
9.975841666E-1,-6.492455900E-1,-5.440897753E-1,-3.240971303E-1,9.069688360E-1
1.007570167E0,1.145715129E-1,-4.978080402E-1,-4.061066687E-1,6.525811082E-1
1.017556167E0,9.254733199E-1,-5.278378049E-1,-4.525569499E-1,1.157549743E0
1.027542167E0,1.740468763E0,-4.830178736E-1,-2.408877432E-1,1.822241665E0
1.037527167E0,2.242519469E0,-6.526524702E-1,1.286107508E-1,2.339100156E0
1.047513167E0,2.566456971E0,-7.758677758E-1,3.740908972E-1,2.707141701E0
1.057499167E0,2.495458324E0,-7.155749425E-1,5.301598804E-1,2.649609262E0
1.067485167E0,2.060882147E0,-7.552181876E-1,7.156908636E-1,2.308636642E0
1.077471167E0,1.619612662E0,-8.840414116E-1,4.890679877E-1,1.908890225E0
1.087456167E0,1.579461002E0,-8.443082656E-1,9.167980984E-2,1.793309424E0
1.097442167E0,1.614025063E0,-8.107965571E-1,-5.765354633E-2,1.807150213E0
1.107428167E0,1.531389872E0,-8.899400827E-1,-2.466763406E-1,1.788294581E0
1.117414167E0,1.467192122E0,-9.717366363E-1,-7.007580981E-1,1.894198175E0
1.127400167E0,1.502432122E0,-9.114981821E-1,-1.285619996E0,2.177372268E0
1.137385167E0,1.411764611E0,-7.029671761E-1,-1.947278348E0,2.505820252E0
1.147371167E0,1.295525472E0,-4.876756194E-1,-2.530146638E0,2.884069308E0
1.157357167E0,1.216303886E0,-3.587820826E-1,-2.696175696E0,2.979510548E0
1.167343167E0,1.389397842E0,-2.553813829E-1,-2.433673135E0,2.813967118E0
1.177329167E0,1.623452529E0,-1.343647765E-1,-1.936707459E0,2.530708950E0
1.187314167E0,1.837158321E0,-5.923128591E-1,-9.505172369E-1,2.151619910E0
1.197300167E0,1.798161485E0,-1.218564712E0,7.439085031E-1,2.296014927E0
1.207286167E0,1.617992399E0,-1.743416929E0,1.686193153E0,2.915587306E0
1.217272167E0,1.459885442E0,-1.316855384E0,1.463044108E0,2.450687998E0
1.227258167E0,7.123861635E-1,-7.058187901E-1,8.620795619E-1,1.322442960E0
1.237243167E0,-1.286030763E-1,-7.863455477E-1,3.145538896E-1,8.566342400E-1
1.247229167E0,-1.197360077E0,-5.481456234E-1,4.371571380E-1,1.387530591E0
1.257215167E0,-2.686936510E0,-3.634321905E-1,1.305913051E0,3.009504887E0
1.267201167E0,-3.958048103E0,-3.187244162E-1,1.724952591E0,4.329340767E0
1.277187167E0,-4.541313711E0,1.084601128E-1,1.005025858E0,4.652458576E0
1.287172167E0,-4.079240418E0,3.062930164E-1,-8.453495085E-2,4.091596749E0
1.297158167E0,-3.216046962E0,4.586723700E-1,-7.286244661E-1,3.329299027E0
1.307144167E0,-2.629081820E0,3.805347116E-1,-1.203211970E0,2.916264207E0
1.317130167E0,-2.510159394E0,-2.024492439E-2,-1.895587792E0,3.145562448E0
1.327116167E0,-2.574581092E0,-1.647729656E-1,-2.163683800E0,3.367067792E0
1.337101167E0,-2.501624798E0,-5.744660606E-1,-2.233981365E0,3.402765143E0
1.347087167E0,-1.916672852E0,-7.250883624E-1,-1.631940347E0,2.619659759E0
1.357073167E0,-1.003059732E0,-6.257840026E-1,-3.952758712E-1,1.246586322E0
1.367059167E0,-6.133232206E-2,-6.265189245E-1,1.112791212E0,1.278511595E0
1.377045167E0,6.054823968E-1,-9.539371271E-1,2.717658366E0,2.943173792E0
1.387029958E0,8.815768102E-1,-1.199773369E0,3.766348892E0,4.049940467E0
1.397015958E0,6.033142492E-1,-9.733683749E-1,4.163501719E0,4.318122352E0
1.407001958E0,-1.086997390E-1,-6.987931412E-1,3.949259738E0,4.012079257E0
1.416987958E0,-1.120070411E0,-3.471161931E-1,3.416718725E0,3.612341930E0
1.426973958E0,-2.234830965E0,-1.301853329E-1,2.612959292E0,3.440781005E0
1.436958958E0,-2.940466811E0,3.298326641E-2,1.448279303E0,3.277948429E0
1.446944958E0,-3.238185397E0,3.302824247E-1,7.120897096E-1,3.331966822E0
1.456930958E0,-3.681532105E0,3.657993262E-1,8.212443620E-1,3.789713721E0
1.466916958E0,-4.412571471E0,1.339150525E-1,1.677595407E0,4.722610145E0
1.476902958E0,-4.874489813E0,-4.305520501E-2,3.089840659E0,5.771448691E0
1.486887958E0,-4.752692019E0,-1.132285537E-1,4.950915261E0,6.863851984E0
1.496873958E0,-4.257790703E0,-3.101361355E-1,6.571483943E0,7.836412910E0
1.506859958E0,-3.676780658E0,-9.284544497E-1,7.617283021E0,8.509038976E0
1.516845958E0,-3.042825537E0,-1.438786787E0,8.168913438E0,8.835159389E0
1.526831958E0,-2.281972972E0,-1.899408802E0,8.236454626E0,8.755246384E0
1.536816958E0,-9.707430482E-1,-2.516647756E0,8.082496853E0,8.520716718E0
1.546802958E0,6.420570230E-1,-2.798220134E0,8.035553652E0,8.533017967E0
1.556788958E0,2.081496506E0,-2.852987202E0,8.323302151E0,9.041544247E0
1.566774958E0,3.058008417E0,-3.310397049E0,8.762068443E0,9.853120698E0
1.576760958E0,4.678208724E0,-4.536702890E0,8.972416179E0,1.108925435E1
1.586745958E0,6.652122309E0,-4.968789030E0,9.155386081E0,1.235963956E1
1.596731958E0,7.962840602E0,-5.245136628E0,9.111726092E0,1.318870127E1
1.606717958E0,9.415777212E0,-6.023125627E0,8.685189836E0,1.415512011E1
1.616703958E0,1.052360355E1,-6.312340608E0,8.300382235E0,1.481513486E1
1.626689958E0,1.124496753E1,-6.918467075E0,8.007311016E0,1.544122764E1
1.636674958E0,1.175173402E1,-7.879466908E0,6.935768402E0,1.575735176E1
1.646660958E0,1.165270090E1,-8.373074235E0,5.270689545E0,1.528639848E1
1.656646958E0,1.178503040E1,-8.836106472E0,2.860460821E0,1.500486439E1
1.666632958E0,1.187681766E1,-7.822814405E0,4.485586238E-1,1.422871841E1
1.676618958E0,1.042089019E1,-7.115030585E0,-1.189224115E0,1.267410220E1
1.686603958E0,8.623076034E0,-6.958571373E0,-1.795323393E0,1.122507648E1
1.696589958E0,6.292049015E0,-7.125260873E0,-2.891484393E0,9.935789114E0
1.706575958E0,4.582631307E0,-7.359206218E0,-4.760213585E0,9.890301270E0
1.716561958E0,3.635817404E0,-6.063513515E0,-6.660296717E0,9.713131148E0
1.726547958E0,2.147518587E0,-5.246218947E0,-7.801290804E0,9.643380503E0
1.736532958E0,6.805626923E-1,-5.067108791E0,-7.695743884E0,9.239222424E0
1.746518958E0,-9.349142343E-1,-4.798143303E0,-7.171104798E0,8.678766491E0
1.756504958E0,-2.274877961E0,-4.336583396E0,-6.979095100E0,8.525772323E0
1.766490958E0,-2.650866206E0,-3.673163863E0,-7.029803324E0,8.362855922E0
1.776476958E0,-2.955923048E0,-3.007186173E0,-7.208512945E0,8.351245932E0
1.786461958E0,-3.340288015E0,-2.589737075E0,-7.340661188E0,8.470511721E0
1.796447958E0,-3.558970372E0,-2.306109109E0,-7.036379102E0,8.215536514E0
1.806433958E0,-3.755038623E0,-2.008038520E0,-6.475318880E0,7.749986345E0
1.816419958E0,-3.774991077E0,-1.653531191E0,-5.845736307E0,7.152437067E0
1.826405958E0,-3.856731058E0,-1.318804115E0,-5.057303596E0,6.495378234E0
1.836390958E0,-3.798072376E0,-1.262545129E0,-4.418641466E0,5.961859305E0
1.846376958E0,-3.453525778E0,-1.101679675E0,-4.054743508E0,5.438886221E0
1.856362958E0,-3.096453275E0,-8.827452300E-1,-3.832455758E0,5.005494897E0
1.866348958E0,-2.658032554E0,-7.386673513E-1,-3.498956305E0,4.455722358E0
1.876334958E0,-2.377573779E0,-6.660969000E-1,-2.823850819E0,3.751089922E0
1.886319958E0,-2.145586667E0,-6.274449773E-1,-1.912756387E0,2.942085373E0
1.896305958E0,-1.930171149E0,-6.898062631E-1,-1.167660899E0,2.358988199E0
1.906291958E0,-1.492572547E0,-7.533496367E-1,-7.446931263E-1,1.830266739E0
1.916277958E0,-9.616670001E-1,-6.220866620E-1,-5.423349528E-1,1.267249950E0
1.926263958E0,-8.185786164E-1,-5.130858645E-1,-4.865058839E-1,1.081672793E0
1.936248958E0,-5.922364068E-1,-5.992040221E-1,-5.331058538E-1,9.969911098E-1
1.946234958E0,-3.316014469E-2,-4.914100899E-1,-4.562348485E-1,6.713670446E-1
1.956220958E0,1.603943878E-1,-3.282940424E-1,-2.732462347E-1,4.562530468E-1
1.966206958E0,1.572959483E-1,-4.074039466E-1,-3.575127252E-1,5.643893512E-1
1.976192958E0,3.872628468E-1,-3.941640962E-1,-6.424699096E-1,8.474110171E-1
1.986177958E0,4.523756862E-1,-1.098261320E-1,-8.626420641E-1,9.802330700E-1
1.996163958E0,2.366572827E-1,-5.429461330E-2,-7.098893293E-1,7.502649094E-1
2.006149958E0,-8.341930211E-2,-1.647277594E-1,-2.432266295E-1,3.053738823E-1
2.016135958E0,-3.931445611E-1,-2.531563711E-1,1.524356695E-1,4.918205236E-1
2.026121958E0,-5.142187625E-1,-2.991336125E-1,1.559018990E-1,6.149855738E-1
2.036106958E0,-3.898631036E-1,-2.746827494E-1,1.221846608E-1,4.923138671E-1
2.046092958E0,-3.370147991E-1,-2.596198833E-1,-2.927116156E-2,4.264249753E-1
2.056078958E0,-8.059977472E-2,-2.857442196E-1,-3.902360829E-1,4.903369077E-1
2.066064958E0,3.282726270E-1,-1.473704459E-1,-7.649701738E-1,8.453758530E-1
2.076050958E0,6.437357587E-1,-1.304942121E-1,-8.741914845E-1,1.093451059E0
2.086035958E0,8.347321343E-1,-2.321389930E-1,-6.037753753E-1,1.056035488E0
2.096021958E0,9.692321277E-1,-3.440624481E-1,-1.471299060E-1,1.038959621E0
2.106007958E0,1.160316212E0,-3.631419128E-1,3.826617459E-1,1.274612008E0
2.115993958E0,1.506666675E0,-3.539647079E-1,9.151268180E-1,1.797996824E0
2.125979958E0,1.875419576E0,-2.741353038E-1,1.399822112E0,2.356236553E0
2.135964958E0,2.021902269E0,-2.550204635E-1,1.831268713E0,2.739830162E0
2.145950958E0,2.251676209E0,-2.764629342E-1,2.014650990E0,3.034023091E0
2.155936958E0,2.583316832E0,-1.943591094E-1,2.058950812E0,3.309166022E0
2.165922958E0,2.647171935E0,-1.474881211E-1,1.930254911E0,3.279505454E0
2.175908958E0,2.684678900E0,-9.395993158E-2,1.724345065E0,3.192130193E0
2.185893958E0,2.627225913E0,1.418987677E-2,1.507958471E0,3.029266595E0
2.195879958E0,2.413355230E0,1.909627542E-2,1.171888436E0,2.682903398E0
2.205865958E0,2.118714033E0,5.108624607E-2,8.780332513E-1,2.294014244E0
2.215851958E0,1.826119362E0,4.063610226E-2,6.427344230E-1,1.936355018E0
2.225837958E0,1.650944383E0,1.281534255E-1,4.794905408E-1,1.723934985E0
2.235823958E0,1.690731177E0,1.462236607E-1,5.354690060E-1,1.779516880E0
2.245808958E0,1.670289896E0,-1.343729626E-1,4.675740615E-1,1.739698230E0
2.255794958E0,1.703455887E0,-3.921278764E-1,-7.831643701E-2,1.749759897E0
2.265780958E0,1.940724789E0,-4.265954585E-1,-9.891720101E-1,2.219652598E0
2.275766958E0,2.197417556E0,-4.426044041E-1,-1.947600822E0,2.969459806E0
2.285751958E0,2.334290349E0,-4.547025856E-1,-2.442975763E0,3.409368923E0
2.295737958E0,2.124896879E0,-6.296626800E-1,-2.453447541E0,3.306216369E0
2.305723958E0,1.753012210E0,-9.174265279E-1,-2.418797234E0,3.124948527E0
2.315709958E0,1.429579908E0,-9.761625400E-1,-2.479744224E0,3.024189715E0
2.325695958E0,1.241672616E0,-1.024944837E0,-2.547626013E0,3.013745362E0
2.335680958E0,1.257527341E0,-1.038884307E0,-2.705658418E0,3.159310540E0
2.345666958E0,1.238390574E0,-9.676154456E-1,-2.857360919E0,3.261043129E0
2.355652958E0,8.789142805E-1,-1.033853582E0,-2.724776182E0,3.043969248E0
2.365638958E0,3.035470909E-1,-1.237992671E0,-1.955791309E0,2.334499162E0
2.375624958E0,-6.188921088E-1,-1.713493510E0,-9.419016570E-1,2.050918376E0
2.385611792E0,-1.178271841E0,-1.666052418E0,-1.096195060E-1,2.043543890E0
2.395596792E0,-1.723168606E0,-1.362019716E0,2.111271697E-1,2.206577085E0
2.405582792E0,-2.253674787E0,-1.300614596E0,1.890112460E-1,2.608902763E0
2.415568792E0,-2.992673383E0,-1.153309347E0,2.683269721E-1,3.218418213E0
2.425554792E0,-3.767280353E0,-1.139232321E0,3.271324199E-1,3.949337560E0
2.435540792E0,-4.196681744E0,-1.026855195E0,5.812793094E-1,4.359409925E0
2.445525792E0,-4.304297410E0,-9.046427603E-1,1.753051971E0,4.734822692E0
2.455511792E0,-4.480116168E0,-8.529105431E-1,3.507330102E0,5.753282691E0
2.465497792E0,-4.622015228E0,-1.110383987E0,4.182910967E0,6.331881357E0
2.475483792E0,-4.660199300E0,-1.130785872E0,3.273170165E0,5.806012154E0
2.485469792E0,-4.586723188E0,-5.696350911E-1,1.330706415E0,4.809708235E0
2.495454792E0,-4.610095679E0,-7.898623556E-2,-7.329297709E-1,4.668662232E0
2.505440792E0,-4.626345091E0,1.965603668E-1,-2.092989208E0,5.081565576E0
2.515426792E0,-4.667723497E0,8.620886251E-2,-2.641794836E0,5.364154600E0
2.525412792E0,-4.563852974E0,-2.824409082E-1,-2.687851599E0,5.304061939E0
2.535398792E0,-4.080261342E0,-4.911655301E-1,-2.445353533E0,4.782209751E0
2.545383792E0,-2.972269524E0,-5.576607974E-1,-1.550891506E0,3.398622685E0
2.555369792E0,-2.236516718E0,-9.261210452E-1,-2.359298891E-1,2.432153394E0
2.565355792E0,-2.028433608E0,-1.267514532E0,1.313110389E0,2.728625090E0
2.575341792E0,-2.325161676E0,-1.459370448E0,2.541651328E0,3.741140254E0
2.585327792E0,-2.924151617E0,-1.566791401E0,3.400403824E0,4.750604608E0
2.595312792E0,-3.513685441E0,-1.635437713E0,3.575844852E0,5.273263534E0
2.605298792E0,-4.287320604E0,-1.547580666E0,2.848255928E0,5.374819598E0
2.615284792E0,-5.108920476E0,-1.116708554E0,1.921893246E0,5.571515061E0
2.625270792E0,-5.662220274E0,-6.860981052E-1,9.427015561E-1,5.781016802E0
2.635256792E0,-5.508181225E0,-6.298186545E-1,3.946853024E-1,5.558102953E0
2.645241792E0,-4.900523372E0,-6.650099757E-1,1.137216786E0,5.074507819E0
2.655227792E0,-4.438267061E0,-9.042413490E-1,2.909501418E0,5.383406489E0
2.665213792E0,-4.389574957E0,-1.376170270E0,4.893776854E0,6.716492002E0
2.675199792E0,-4.011574100E0,-1.845653594E0,6.415135828E0,7.788012047E0
2.685185792E0,-3.396756331E0,-2.248620454E0,7.117933143E0,8.201171852E0
2.695170792E0,-2.635627778E0,-2.680252266E0,6.901334149E0,7.858670309E0
2.705156792E0,-1.624165889E0,-3.024242208E0,6.423761056E0,7.283451234E0
2.715142792E0,-9.055553645E-1,-2.894303920E0,6.313031164E0,7.003669622E0
2.725128792E0,-6.347971201E-1,-3.019681380E0,6.685978857E0,7.363678177E0
2.735114792E0,-9.155102491E-2,-3.700871771E0,7.170194387E0,8.069480838E0
2.745099792E0,6.299480242E-1,-3.925015427E0,7.263554540E0,8.280205624E0
2.755085792E0,1.815006729E0,-4.235035094E0,6.800760285E0,8.214627936E0
2.765071792E0,3.545643398E0,-4.404548214E0,6.072295448E0,8.297252804E0
2.775057792E0,5.368029898E0,-3.875758190E0,6.164525920E0,9.046470381E0
2.785043792E0,6.879088417E0,-4.136746615E0,7.057982810E0,1.068876285E1
2.795028792E0,8.058098177E0,-5.074663979E0,8.021036770E0,1.245079080E1
2.805014792E0,9.391756850E0,-6.188535172E0,7.667131703E0,1.361205249E1
2.815000792E0,1.047143002E1,-5.608110725E0,6.207053304E0,1.340258420E1
2.824986792E0,1.082092628E1,-5.731053112E0,4.705348576E0,1.311783979E1
2.834972792E0,1.115704880E1,-6.302116751E0,3.108237461E0,1.318550543E1
2.844957792E0,1.103676689E1,-6.416953728E0,1.401641911E0,1.284336866E1
2.854943792E0,1.040527696E1,-6.266151697E0,-4.997638607E-1,1.215665289E1
2.864929792E0,9.498333465E0,-5.977040212E0,-2.222512490E0,1.144040690E1
2.874915792E0,8.301997236E0,-5.691689656E0,-3.348822026E0,1.060816187E1
2.884901792E0,6.378150435E0,-5.118726842E0,-3.914457110E0,9.066705130E0
2.894886792E0,4.388391480E0,-4.871415932E0,-3.925767964E0,7.642010670E0
2.904872792E0,3.120238579E0,-4.909227537E0,-4.002810878E0,7.061083396E0
2.914858792E0,2.908322035E0,-4.595721176E0,-4.690126519E0,7.181662548E0
2.924844792E0,2.514227886E0,-4.456178544E0,-5.770207238E0,7.711949212E0
2.934830792E0,2.342479375E0,-3.846570936E0,-6.514396407E0,7.919638763E0
2.944815792E0,2.015071551E0,-3.293359139E0,-6.485602963E0,7.547832376E0
2.954801792E0,1.263621309E0,-3.233554695E0,-5.623016447E0,6.608398349E0
2.964787792E0,9.818644524E-2,-3.103228736E0,-5.053928583E0,5.931430121E0
2.974773792E0,-8.238954896E-1,-2.798452268E0,-4.837961088E0,5.649425313E0
2.984759792E0,-1.391236791E0,-2.320253524E0,-5.010779639E0,5.694473533E0
2.994744792E0,-1.869302804E0,-1.712790967E0,-5.386379630E0,5.953237051E0
3.004730792E0,-2.481795720E0,-1.303302561E0,-5.330739280E0,6.022847236E0
3.014716792E0,-2.897964277E0,-9.960740635E-1,-4.793305902E0,5.689124885E0
3.024702792E0,-2.990806367E0,-6.686472362E-1,-4.048974060E0,5.078011697E0
3.034688792E0,-2.769162980E0,-3.823640496E-1,-3.515091112E0,4.491139210E0
3.044673792E0,-2.422939401E0,-1.563310115E-1,-3.179556243E0,4.000581536E0
3.054659792E0,-2.224121205E0,9.556747735E-2,-2.521171455E0,3.363354543E0
3.064645792E0,-2.166321478E0,1.377704872E-1,-1.979560680E0,2.937786572E0
3.074631792E0,-1.784888890E0,2.410400632E-1,-2.042854012E0,2.723450234E0
3.084617792E0,-1.106262796E0,4.303900091E-1,-2.208810125E0,2.507567567E0
3.094602792E0,-7.105928224E-1,3.995993024E-1,-2.048795952E0,2.205036647E0
3.104588792E0,-5.421678686E-1,2.885253015E-1,-1.557267895E0,1.674000043E0
3.114574792E0,-1.725525033E-1,2.961032930E-1,-1.131616396E0,1.182373543E0
3.124560792E0,4.739945966E-1,2.928022474E-1,-6.969401586E-1,8.922609587E-1
3.134546792E0,7.775411028E-1,1.863770753E-1,1.801046940E-1,8.196000741E-1
3.144531792E0,6.694255006E-1,-9.150483191E-2,8.955623998E-1,1.121844752E0
3.154517792E0,6.388673669E-1,-2.417917228E-1,9.614003670E-1,1.179366531E0
3.164503792E0,8.097651082E-1,-1.660550773E-1,6.884418154E-1,1.075753667E0
3.174489792E0,9.162300414E-1,-1.494103932E-1,4.788765100E-1,1.044568651E0
3.184475792E0,6.074040842E-1,-1.606578049E-1,4.228133333E-1,7.573121989E-1
3.194460792E0,3.074881142E-1,-1.294784045E-1,2.041602123E-1,3.911457400E-1
3.204446792E0,9.129199326E-2,-7.238765270E-2,-7.480401456E-2,1.384551945E-1
3.214432792E0,-8.626280308E-2,1.648797870E-2,-3.275013793E-1,3.390726737E-1
3.224418792E0,-8.918465674E-2,5.396512270E-2,-4.721024376E-1,4.834737315E-1
3.234404792E0,-4.761855483E-2,2.929805875E-2,-4.728719312E-1,4.761656921E-1
3.244389792E0,3.004691166E-1,-4.427043915E-2,-3.077646875E-1,4.323894826E-1
3.254375792E0,7.785930169E-1,-4.985306829E-2,-2.740122199E-2,7.806684580E-1
3.264361792E0,1.132242560E0,-8.834733546E-2,9.712225199E-2,1.139829460E0
3.274347792E0,1.498416254E0,-1.930434859E-1,-1.350237211E-2,1.510860474E0
3.284333792E0,2.021893498E0,-3.385815606E-1,-3.145111319E-1,2.074031832E0
3.294318792E0,2.565250105E0,-3.845479846E-1,-7.093573058E-1,2.689158426E0
3.304304792E0,2.981472457E0,-3.312301487E-1,-1.154846288E0,3.214430178E0
3.314290792E0,3.164882655E0,-1.824103242E-1,-1.312767742E0,3.431197297E0
3.324276792E0,3.291325185E0,-3.101450890E-2,-9.708333877E-1,3.431661528E0
3.334262792E0,3.437127262E0,-9.554058015E-3,6.259882897E-2,3.437710533E0
3.344248792E0,3.717857348E0,-2.716511142E-1,1.673099190E0,4.086014989E0
3.354233792E0,3.711371616E0,-5.423207733E-1,2.287677808E0,4.393388311E0
3.364219792E0,3.680505919E0,-8.462838936E-1,1.589927518E0,4.097583405E0
3.374205792E0,3.722038692E0,-7.430840456E-1,6.607245514E-1,3.852570941E0
3.384190792E0,3.592064443E0,-3.045775165E-1,1.648218995E-1,3.608720090E0
3.394176792E0,2.638409883E0,-6.891341257E-1,-1.236762124E-1,2.729726792E0
3.404161792E0,2.000515493E0,-1.256221804E0,-1.897082341E-1,2.369840643E0
3.414147792E0,8.793288481E-1,-1.217160211E0,-8.725799918E-2,1.504098454E0
3.424133792E0,-3.143439746E-1,-1.620188321E0,-2.692467391E-1,1.672218926E0
3.434119792E0,-1.015863088E0,-1.782806258E0,-5.740422106E-1,2.130704209E0
3.444105792E0,-1.758878721E0,-1.384931007E0,-8.288363868E-1,2.387186211E0
3.454090792E0,-2.843288133E0,-1.327110669E0,-1.115687923E0,3.330205651E0
3.464076792E0,-4.071924382E0,-1.301973635E0,-1.271926695E0,4.460213115E0
3.474062792E0,-5.046186284E0,-1.273856129E0,-1.431355122E0,5.397729425E0
3.484048792E0,-5.698473596E0,-1.066369290E0,-1.776917966E0,6.063594829E0
3.494034792E0,-5.937428834E0,-8.646715596E-1,-2.449341919E0,6.480740228E0
3.504019792E0,-5.592675830E0,-5.621382297E-1,-3.261515495E0,6.498577202E0
3.514005792E0,-4.848851527E0,-4.847555565E-1,-4.296862090E0,6.496874087E0
3.523991792E0,-3.704157906E0,-2.224000716E-1,-5.009551724E0,6.234248637E0
3.533977792E0,-2.579818443E0,-8.718034085E-2,-4.734665346E0,5.392598589E0
3.543963792E0,-1.690606631E0,-4.579415777E-1,-3.566139058E0,3.973060414E0
3.553948792E0,-1.333342339E0,-1.364297499E0,-2.068112229E0,2.813573822E0
3.563934792E0,-1.219536812E0,-2.159978419E0,-1.133357624E0,2.727137017E0
3.573920792E0,-1.437832668E0,-2.571370094E0,-1.292872006E0,3.217269799E0
3.583906792E0,-1.761853784E0,-2.108772013E0,-2.226134986E0,3.536484856E0
3.593892792E0,-2.386313612E0,-2.110070241E0,-3.096298909E0,4.442291752E0
3.603877792E0,-3.166411702E0,-1.882891879E0,-3.063956205E0,4.791583509E0
3.613863792E0,-3.944933968E0,-1.998314162E0,-2.307430580E0,4.987985503E0
3.623849792E0,-4.250826961E0,-2.840721498E0,-9.292050129E-1,5.196407455E0
3.633835792E0,-3.600253469E0,-3.690750241E0,3.131657606E-1,5.165417231E0
3.643821792E0,-1.874152485E-1,-3.928394533E0,1.421078056E0,4.181730614E0
3.653806792E0,3.246631992E0,-3.846807456E0,2.722659490E0,5.722885775E0
3.663792792E0,5.002943786E0,-3.511852631E0,3.976439935E0,7.292093663E0
3.673778792E0,4.954749865E0,-3.162562480E0,5.363787743E0,7.957484943E0
3.683764792E0,3.134359605E0,-2.482472535E0,6.480095471E0,7.614362569E0
3.693750792E0,5.832889974E-1,-1.532083645E0,6.935042177E0,7.126171227E0
3.703735792E0,-1.670888650E0,-7.594170731E-1,6.787410507E0,7.031182302E0
3.713721792E0,-3.323607663E0,1.717385709E-1,6.445157772E0,7.253683254E0
3.723707792E0,-4.592453460E0,1.260995032E0,6.182119607E0,7.803802924E0
3.733693792E0,-5.524628273E0,1.733862286E0,6.287081805E0,8.547233097E0
3.743679792E0,-5.831024712E0,9.366771698E-1,6.719866396E0,8.946218066E0
3.753664792E0,-4.966446050E0,-8.573079416E-1,6.865518783E0,8.516801714E0
3.763650792E0,-3.232691353E0,-2.830016708E0,5.864631000E0,7.270019581E0
3.773636792E0,-8.821024749E-1,-3.871089189E0,4.024966562E0,5.653652988E0
3.783622792E0,7.598515213E-1,-3.384090092E0,2.034029979E0,4.020785749E0
3.793608792E0,1.234416514E0,-1.972202982E0,9.551005769E-1,2.515071737E0
3.803593792E0,4.100570476E-1,-3.949578557E-1,1.684274096E0,1.777896994E0
3.813579792E0,-7.178936559E-1,2.034962975E-1,4.642544217E0,4.702127056E0
3.823565792E0,-2.340302164E0,-7.993571375E-1,8.752947371E0,9.095607387E0
3.833551792E0,-2.448314271E0,-3.024427857E0,1.204009998E1,1.265327682E1
3.843537792E0,-1.610722556E0,-5.292402595E0,1.328628782E1,1.439199070E1
3.853522792E0,-9.258773625E-2,-8.058615071E0,1.167348892E1,1.418521036E1
3.863508792E0,1.767020384E0,-8.904047610E0,8.655955512E0,1.254312524E1
3.873494792E0,4.571080132E0,-8.880173428E0,5.275384859E0,1.129521753E1
3.883480792E0,8.104404616E0,-7.804068816E0,2.974975031E0,1.163766904E1
3.893466792E0,1.047585051E1,-7.215173509E0,2.456493648E0,1.295517402E1
3.903451792E0,1.133388731E1,-7.583717079E0,3.157414007E0,1.399782231E1
3.913437792E0,1.173507179E1,-8.650388963E0,3.399312149E0,1.496985178E1
3.923423792E0,1.206514244E1,-8.274958541E0,2.573877087E0,1.485487947E1
3.933409792E0,1.166650734E1,-7.904903466E0,1.374550007E0,1.415924716E1
3.943395792E0,1.145378096E1,-7.563024368E0,3.598110464E-1,1.373018208E1
3.953380792E0,1.041671996E1,-7.623807929E0,2.984225911E-1,1.291199280E1
3.963366792E0,8.973766301E0,-8.002068402E0,1.672049323E-1,1.202453899E1
3.973352792E0,7.727145771E0,-8.617949195E0,-8.338664541E-1,1.160487671E1
3.983338792E0,7.493570555E0,-8.700069830E0,-3.269371229E0,1.193874378E1
3.993324792E0,7.813807939E0,-7.709043961E0,-5.796982223E0,1.241329755E1
4.003310792E0,6.913309246E0,-7.353903378E0,-6.865224084E0,1.220676212E1
4.013295792E0,5.966077268E0,-7.224189915E0,-7.059974957E0,1.173142124E1
4.023281792E0,4.693746530E0,-7.125779521E0,-7.058947016E0,1.107414662E1
4.033267792E0,3.178572156E0,-7.141983325E0,-6.604799623E0,1.023399359E1
4.043253792E0,1.277718946E0,-7.117626164E0,-6.140716642E0,9.486915663E0
4.053238792E0,-5.204723597E-1,-6.892778503E0,-5.992700225E0,9.148428442E0
4.063224792E0,-1.851974580E0,-6.357319729E0,-6.023552474E0,8.951452865E0
4.073210792E0,-2.839211454E0,-5.506577919E0,-5.942835170E0,8.584917700E0
4.083196792E0,-4.101563333E0,-4.697378821E0,-5.934873601E0,8.608769612E0
4.093182792E0,-5.227796125E0,-4.051839196E0,-5.733058122E0,8.753011403E0
4.103168792E0,-5.834376336E0,-3.551460208E0,-5.546438388E0,8.798624644E0
4.113153792E0,-5.934746717E0,-2.854912398E0,-5.600129276E0,8.644836106E0
4.123139792E0,-5.718990891E0,-2.173010108E0,-5.612997828E0,8.302684768E0
4.133125792E0,-5.576335786E0,-1.668795055E0,-5.401339731E0,7.940709579E0
4.143111792E0,-5.008774045E0,-1.337368878E0,-5.339553958E0,7.442258354E0
4.153097792E0,-4.055741628E0,-9.655143218E-1,-5.461880048E0,6.871200166E0
4.163082792E0,-3.162256086E0,-6.771077187E-1,-5.376921759E0,6.274521975E0
4.173068792E0,-2.600892393E0,-5.458316609E-1,-4.699283844E0,5.398688923E0
4.183054792E0,-2.119444935E0,-6.593292595E-1,-3.802574732E0,4.402991767E0
4.193040792E0,-1.532264616E0,-7.163754264E-1,-3.169656907E0,3.592736215E0
4.203026792E0,-1.253700923E0,-6.993357629E-1,-2.538058214E0,2.915917696E0
4.213011792E0,-1.135373159E0,-8.587411673E-1,-1.294139097E0,1.923877492E0
4.222997792E0,-7.388997781E-1,-9.738746707E-1,-1.461423844E-1,1.231163008E0
4.232983792E0,-3.207227021E-1,-9.986401141E-1,2.553040534E-1,1.079502334E0
4.242969792E0,1.247801667E-1,-8.504584401E-1,2.140092623E-1,8.858045003E-1
4.252955792E0,2.238507110E-1,-6.772166231E-1,2.871333718E-2,7.138318788E-1
4.262940792E0,7.368193388E-2,-5.953167931E-1,-2.003595221E-1,6.324358067E-1
4.272926792E0,4.458443463E-2,-4.925083432E-1,-5.330988371E-1,7.271496476E-1
4.282912792E0,1.538870215E-2,-2.918855502E-1,-8.779968524E-1,9.253715250E-1
4.292898792E0,1.980451941E-2,-2.087349276E-1,-9.138952482E-1,9.376390636E-1
4.302884792E0,2.812054646E-1,-2.783558971E-1,-6.991141534E-1,8.033175700E-1
4.312869792E0,5.897934401E-1,-2.254226618E-1,-3.182779813E-1,7.070873721E-1
4.322855792E0,6.005686891E-1,-3.133326986E-1,-2.749360800E-3,6.773977335E-1
4.332841792E0,3.966563988E-1,-5.112052538E-1,1.207930235E-1,6.582234155E-1
4.342827792E0,2.046811992E-1,-5.508436748E-1,4.874823689E-2,5.896605278E-1
4.352813792E0,-7.662191391E-2,-3.337837739E-1,-1.755649889E-1,3.848448918E-1
4.362798792E0,-6.531141078E-1,-2.838400738E-1,-4.658802693E-1,8.509804056E-1
4.372784792E0,-1.190577891E0,-4.324878439E-1,-9.606215179E-1,1.589753173E0
4.382770792E0,-1.097918234E0,-4.023815538E-1,-1.414435473E0,1.835201098E0
4.392757542E0,-7.433857620E-2,-4.191629165E-1,-1.357863661E0,1.423031095E0
4.402743542E0,9.655887276E-1,-4.828279853E-1,-7.218981215E-1,1.298699870E0
4.412728542E0,1.485305627E0,-8.698202522E-1,-2.836352751E-1,1.744468127E0
4.422714542E0,1.940691460E0,-1.103242709E0,-3.214024410E-1,2.255377429E0
4.432700542E0,2.387439786E0,-1.013773878E0,-8.128998005E-1,2.718163404E0
4.442686542E0,2.918666929E0,-8.062933239E-1,-1.423005591E0,3.345694319E0
4.452672542E0,3.145415520E0,-5.719646949E-1,-1.687290090E0,3.614931570E0
4.462657542E0,3.883213098E0,-7.686216138E-1,-1.402501744E0,4.199658831E0
4.472643542E0,4.587567526E0,-9.133141811E-1,-4.460586467E-1,4.698817608E0
4.482629542E0,4.465923221E0,-1.407909396E0,2.824792805E-1,4.691105800E0
4.492615542E0,4.401362359E0,-1.755533967E0,2.818854958E-2,4.738637433E0
4.502601542E0,4.598491294E0,-1.476021857E0,-7.436184812E-1,4.886484539E0
4.512586542E0,4.582291583E0,-1.314718080E0,-1.282035946E0,4.936546967E0
4.522572542E0,4.066340291E0,-1.570978885E0,-1.837848877E0,4.730833596E0
4.532558542E0,3.509864870E0,-1.866480061E0,-2.588680483E0,4.743855591E0
4.542544542E0,3.073171417E0,-2.075315853E0,-3.844091717E0,5.341194583E0
4.552530542E0,2.678430566E0,-2.148127867E0,-5.481921380E0,6.468377358E0
4.562515542E0,2.005478609E0,-2.289540146E0,-6.728001627E0,7.384439344E0
4.572501542E0,1.159173081E0,-2.599555719E0,-7.139160290E0,7.685634770E0
4.582487542E0,5.616192162E-2,-3.006539471E0,-6.373230588E0,7.047020780E0
4.592473542E0,-1.434440698E0,-3.323601816E0,-4.816421115E0,6.025102613E0
4.602459542E0,-3.232375896E0,-3.828802418E0,-2.923358735E0,5.801207476E0
4.612444542E0,-4.504452864E0,-3.971883785E0,-7.977233523E-1,6.058243883E0
4.622430542E0,-5.055914297E0,-3.877813487E0,1.257317426E0,6.494655797E0
4.632416542E0,-5.470483056E0,-3.754690129E0,2.836784860E0,7.216039854E0
4.642402542E0,-5.717651294E0,-3.123193177E0,3.840389845E0,7.562702301E0
4.652388542E0,-5.963606234E0,-2.620121546E0,3.938844677E0,7.612104415E0
4.662373542E0,-5.765557532E0,-1.799087099E0,3.636220862E0,7.049856041E0
4.672359542E0,-5.248227466E0,-1.158956442E0,3.453557353E0,6.388593739E0
4.682345542E0,-4.763424876E0,-1.000733710E0,3.472984727E0,5.979406945E0
4.692331542E0,-4.340443727E0,-9.549859715E-1,3.750656719E0,5.815399881E0
4.702317542E0,-3.897480304E0,-7.080960613E-1,4.341890913E0,5.877394785E0
4.712302542E0,-3.533029785E0,-6.176448977E-1,4.865993809E0,6.044971499E0
4.722288542E0,-3.215362837E0,-5.736744207E-1,4.930418431E0,5.914109098E0
4.732274542E0,-2.767694160E0,-3.359280941E-1,4.885875512E0,5.625367380E0
4.742260542E0,-2.867573959E0,-2.307223588E-1,4.885501290E0,5.669597523E0
4.752246542E0,-3.540865638E0,-5.085127571E-1,4.598000713E0,5.825626597E0
4.762231542E0,-3.328756136E0,-6.737255430E-1,4.284556625E0,5.467353015E0
4.772217542E0,-2.680643152E0,-6.905513446E-1,4.259583752E0,5.080035689E0
4.782203542E0,-2.245824900E0,-6.583884425E-1,4.441663123E0,5.020515524E0
4.792189542E0,-2.019531223E0,-7.406352317E-1,4.873238509E0,5.326865915E0
4.802175542E0,-1.882119316E0,-9.992188422E-1,5.419873651E0,5.823730918E0
4.812160542E0,-1.674372422E0,-1.148857204E0,5.781406994E0,6.127647405E0
4.822146542E0,-1.180988458E0,-1.341413251E0,5.734433972E0,6.006484515E0
4.832132542E0,-8.441490752E-1,-1.175820542E0,5.296811981E0,5.491025293E0
4.842118542E0,-8.295649499E-1,-8.692404277E-1,4.724584746E0,4.874982866E0
4.852104542E0,-7.731849271E-1,-5.835294642E-1,4.498057764E0,4.601178677E0
4.862089542E0,-1.053367129E0,-7.215158598E-1,4.505129387E0,4.682558941E0
4.872075542E0,-8.003481674E-1,-1.389198598E0,4.344856036E0,4.631220564E0
4.882061542E0,-3.697878581E-1,-8.353792749E-1,3.992104626E0,4.095302301E0
4.892047542E0,-3.242339551E-1,-1.391922377E-1,3.697910741E0,3.714706716E0
4.902033542E0,-3.761899745E-1,-1.820682621E-1,4.241234604E0,4.261776474E0
4.912018542E0,-3.703234631E-1,-1.004253441E0,5.595897061E0,5.697343974E0
4.922004542E0,-7.375063866E-1,-1.865572573E0,6.883658016E0,7.170008673E0
4.931990542E0,-4.717352325E-1,-3.485418246E0,6.954687653E0,7.793481560E0
4.941976542E0,9.358895499E-1,-4.976630731E0,6.055866526E0,7.894064990E0
4.951962542E0,2.884924402E0,-5.374671750E0,4.067943597E0,7.331988157E0
4.961948542E0,4.416378009E0,-3.984294792E0,1.820474752E0,6.220380055E0
4.971933542E0,4.909788870E0,-3.358711422E0,9.349539953E-1,6.021719699E0
4.981919542E0,4.605245413E0,-3.633728778E0,1.709073015E0,6.110090075E0
4.991905542E0,4.242036257E0,-4.422961389E0,2.558668187E0,6.641102465E0
5.001891542E0,4.207047104E0,-4.608083652E0,2.234075505E0,6.627576754E0
5.011877542E0,4.352429935E0,-4.287977831E0,1.288951740E0,6.244341182E0
5.021862542E0,5.203020303E0,-4.229843059E0,1.462702923E-1,6.707040150E0
5.031848542E0,6.186708502E0,-4.039315045E0,-7.224609160E-1,7.423838488E0
5.041834542E0,7.657373285E0,-4.077606706E0,-7.977040565E-1,8.711978756E0
5.051820542E0,9.179828027E0,-4.411832383E0,-6.166192230E-1,1.020361342E1
5.061806542E0,1.055694906E1,-5.058615126E0,-1.074414255E0,1.175555725E1
5.071791542E0,1.144506159E1,-5.280134552E0,-1.614450155E0,1.270730912E1
5.081777542E0,1.092553180E1,-5.554288859E0,-1.822230964E0,1.239104094E1
5.091763542E0,9.238727031E0,-6.263101789E0,-1.927842788E0,1.132683093E1
5.101749542E0,6.746362469E0,-6.771703717E0,-2.243631025E0,9.818516077E0
5.111735542E0,4.265561945E0,-6.982988761E0,-2.834177586E0,8.659660117E0
5.121720542E0,2.122066827E0,-6.753480869E0,-3.293863462E0,7.807829914E0
5.131706542E0,2.343985033E-1,-6.317258701E0,-3.521327167E0,7.236189962E0
5.141692542E0,-1.746125359E0,-5.969341768E0,-4.119590299E0,7.460095116E0
5.151678542E0,-3.143203518E0,-5.337158353E0,-5.299606950E0,8.151737328E0
5.161664542E0,-4.014121147E0,-4.351585304E0,-6.740099516E0,8.970975684E0
5.171649542E0,-4.701235644E0,-3.354140361E0,-7.948089831E0,9.824663155E0
5.181635542E0,-4.953200938E0,-2.496413467E0,-8.714348146E0,1.032986657E1
5.191621542E0,-4.867792997E0,-1.738369612E0,-8.960344602E0,1.034432757E1
5.201607542E0,-4.551337593E0,-1.229118059E0,-8.635285605E0,9.838371947E0
5.211593542E0,-4.079066756E0,-8.771688867E-1,-7.712967442E0,8.769154898E0
5.221578542E0,-3.831309119E0,-6.412518615E-1,-6.315656564E0,7.414691588E0
5.231564542E0,-3.320149620E0,-5.986891016E-1,-4.758147179E0,5.832819791E0
5.241550542E0,-2.531753746E0,-5.546089894E-1,-3.106107613E0,4.045401422E0
5.251536542E0,-2.185381647E0,-7.170952186E-1,-1.536665084E0,2.766126909E0
5.261522542E0,-1.779469106E0,-9.072381932E-1,-3.684108388E-1,2.031087882E0
5.271507542E0,-9.911574322E-1,-8.488689476E-1,2.040228027E-1,1.320831878E0
5.281493542E0,-4.691384840E-1,-5.965914130E-1,2.663653775E-1,8.043399440E-1
5.291479542E0,2.538387412E-1,-4.354471198E-1,3.071953149E-1,5.902688050E-1
5.301465542E0,9.700992697E-1,-3.722726324E-1,5.932678556E-1,1.196514210E0
5.311451542E0,1.104071259E0,-3.166188338E-1,7.204586832E-1,1.355832418E0
5.321436542E0,1.175151767E0,-3.034090966E-1,6.491274031E-1,1.376373910E0
5.331422542E0,1.084185464E0,-3.120208758E-1,7.248021412E-1,1.340952382E0
5.341408542E0,6.706814826E-1,-2.568851405E-1,8.091295159E-1,1.081893803E0
5.351394542E0,4.427020526E-1,-2.787461257E-1,7.752372267E-1,9.352418231E-1
5.361380542E0,4.334312922E-1,-3.943894333E-1,8.011527443E-1,9.925983225E-1
5.371365542E0,3.247186893E-1,-3.243058759E-1,8.236406241E-1,9.428681806E-1
5.381351542E0,2.947072703E-1,-2.517214644E-1,5.363662612E-1,6.617437850E-1
5.391337292E0,3.555107117E-1,-1.579435274E-1,1.193318043E-1,4.069079791E-1
5.401323292E0,3.561802179E-1,-2.396101266E-2,-1.792014454E-1,3.994391515E-1
5.411309292E0,2.515407854E-1,-1.978990138E-3,-2.482079456E-1,3.533891161E-1
5.421294292E0,1.408266807E-1,-2.510472804E-2,-7.095892210E-2,1.596795854E-1
5.431280292E0,2.842401695E-1,-4.797845095E-2,2.748068200E-1,3.982627199E-1
5.441266292E0,4.056090707E-1,-1.037383765E-1,7.465531987E-1,8.559334363E-1
5.451252292E0,4.250300127E-1,-1.498246685E-1,1.221212039E0,1.301713020E0
5.461238292E0,6.119959027E-1,-1.745358789E-1,1.696920455E0,1.812330209E0
5.471223292E0,8.653727138E-1,-1.915600473E-1,2.167360529E0,2.341584260E0
5.481209292E0,1.031133091E0,-2.390256974E-1,2.441584418E0,2.661146972E0
5.491195292E0,1.053479980E0,-3.557551253E-1,2.400688992E0,2.645692615E0
5.501181292E0,9.062272096E-1,-6.180123952E-1,2.165511639E0,2.427473529E0
5.511167292E0,1.039037942E0,-7.696856609E-1,1.643861650E0,2.091482007E0
5.521152292E0,1.386620414E0,-6.410261589E-1,1.112440964E0,1.889750144E0
5.531138292E0,1.811106051E0,-6.628131768E-1,8.261155312E-1,2.098068947E0
5.541124292E0,2.314853035E0,-9.491212142E-1,4.336178184E-1,2.539173107E0
5.551110292E0,2.583378228E0,-1.272910781E0,-2.916320734E-1,2.894683781E0
5.561096292E0,2.940548964E0,-1.443909679E0,-1.356625367E0,3.545720767E0
5.571081292E0,3.338283005E0,-1.451065794E0,-2.376802092E0,4.347288068E0
5.581067292E0,3.490049826E0,-1.598022988E0,-3.404839522E0,5.130989907E0
5.591053292E0,3.646994941E0,-1.777857029E0,-4.610610234E0,6.141585662E0
5.601039292E0,4.020851292E0,-1.823644528E0,-5.650225296E0,7.170632495E0
5.611025292E0,4.134683717E0,-2.098837447E0,-6.327542199E0,7.844649026E0
5.621010292E0,3.800851557E0,-2.539827581E0,-6.806133292E0,8.198819859E0
5.630996292E0,3.011969780E0,-2.890576613E0,-7.047769479E0,8.191364339E0
5.640982292E0,1.982913035E0,-3.055946104E0,-6.894356081E0,7.797621206E0
5.650968292E0,5.883158487E-1,-3.332553903E0,-6.069021592E0,6.948744789E0
5.660954292E0,-9.826813084E-1,-3.630423347E0,-4.644714704E0,5.976538372E0
5.670939292E0,-2.312945673E0,-3.948950128E0,-3.123912969E0,5.541006861E0
5.680925292E0,-3.160856847E0,-4.249297622E0,-2.095909600E0,5.695645999E0
5.690911292E0,-3.238529506E0,-3.982512268E0,-2.327967755E0,5.636302972E0
5.700897292E0,-3.129650842E0,-3.419831198E0,-3.232735207E0,5.651595946E0
5.710883292E0,-3.230676110E0,-3.079957695E0,-3.914931612E0,5.937179217E0
5.720868292E0,-3.778062034E0,-2.803737274E0,-3.490826336E0,5.858375538E0
5.730854292E0,-4.683918530E0,-3.132922067E0,-2.415448533E0,6.130961188E0
5.740840292E0,-5.355541999E0,-3.481955525E0,-1.535176822E0,6.569825893E0
5.750826292E0,-5.652526760E0,-3.724264434E0,-1.262908241E0,6.885937959E0
5.760812292E0,-5.432273256E0,-3.426863352E0,-9.861387670E-1,6.498111636E0
5.770797292E0,-5.079345260E0,-2.848402985E0,-2.781520486E-2,5.823566048E0
5.780783292E0,-4.625348725E0,-2.851432720E0,1.329488440E0,5.593930541E0
5.790769292E0,-3.929890836E0,-2.978374017E0,2.545121650E0,5.549089834E0
5.800755292E0,-3.059577810E0,-2.352310006E0,3.648609065E0,5.311000551E0
5.810741292E0,-2.271251518E0,-1.973440545E0,4.316554343E0,5.261719532E0
5.820726292E0,-1.610532521E0,-1.761666381E0,4.698030201E0,5.269608259E0
5.830712292E0,-1.287203130E0,-1.539784720E0,4.704880798E0,5.115049580E0
5.840698292E0,-1.170632454E0,-1.293730962E0,4.363603379E0,4.699484503E0
5.850684292E0,-1.341955873E0,-8.749808586E-1,4.201019794E0,4.496109916E0
5.860670292E0,-1.829656928E0,-6.578930372E-1,4.031151747E0,4.475561655E0
5.870656292E0,-2.339366317E0,-5.310005638E-1,3.894927410E0,4.574391314E0
5.880641292E0,-2.975427021E0,-4.315231995E-1,3.620980094E0,4.706471616E0
5.890627292E0,-3.199280071E0,-4.566033693E-1,3.308591428E0,4.625003443E0
5.900613292E0,-3.534372305E0,-5.173129629E-1,2.998830501E0,4.663945183E0
5.910599292E0,-3.925645173E0,-3.424341448E-1,2.557921205E0,4.697968929E0
5.920585292E0,-2.999600580E0,-1.646504299E-1,2.262484787E0,3.760791248E0
5.930570292E0,-1.813148484E0,-2.296230823E-1,2.476401663E0,3.077791316E0
5.940556292E0,-1.283046929E0,-5.061017308E-1,3.056557723E0,3.353340647E0
5.950542292E0,-1.016402786E0,-5.863200478E-1,3.845088667E0,4.020143366E0
5.960528292E0,-1.006866562E0,-4.876396956E-1,4.768389747E0,4.897868263E0
5.970514292E0,-1.359019217E0,-5.939059331E-1,5.412299168E0,5.611830340E0
5.980499292E0,-1.435254046E0,-1.123732522E0,5.631366271E0,5.919038354E0
5.990485292E0,-1.101345288E0,-1.471837735E0,5.567883636E0,5.863496904E0
6.000471292E0,-7.431629831E-1,-1.354785833E0,5.144805424E0,5.371848725E0
6.010457292E0,-5.700894928E-1,-1.382645185E0,4.470631984E0,4.714155287E0
6.020443292E0,-8.114099300E-1,-1.067140684E0,4.206070034E0,4.414544194E0
6.030428292E0,-8.682910591E-1,-1.480523482E0,4.461927819E0,4.780656754E0
6.040414292E0,-3.091686040E-1,-2.674481941E0,4.634682636E0,5.359918097E0
6.050400292E0,2.697618788E-1,-3.289602888E0,4.514454526E0,5.592366074E0
6.060386292E0,1.366168608E0,-3.551739120E0,3.848454909E0,5.412196655E0
6.070372292E0,2.998874940E0,-2.949304877E0,3.489548135E0,5.465216954E0
6.080357292E0,4.022879691E0,-3.047748015E0,3.984068213E0,6.430017768E0
6.090343292E0,4.283559090E0,-3.643602387E0,5.040388185E0,7.551836193E0
6.100329292E0,4.594476596E0,-5.188603992E0,5.708255403E0,8.978585987E0
6.110315292E0,5.736561189E0,-6.409628921E0,4.465615658E0,9.691914175E0
6.120301292E0,7.054897819E0,-5.461082488E0,1.985781679E0,9.139930747E0
6.130286292E0,8.304325597E0,-4.843079740E0,-1.358583015E-1,9.614348781E0
6.140272292E0,8.806003836E0,-4.444359859E0,-1.602977041E0,9.993376482E0
6.150258292E0,7.985170534E0,-4.228438557E0,-1.782493286E0,9.209773255E0
6.160244292E0,6.257252235E0,-4.495501361E0,-7.087395474E-1,7.737250789E0
6.170230292E0,5.045372937E0,-5.348568610E0,3.878311962E-2,7.352855117E0
6.180215292E0,5.282572256E0,-6.000819084E0,-7.410680719E-1,8.028983822E0
6.190201292E0,6.137755612E0,-5.313227454E0,-2.507959671E0,8.496604713E0
6.200187292E0,6.400462241E0,-5.072313398E0,-3.760557225E0,8.990888207E0
6.210173292E0,6.534122574E0,-5.272888682E0,-4.497682958E0,9.525086081E0
6.220159292E0,6.533846000E0,-5.375543570E0,-5.106079899E0,9.882290431E0
6.230144292E0,6.171670632E0,-5.351468829E0,-5.579978017E0,9.892618040E0
6.240130292E0,5.221482886E0,-5.407436623E0,-5.803100165E0,9.496326968E0
6.250116292E0,3.472202954E0,-5.484823937E0,-5.743618194E0,8.667677713E0
6.260102292E0,1.453314341E0,-5.502661453E0,-5.624741961E0,8.001820279E0
6.270088292E0,-6.199492854E-1,-5.235396920E0,-5.594910636E0,7.687440605E0
6.280073292E0,-2.594021915E0,-4.734093488E0,-5.837699894E0,7.951058476E0
6.290059292E0,-4.052859535E0,-4.051615248E0,-6.274056548E0,8.497355006E0
6.300045292E0,-5.369471821E0,-3.312977425E0,-6.689483678E0,9.195446642E0
6.310031292E0,-6.351728037E0,-2.424589778E0,-7.214718595E0,9.913387365E0
6.320017292E0,-6.512232937E0,-1.443021779E0,-7.609912021E0,1.011939972E1
6.330002292E0,-6.042136095E0,-7.065702304E-1,-7.393495460E0,9.574467358E0
6.339988292E0,-5.510160508E0,-2.742823613E-1,-6.415829893E0,8.461676716E0
6.349974292E0,-4.957737792E0,-1.007460639E-1,-5.023937044E0,7.058984148E0
6.359960292E0,-4.164254841E0,-6.572416574E-2,-3.791232888E0,5.631943257E0
6.369946292E0,-3.299301957E0,7.677978873E-3,-2.902778875E0,4.394494004E0
6.379931292E0,-2.547023165E0,8.089505911E-2,-2.199227854E0,3.366076970E0
6.389917667E0,-1.714088464E0,8.494162470E-2,-1.537472146E0,2.304156015E0
6.399903667E0,-8.019614142E-1,9.370572388E-2,-8.913641721E-1,1.202685728E0
6.409889667E0,2.371373391E-1,5.723956347E-2,-1.118981659E-1,2.683871919E-1
6.419875667E0,9.376185715E-1,-1.416572776E-1,6.434667867E-1,1.145968968E0
6.429860667E0,1.067798057E0,-3.313242888E-1,1.132613858E0,1.591471843E0
6.439846667E0,9.595625871E-1,-4.787232399E-1,1.157392092E0,1.577812649E0
6.449832667E0,7.782556325E-1,-5.604164439E-1,1.016917341E0,1.397808749E0
6.459818667E0,8.201602882E-1,-5.344106600E-1,7.452615488E-1,1.230313955E0
6.469804667E0,9.038169873E-1,-5.160033327E-1,4.815234715E-1,1.146738610E0
6.479789667E0,9.174836844E-1,-4.914517513E-1,3.212764335E-1,1.089274842E0
6.489775667E0,1.002292285E0,-5.324521351E-1,3.024992698E-1,1.174564136E0
6.499761667E0,9.001437664E-1,-5.292022526E-1,1.465575367E-1,1.054415922E0
6.509747667E0,8.002926189E-1,-4.974164960E-1,-1.745563807E-1,9.583117323E-1
6.519733667E0,5.296431327E-1,-4.713200802E-1,-3.375053805E-1,7.852224830E-1
6.529718667E0,2.824123299E-1,-4.134636354E-1,-4.947170923E-1,7.038848651E-1
6.539704667E0,2.487387997E-1,-3.917558473E-1,-7.569051093E-1,8.878338690E-1
6.549690667E0,2.409561557E-1,-3.330702674E-1,-8.868922216E-1,9.775343905E-1
6.559676667E0,2.456941545E-2,-3.212983605E-1,-7.609858811E-1,8.263993005E-1
6.569662667E0,-2.230823869E-1,-3.115954909E-1,-6.185944855E-1,7.276789393E-1
6.579647667E0,-2.654314309E-1,-3.027135703E-1,-7.160792649E-1,8.214979390E-1
6.589633667E0,-1.983258605E-2,-2.654539427E-1,-8.269910055E-1,8.687768703E-1
6.599619667E0,4.137168199E-1,-2.590755075E-1,-8.683968937E-1,9.961901880E-1
6.609605667E0,7.758939421E-1,-2.191653371E-1,-6.959777069E-1,1.065096157E0
6.619591667E0,1.237983608E0,-2.544395426E-1,-4.087449324E-1,1.328312958E0
6.629576667E0,1.486237673E0,-3.057778037E-1,-4.515221754E-2,1.518038606E0
6.639562667E0,1.481265786E0,-2.536060220E-1,2.283209074E-1,1.520064071E0
6.649548667E0,1.308426769E0,-2.166367087E-1,2.675007606E-1,1.352948162E0
6.659534667E0,1.043554332E0,-1.760351050E-1,2.954154046E-1,1.098755779E0
6.669520667E0,8.374972826E-1,-1.889065808E-1,2.539328083E-1,8.953040075E-1
6.679505667E0,7.729586399E-1,-1.936302540E-1,2.945920070E-1,8.495541094E-1
6.689491667E0,7.474554241E-1,-8.938609332E-2,4.155533572E-1,8.598628247E-1
6.699477667E0,5.915692395E-1,1.874383450E-2,5.907779650E-1,8.362560017E-1
6.709463667E0,3.843743223E-1,5.587950110E-2,9.019213200E-1,9.820021414E-1
6.719449667E0,1.319488531E-1,6.142500043E-4,1.129769772E0,1.137449171E0
6.729434667E0,-1.322453070E-1,-1.937214705E-1,1.012622122E0,1.039432726E0
6.739420667E0,-2.173708266E-1,-1.912252942E-1,4.546913297E-1,5.390374706E-1
6.749406667E0,-2.750793368E-1,2.488039961E-1,-8.335556746E-2,3.801581521E-1
6.759392667E0,-6.542098761E-1,4.386654273E-1,1.071940809E-2,7.877390588E-1
6.769378667E0,-9.192472047E-1,2.807292089E-1,7.111431916E-1,1.195637466E0
6.779363667E0,-9.566448265E-1,1.408702424E-1,1.371618798E0,1.678198998E0
6.789349667E0,-7.062436634E-1,-4.704318881E-2,1.459429944E0,1.622013851E0
6.799335667E0,1.809438425E-1,-4.511536181E-2,9.607179970E-1,9.786496511E-1
6.809321667E0,1.333048809E0,1.869348997E-1,1.620476881E-1,1.355810915E0
6.819307667E0,2.372285557E0,1.535119227E-1,-1.113979951E0,2.625310649E0
6.829293667E0,3.003987161E0,-5.442646801E-2,-2.741415018E0,4.067217403E0
6.839278667E0,3.175971900E0,-1.216790959E-1,-4.434849655E0,5.456142848E0
6.849264667E0,2.962633898E0,-1.615366414E-1,-5.924348613E0,6.625798079E0
6.859250667E0,2.538071662E0,-3.249987710E-1,-7.051270207E0,7.501189472E0
6.869236667E0,2.135714228E0,-4.594873622E-1,-7.724937862E0,8.027893178E0
6.879222667E0,2.119566557E0,-7.498957595E-1,-7.377447191E0,7.712433669E0
6.889207667E0,2.005772724E0,-1.303696664E0,-5.755757598E0,6.233096722E0
6.899193667E0,1.430101479E0,-1.983103654E0,-3.902369161E0,4.605038047E0
6.909179667E0,5.713524914E-1,-2.527721506E0,-2.188709882E0,3.392089419E0
6.919165667E0,-1.960127020E-1,-2.820109770E0,-7.032563210E-1,2.913075617E0
6.929151667E0,-9.581253415E-1,-3.379062071E0,-3.310167253E-2,3.512429412E0
6.939136667E0,-1.312152030E0,-3.463148248E0,-8.337416160E-1,3.796085329E0
6.949122667E0,-1.709260418E0,-2.849988458E0,-2.039013560E0,3.898920580E0
6.959108667E0,-2.766277964E0,-2.843681943E0,-2.971077862E0,4.956422543E0
6.969094667E0,-3.810559689E0,-3.088129471E0,-3.975020231E0,6.313295068E0
6.979080667E0,-4.617076669E0,-3.019138466E0,-4.979761915E0,7.431730806E0
6.989065667E0,-5.119903302E0,-2.917185829E0,-5.708783991E0,8.204486434E0
6.999051667E0,-5.297286775E0,-2.541337332E0,-5.192215818E0,7.840838457E0
7.009037667E0,-5.267980530E0,-2.313298114E0,-2.812989616E0,6.404363950E0
7.019023667E0,-5.585687823E0,-2.778663829E0,3.562176400E-1,6.248821660E0
7.029009667E0,-5.744646719E0,-3.332547471E0,2.921276541E0,7.255390769E0
7.038994667E0,-5.061580249E0,-3.127854870E0,4.609747769E0,7.526808434E0
7.048980667E0,-4.293879426E0,-2.392007338E0,5.326525192E0,7.247825208E0
7.058966667E0,-3.901923603E0,-1.896089776E0,4.801040599E0,6.470715190E0
7.068952667E0,-3.626733754E0,-1.355547141E0,3.684097863E0,5.344462821E0
7.078938667E0,-3.529686931E0,-9.373801513E-1,2.317641572E0,4.325370948E0
7.088923667E0,-3.623068720E0,-6.840324301E-1,1.186812285E0,3.873377171E0
7.098909667E0,-4.102363232E0,-4.888645045E-1,5.272715020E-1,4.164899498E0
7.108895667E0,-4.333827603E0,-3.949317625E-1,3.721384388E-1,4.367667548E0
7.118881667E0,-4.169384018E0,-3.780381332E-1,5.808027613E-1,4.226583463E0
7.128867667E0,-3.754410632E0,-4.757436450E-1,1.025876445E0,3.921014370E0
7.138852667E0,-3.504305922E0,-1.027759687E0,1.611875626E0,3.991815753E0
7.148838667E0,-3.450454820E0,-1.384224371E0,2.423695446E0,4.438019287E0
7.158824667E0,-3.427147819E0,-1.605609019E0,3.140157704E0,4.917714195E0
7.168810667E0,-3.288033788E0,-1.829968146E0,3.445040883E0,5.101789518E0
7.178796667E0,-3.088306350E0,-1.867112875E0,3.550123535E0,5.062323944E0
7.188781667E0,-2.693719280E0,-1.842616550E0,3.666683101E0,4.908759953E0
7.198767667E0,-2.193943141E0,-1.903663967E0,3.973356698E0,4.921878346E0
7.208753667E0,-1.923490121E0,-1.885057980E0,4.416658090E0,5.173019091E0
7.218739667E0,-1.395821593E0,-2.027486798E0,4.767705622E0,5.365634868E0
7.228725667E0,-8.214864367E-1,-2.208684702E0,4.976392749E0,5.506143194E0
7.238710667E0,-5.370012689E-1,-2.040614820E0,5.134817795E0,5.551471246E0
7.248696667E0,-4.036163396E-1,-1.953142667E0,5.153373349E0,5.525841954E0
7.258682667E0,-3.451576316E-1,-1.917169865E0,5.340690072E0,5.684860994E0
7.268668667E0,-6.256637692E-2,-1.793680033E0,5.679129252E0,5.955981168E0
7.278654667E0,-1.050335348E-1,-1.761338352E0,6.088572342E0,6.339089683E0
7.288639667E0,-4.039309198E-1,-2.136317515E0,6.715133075E0,7.058330179E0
7.298625667E0,-1.783079177E-1,-3.124789759E0,6.763417042E0,7.452510640E0
7.308611667E0,3.717472601E-1,-3.675318561E0,6.336463296E0,7.334639027E0
7.318597667E0,1.668183144E0,-3.823085302E0,5.877781972E0,7.207436239E0
7.328583667E0,3.115683598E0,-4.090816736E0,5.686980309E0,7.667073163E0
7.338568667E0,4.775520426E0,-5.111076930E0,5.455959157E0,8.871087478E0
7.348554667E0,6.045184833E0,-5.177494283E0,4.874160030E0,9.333174311E0
7.358540667E0,6.873937020E0,-5.053283050E0,4.447816733E0,9.621317655E0
7.368526667E0,7.561888254E0,-5.349152162E0,4.106149889E0,1.013193218E1
7.378512667E0,7.455282403E0,-5.579007964E0,3.755647902E0,1.004049086E1
7.388497292E0,7.475232518E0,-6.505135002E0,3.295444256E0,1.044298020E1
7.398483292E0,7.703817134E0,-6.939693053E0,2.127771955E0,1.058468477E1
7.408469292E0,8.068626089E0,-6.660898395E0,5.404581428E-1,1.047675472E1
7.418455292E0,7.845816767E0,-6.535707169E0,-1.106931425E0,1.027120276E1
7.428441292E0,7.424758183E0,-6.479044141E0,-2.871672857E0,1.026409042E1
7.438426292E0,7.444266248E0,-6.350101926E0,-4.732936324E0,1.086929532E1
7.448412292E0,6.948774363E0,-5.860083035E0,-6.631343644E0,1.125170018E1
7.458398292E0,6.470402541E0,-5.340542722E0,-7.911612561E0,1.153174397E1
7.468384292E0,5.825456409E0,-4.720836096E0,-8.742641069E0,1.151763902E1
7.478370292E0,4.377439061E0,-4.258227198E0,-9.040530978E0,1.090988872E1
7.488355292E0,2.431497971E0,-4.056888852E0,-8.438488206E0,9.673603917E0
7.498341292E0,5.217564082E-1,-4.002956473E0,-7.437931960E0,8.462784537E0
7.508327292E0,-1.241676709E0,-3.611794118E0,-6.664324864E0,7.681148592E0
7.518313292E0,-2.628924530E0,-3.075236068E0,-5.920525119E0,7.170839472E0
7.528299292E0,-3.779467705E0,-2.773896009E0,-5.097179852E0,6.925324371E0
7.538284292E0,-4.519170890E0,-2.479142838E0,-4.315639839E0,6.722633559E0
7.548270292E0,-4.434110860E0,-2.187624932E0,-3.944800651E0,6.325226805E0
7.558256292E0,-3.861364977E0,-1.869001088E0,-3.983282931E0,5.854045393E0
7.568242292E0,-3.036768991E0,-1.611023979E0,-4.069735769E0,5.327298884E0
7.578228292E0,-2.264040731E0,-1.383224936E0,-4.112201757E0,4.893811904E0
7.588213292E0,-1.780124579E0,-1.197209511E0,-4.185849193E0,4.703561161E0
7.598199292E0,-1.386944350E0,-9.919681486E-1,-4.518818303E0,4.829837916E0
7.608185292E0,-1.116774920E0,-6.886175242E-1,-4.773265155E0,4.950297017E0
7.618171292E0,-1.016056046E0,-5.294109982E-1,-4.580595306E0,4.721705121E0
7.628157292E0,-9.637281436E-1,-5.609538031E-1,-4.120935743E0,4.269139551E0
7.638142292E0,-9.663225532E-1,-6.481106454E-1,-3.501134393E0,3.689413059E0
7.648128292E0,-8.207426709E-1,-6.438155732E-1,-2.733377436E0,2.925657060E0
7.658114292E0,-6.292276472E-1,-6.088410375E-1,-1.940008505E0,2.128437887E0
7.668100292E0,-4.536205584E-1,-6.055993411E-1,-9.879729655E-1,1.244432703E0
7.678086292E0,-2.800202340E-1,-6.468596336E-1,-3.415318098E-1,7.832513608E-1
7.688071292E0,-8.288428187E-2,-6.639361346E-1,-1.363184043E-1,6.828350477E-1
7.698057292E0,7.905318618E-2,-5.924521691E-1,-1.746294343E-1,6.226912704E-1
7.708043292E0,1.709813565E-1,-4.897610289E-1,-3.711888510E-1,6.378727560E-1
7.718029292E0,3.237538987E-1,-3.881823215E-1,-4.529025568E-1,6.786919976E-1
7.728015292E0,3.871318692E-1,-3.073302394E-1,-6.308145815E-1,8.014050140E-1
7.738000292E0,3.440782356E-1,-3.131897342E-1,-8.375423062E-1,9.580995546E-1
7.747986292E0,4.223829782E-1,-3.518883616E-1,-8.359588802E-1,1.000529884E0
7.757972292E0,3.104006124E-1,-4.569832921E-1,-7.930198520E-1,9.664692210E-1
7.767958292E0,1.437058496E-1,-4.333602485E-1,-1.004685550E0,1.103560389E0
7.777944292E0,-4.544923782E-2,-3.531285560E-1,-1.022090372E0,1.082328111E0
7.787929292E0,-3.180236274E-1,-3.639312869E-1,-9.208236140E-1,1.039952469E0
7.797915292E0,-5.418521190E-1,-3.515620869E-1,-8.314898533E-1,1.052888881E0
7.807901292E0,-6.530942273E-1,-3.207113001E-1,-6.447484964E-1,9.721565879E-1
7.817887292E0,-6.338802767E-1,-3.182230175E-1,-4.142278665E-1,8.213737392E-1
7.827873292E0,-5.747245806E-1,-3.270751172E-1,-1.628841323E-1,6.810416408E-1
7.837858292E0,-5.317148012E-1,-3.135072380E-1,3.385712366E-2,6.181858320E-1
7.847844292E0,-4.678801632E-1,-3.327472088E-1,2.548924094E-1,6.281740941E-1
7.857830292E0,-2.749957216E-1,-3.203592977E-1,4.570429337E-1,6.222065330E-1
7.867816292E0,9.938804805E-2,-2.715011331E-1,5.132557261E-1,5.890859782E-1
7.877802292E0,5.185533035E-1,-2.684947872E-1,4.466968703E-1,7.352041031E-1
7.887787292E0,9.859879088E-1,-2.431854066E-1,4.371916366E-1,1.105643625E0
7.897773292E0,1.378957638E0,-2.401922169E-1,3.754918170E-1,1.449210328E0
7.907759292E0,1.712391018E0,-2.617968017E-1,4.809007796E-1,1.797800357E0
7.917745292E0,1.891853760E0,-2.991046688E-1,6.576924777E-1,2.025125588E0
7.927731292E0,2.039708210E0,-4.191754881E-1,6.509893028E-1,2.181720592E0
7.937717292E0,2.326594829E0,-3.941789335E-1,5.615538005E-1,2.425646965E0
7.947702292E0,2.547869257E0,-3.415396670E-1,4.660803902E-1,2.612569238E0
7.957688292E0,2.784977944E0,-4.386435002E-1,5.971468254E-1,2.881856104E0
7.967674292E0,3.042568259E0,-5.288713002E-1,9.254655723E-1,3.223881665E0
7.977660292E0,3.408206348E0,-6.207602942E-1,1.268648161E0,3.689265782E0
7.987645292E0,3.845644737E0,-7.262069348E-1,1.569742637E0,4.216687314E0
7.997631292E0,4.161452270E0,-9.822895449E-1,1.646175978E0,4.581754369E0
8.007617292E0,4.558228537E0,-1.313841583E0,1.518849349E0,4.981017009E0
8.017603292E0,4.823261188E0,-1.459420003E0,1.192476336E0,5.178393095E0
8.027589292E0,4.752118700E0,-1.882649951E0,3.969486134E-1,5.126848074E0
8.037575292E0,4.588431745E0,-2.309541132E0,-8.259449387E-1,5.202871434E0
8.047560292E0,4.357250964E0,-2.245579610E0,-2.093545132E0,5.330215283E0
8.057546292E0,3.881612130E0,-2.272285305E0,-3.015821925E0,5.415290862E0
8.067532292E0,3.283030910E0,-2.487531254E0,-3.616798458E0,5.481544926E0
8.077518292E0,2.491978646E0,-2.616958495E0,-3.613610263E0,5.110441123E0
8.087504292E0,1.505417710E0,-2.954399849E0,-3.271098789E0,4.657772884E0
8.097489292E0,4.531171131E-1,-3.319930641E0,-3.024473758E0,4.513833858E0
8.107475292E0,-4.743998086E-1,-3.584588486E0,-3.419585030E0,4.976735031E0
8.117461292E0,-1.254970939E0,-3.364712420E0,-4.371493027E0,5.657401613E0
8.127447292E0,-1.948393412E0,-2.672063825E0,-4.949010823E0,5.952215562E0
8.137433292E0,-2.550470683E0,-2.174430543E0,-4.957875202E0,5.984444453E0
8.147418292E0,-3.213837883E0,-2.450976508E0,-5.034390696E0,6.456092430E0
8.157404292E0,-3.761606800E0,-2.648385525E0,-5.115339550E0,6.879704232E0
8.167390292E0,-4.292486619E0,-2.830917471E0,-4.948952351E0,7.136642381E0
8.177376292E0,-4.920096926E0,-2.780713570E0,-4.246244498E0,7.068968387E0
8.187362292E0,-5.660303557E0,-2.688122033E0,-2.944746680E0,6.923624010E0
8.197347292E0,-6.121328444E0,-3.140336629E0,-1.721741885E0,7.092021657E0
8.207333292E0,-6.084206226E0,-3.106510778E0,-8.199345857E-1,6.880426393E0
8.217319292E0,-5.797489176E0,-3.030200521E0,-2.973399791E-1,6.548389650E0
8.227305292E0,-5.043056270E0,-2.739549757E0,1.551231229E-1,5.741220479E0
8.237291292E0,-4.011733144E0,-2.311005421E0,1.130690709E0,4.765837844E0
8.247276292E0,-2.941832428E0,-2.776242789E0,2.145544567E0,4.578784069E0
8.257262292E0,-2.216477725E0,-2.825486285E0,2.450059957E0,4.347291116E0
8.267248292E0,-2.036724960E0,-2.450713968E0,2.031123912E0,3.778850601E0
8.277234292E0,-1.845363134E0,-2.332456078E0,1.185591386E0,3.201771913E0
8.287220292E0,-1.801561641E0,-1.977797890E0,3.738926035E-1,2.701315332E0
8.297205292E0,-1.741777954E0,-1.824860164E0,-2.153161150E-1,2.531850329E0
8.307191292E0,-1.580662020E0,-1.473255685E0,-2.673715371E-1,2.177260268E0
8.317177292E0,-1.582347187E0,-1.147568697E0,3.974299854E-1,1.994664666E0
8.327163292E0,-1.424308643E0,-1.304551819E0,1.672815308E0,2.555155888E0
8.337149292E0,-9.381588542E-1,-1.360140129E0,3.445929075E0,3.821590035E0
8.347134292E0,-4.686601818E-1,-1.557861972E0,4.793797653E0,5.062318858E0
8.357120292E0,-1.824547631E-1,-1.467001211E0,5.519306138E0,5.713853562E0
8.367106292E0,-2.338424331E-1,-1.219844668E0,5.766291357E0,5.898543830E0
8.377092292E0,-2.950469935E-1,-9.808382660E-1,5.613019463E0,5.705706260E0
8.387078292E0,-2.870556039E-1,-8.058088821E-1,4.974664312E0,5.047674107E0
8.397063708E0,-3.637184483E-1,-6.362212095E-1,4.261488190E0,4.324043262E0
8.407049708E0,-7.092596573E-1,-4.230890295E-1,3.778895262E0,3.868087770E0
8.417035708E0,-1.203420131E0,-5.901182529E-1,3.281367962E0,3.544550079E0
8.427021708E0,-1.548153255E0,-6.010554698E-1,2.611116834E0,3.094507602E0
8.437007708E0,-1.614729068E0,-3.260255420E-1,2.181480970E0,2.733587723E0
8.446992708E0,-1.980926735E0,-1.336389908E-1,1.972230756E0,2.798503934E0
8.456978708E0,-2.924359778E0,-3.718215197E-2,1.688144953E0,3.376847051E0
8.466964708E0,-3.468580019E0,1.226178664E-1,1.462465818E0,3.766283149E0
8.476950708E0,-3.679983178E0,3.250818014E-1,1.296286195E0,3.915138856E0
8.486936708E0,-3.859684487E0,4.996676740E-1,1.320123539E0,4.109690777E0
8.496921708E0,-4.335616266E0,5.449825720E-1,2.029001958E0,4.817823508E0
8.506907708E0,-4.730090484E0,1.624346276E-1,3.098529621E0,5.656945007E0
8.516893708E0,-4.337766287E0,-5.169040963E-1,3.952973889E0,5.891469153E0
8.526879708E0,-3.197659222E0,-1.367877311E0,4.272395586E0,5.509035930E0
8.536865708E0,-2.008795150E0,-1.812765783E0,4.173925551E0,4.974236850E0
8.546850708E0,-1.032027715E0,-1.702515948E0,3.906748141E0,4.384783096E0
8.556836708E0,-1.998402894E-1,-1.462278561E0,3.741594704E0,4.022154356E0
8.566822708E0,1.125624096E-1,-1.225618208E0,3.912976010E0,4.101974104E0
8.576808708E0,9.774088740E-2,-1.905704060E0,4.164008088E0,4.580417514E0
8.586794708E0,1.069777340E0,-2.625700375E0,4.207748185E0,5.073841819E0
8.596779708E0,2.552706074E0,-3.111068975E0,3.930663253E0,5.625404170E0
8.606765708E0,3.678493307E0,-2.968875800E0,3.165833997E0,5.689291821E0
8.616751708E0,4.260979482E0,-2.258599897E0,2.692883713E0,5.523480998E0
8.626737708E0,4.366519970E0,-2.246511948E0,3.120715127E0,5.818262240E0
8.636723708E0,3.837634052E0,-2.735828589E0,4.359756496E0,6.420254659E0
8.646708708E0,2.926891623E0,-3.718486800E0,5.446068592E0,7.214811277E0
8.656694708E0,2.788732442E0,-5.238701767E0,5.321759711E0,7.971333091E0
8.666680708E0,3.269869997E0,-5.708101037E0,4.078089101E0,7.739849996E0
8.676666708E0,3.765315104E0,-5.335383139E0,2.174625987E0,6.882798068E0
8.686652708E0,5.016175450E0,-5.351006899E0,1.178646648E-1,7.335474290E0
8.696637708E0,6.245134465E0,-5.053876542E0,-1.377727969E0,8.151165987E0
8.706623708E0,6.750605793E0,-4.581058990E0,-2.112544782E0,8.427314252E0
8.716609708E0,6.929226537E0,-4.775322205E0,-2.471478893E0,8.770751991E0
8.726595708E0,6.812822506E0,-4.807258528E0,-2.897871891E0,8.827340854E0
8.736581708E0,7.110139389E0,-4.725000483E0,-3.942358854E0,9.403292244E0
8.746566708E0,7.786409640E0,-4.384282642E0,-5.409415905E0,1.044566368E1
8.756552708E0,7.730982714E0,-3.730330043E0,-6.620314626E0,1.084029620E1
8.766538708E0,6.955775235E0,-3.313943385E0,-6.537785854E0,1.010483418E1
8.776524708E0,5.357400244E0,-3.356701149E0,-5.490381131E0,8.373378348E0
8.786510708E0,3.614497286E0,-3.704419569E0,-4.518155229E0,6.870301423E0
8.796495708E0,2.310699173E0,-3.665087688E0,-4.172920999E0,6.015435819E0
8.806481708E0,1.165762893E0,-3.350845455E0,-4.184066377E0,5.485761554E0
8.816467708E0,-4.952240825E-2,-3.083046779E0,-4.078273873E0,5.112724097E0
8.826453708E0,-9.473325509E-1,-2.884758048E0,-4.139807047E0,5.133933224E0
8.836439708E0,-1.519214215E0,-2.561629802E0,-4.371242766E0,5.289397167E0
8.846424708E0,-1.896408741E0,-2.192712009E0,-4.566533337E0,5.409027527E0
8.856410708E0,-1.947209936E0,-1.841399598E0,-4.604143798E0,5.327336964E0
8.866396708E0,-1.875597916E0,-1.468639016E0,-4.691711115E0,5.261836304E0
8.876382708E0,-1.726413226E0,-1.144579892E0,-4.731800210E0,5.165316929E0
8.886368708E0,-1.479209905E0,-9.292842427E-1,-4.546231804E0,4.870303355E0
8.896353708E0,-1.467819529E0,-8.191332248E-1,-4.113414470E0,4.443607995E0
8.906339708E0,-1.580990633E0,-6.196730044E-1,-3.717941548E0,4.087372673E0
8.916325708E0,-1.699670985E0,-4.561845624E-1,-3.632934142E0,4.036730891E0
8.926311708E0,-2.013317387E0,-3.402836850E-1,-3.539268764E0,4.086032705E0
8.936297708E0,-2.336453235E0,-2.020829889E-1,-3.238374555E0,3.998364792E0
8.946282708E0,-2.697465591E0,-1.751182616E-1,-2.720215353E0,3.834913114E0
8.956268708E0,-2.817375612E0,-1.181546867E-2,-2.026967127E0,3.470783871E0
8.966254708E0,-2.279192621E0,1.889498502E-2,-1.377397016E0,2.663136978E0
8.976240708E0,-1.604439722E0,-6.438690752E-2,-7.405680618E-1,1.768279828E0
8.986226708E0,-1.048938448E0,-9.055465937E-2,-3.191369373E-1,1.100145626E0
8.996211708E0,-5.930170101E-1,-9.085783750E-2,-6.706701536E-2,6.036740059E-1
9.006197708E0,-1.933984119E-1,-2.587094718E-1,-6.176245786E-2,3.288588416E-1
9.016183708E0,1.552704728E-1,-1.983243987E-1,-3.552334806E-1,4.354679237E-1
9.026169708E0,2.460502499E-1,-1.517235518E-2,-8.481661123E-1,8.832647847E-1
9.036155708E0,5.028546989E-2,4.316736192E-2,-1.231030099E0,1.232812700E0
9.046140708E0,-3.278066039E-2,6.562885612E-2,-1.046493727E0,1.049061885E0
9.056126708E0,-4.672159195E-2,-2.643087655E-2,-4.785759266E-1,4.815770093E-1
9.066112708E0,-2.713786340E-1,-1.658457470E-1,-1.065485483E-1,3.354158135E-1
9.076098708E0,-2.801798630E-1,-2.319587526E-1,1.327721411E-1,3.872131970E-1
9.086084708E0,-1.523223066E-1,-2.527032119E-1,2.553133724E-1,3.901870276E-1
9.096069708E0,-1.922120118E-1,-2.991830215E-1,2.605407832E-1,4.408372007E-1
9.106055708E0,-3.012906504E-1,-3.063435218E-1,1.406746531E-1,4.521191959E-1
9.116041708E0,-1.853006029E-1,-2.698057330E-1,-1.850725615E-1,3.760097073E-1
9.126027708E0,3.959325135E-2,-2.534507784E-1,-5.102017619E-1,5.710610830E-1
9.136013708E0,1.550640661E-1,-2.540393007E-1,-8.500413144E-1,9.006392546E-1
9.145998708E0,2.963713878E-1,-2.629729691E-1,-1.264901850E0,1.325506496E0
9.155984708E0,3.322785544E-1,-2.038736987E-1,-1.493318067E0,1.543363979E0
9.165970708E0,2.009033132E-1,-2.637456787E-1,-1.399553286E0,1.438288331E0
9.175956708E0,1.204503036E-1,-2.475295955E-1,-1.200979503E0,1.232124565E0
9.185942708E0,5.012408674E-2,-2.614366132E-1,-9.349078023E-1,9.720669348E-1
9.195927708E0,3.078898180E-1,-2.790273768E-1,-3.172482866E-1,5.227799655E-1
9.205913708E0,7.693158245E-1,-3.108926556E-1,5.629319161E-1,1.002693085E0
9.215899708E0,1.116391343E0,-3.489469197E-1,1.348931601E0,1.785415931E0
9.225885708E0,1.503707984E0,-4.527367517E-1,1.833631865E0,2.414190151E0
9.235871708E0,1.930004504E0,-4.367908099E-1,1.917408432E0,2.755387212E0
9.245856708E0,2.606691661E0,-3.474833617E-1,1.678026931E0,3.119512860E0
9.255842708E0,3.728142015E0,-2.619289488E-1,1.388883287E0,3.987059875E0
9.265828708E0,5.266030483E0,-3.506972837E-1,1.316736832E0,5.439472541E0
9.275814708E0,6.726330492E0,-7.329461432E-1,1.316101824E0,6.892956982E0
9.285800708E0,7.909407576E0,-1.246055981E0,9.765107417E-1,8.066285201E0
9.295786708E0,8.494210417E0,-1.604602275E0,6.828531928E-1,8.671369416E0
9.305771708E0,7.994710266E0,-2.138507735E0,3.519265147E-1,8.283263840E0
9.315757708E0,6.861683010E0,-3.048647025E0,4.697302222E-2,7.508604989E0
9.325743708E0,5.662835986E0,-3.730913011E0,-3.374112403E-1,6.789791576E0
9.335729708E0,4.630497783E0,-4.224204881E0,-9.112195623E-1,6.333698579E0
9.345715708E0,3.889984758E0,-4.758063564E0,-1.679159975E0,6.371085349E0
9.355700708E0,3.339551266E0,-4.812675681E0,-2.827914634E0,6.504732972E0
9.365686708E0,2.530044605E0,-4.859938725E0,-4.188808469E0,6.896828728E0
9.375672708E0,1.650156178E0,-5.005751034E0,-5.394858677E0,7.542218439E0
9.385658708E0,6.967431074E-1,-4.782479782E0,-5.974208990E0,7.684317594E0
9.395644333E0,-1.711146730E-1,-4.480494483E0,-5.935460662E0,7.438669525E0
9.405629333E0,-8.569176400E-1,-4.424514409E0,-5.768201058E0,7.320025891E0
9.415615333E0,-1.498189967E0,-4.389092562E0,-5.308726267E0,7.049204301E0
9.425601333E0,-2.390242356E0,-4.168221007E0,-4.388455800E0,6.507370374E0
9.435587333E0,-3.694168523E0,-4.010647901E0,-3.180556701E0,6.312536621E0
9.445572333E0,-4.906744809E0,-4.023481077E0,-2.573801658E0,6.847554277E0
9.455558333E0,-5.589631185E0,-3.654516507E0,-2.447831875E0,7.112759561E0
9.465544333E0,-5.772155530E0,-3.382240326E0,-2.513475642E0,7.146669776E0
9.475530333E0,-5.264668082E0,-3.389917720E0,-2.977351047E0,6.933461720E0
9.485516333E0,-4.150064818E0,-2.857347763E0,-3.497270845E0,6.133382231E0
9.495502333E0,-3.096119984E0,-2.344940176E0,-3.122187456E0,4.983247725E0
9.505487333E0,-2.535445093E0,-2.584678356E0,-2.156083296E0,4.213993261E0
9.515473333E0,-2.174359061E0,-3.064055315E0,-1.405813023E0,4.011556126E0
9.525459333E0,-1.862154583E0,-3.358469640E0,-1.124409337E0,4.001404050E0
9.535445333E0,-1.514394355E0,-3.423312045E0,-1.231871513E0,3.940807411E0
9.545431333E0,-1.142219079E0,-2.708915609E0,-9.334904373E-1,3.084524696E0
9.555416333E0,-1.511541499E0,-2.243665524E0,1.319307268E-1,2.708541748E0
9.565402333E0,-2.482954053E0,-2.456984230E0,1.285647478E0,3.722193140E0
9.575388333E0,-3.329836702E0,-2.450282736E0,2.134543616E0,4.652738376E0
9.585374333E0,-3.684322397E0,-2.214318933E0,2.443947131E0,4.944726225E0
9.595360333E0,-3.633833444E0,-2.027524366E0,2.080046396E0,4.652117105E0
9.605345333E0,-3.413960593E0,-1.863621649E0,1.098090435E0,4.041536241E0
9.615331333E0,-3.472312297E0,-1.438230863E0,7.285250634E-2,3.759091405E0
9.625317333E0,-3.977324034E0,-9.121790904E-1,-4.574089694E-1,4.106141757E0
9.635303333E0,-4.666711344E0,-7.271141303E-1,-4.346958987E-1,4.742979048E0
9.645289333E0,-5.277020910E0,-8.252070200E-1,-8.838285729E-2,5.341884297E0
9.655274333E0,-5.566653382E0,-7.613870001E-1,6.376577242E-1,5.654551035E0
9.665260333E0,-5.482699644E0,-8.872126490E-1,1.225599936E0,5.687638954E0
9.675246333E0,-5.250375733E0,-1.053551901E0,1.517575825E0,5.565918912E0
9.685232333E0,-4.894536992E0,-9.696309078E-1,1.809625536E0,5.307675673E0
9.695218333E0,-4.511115766E0,-9.935963058E-1,1.983362393E0,5.027039433E0
9.705203333E0,-4.096111974E0,-1.239445119E0,1.920082948E0,4.690530464E0
9.715189333E0,-3.564047509E0,-1.705875173E0,1.631386323E0,4.274794275E0
9.725175333E0,-3.035611242E0,-2.363145774E0,9.008743760E-1,3.951071779E0
9.735161333E0,-2.195426579E0,-2.299328093E0,3.519377705E-1,3.198541502E0
9.745147333E0,-8.563428587E-1,-1.621432608E0,5.843987989E-1,1.924548973E0
9.755132333E0,5.701286691E-1,-1.056041938E0,1.502847566E0,1.923232196E0
9.765118333E0,1.654160351E0,-5.959452957E-1,3.181133237E0,3.634694751E0
9.775104333E0,1.747190137E0,-3.567316103E-1,5.068108081E0,5.372676273E0
9.785090333E0,1.145506968E0,-2.498509401E-1,6.813801330E0,6.913935224E0
9.795076333E0,4.231144649E-1,-1.103037764E-1,8.170537795E0,8.182229564E0
9.805061333E0,-1.473907650E-1,1.925765857E-2,8.959816598E0,8.961049513E0
9.815047333E0,-3.337035209E-1,-3.790128641E-1,9.051681619E0,9.065756941E0
9.825033333E0,-3.228247762E-3,-1.127550900E0,8.242460302E0,8.319226723E0
9.835019333E0,3.849929577E-1,-1.722832683E0,6.749617614E0,6.976654640E0
9.845005333E0,5.181989622E-1,-2.060233398E0,5.332880530E0,5.740444806E0
9.854990333E0,-3.323206544E-2,-1.732382648E0,4.070024621E0,4.423500246E0
9.864976333E0,-1.121866676E0,-1.275796967E0,2.631528295E0,3.132280943E0
9.874962333E0,-2.177032993E0,-1.576197086E0,1.623557194E0,3.140033100E0
9.884948333E0,-2.519491550E0,-2.886750487E0,1.107443349E0,3.988432877E0
9.894934333E0,-2.183561994E0,-3.222313423E0,6.454747206E-1,3.945615844E0
9.904919333E0,-1.118640767E0,-3.419438557E0,7.366029918E-2,3.598519564E0
9.914905333E0,6.735121197E-1,-2.909271038E0,-1.018965036E-1,2.987952384E0
9.924891333E0,2.861948937E0,-2.888586805E0,8.855520397E-1,4.161596793E0
9.934877333E0,4.709356842E0,-3.629676950E0,2.301047759E0,6.375532716E0
9.944863333E0,6.385800932E0,-5.053561378E0,2.784619510E0,8.606453506E0
9.954848333E0,7.881121670E0,-5.500220826E0,1.732643434E0,9.765580432E0
9.964834333E0,8.806455826E0,-5.038492518E0,-7.114658117E-2,1.014618810E1
9.974820333E0,9.122712425E0,-5.121485558E0,-2.014973318E0,1.065427678E1
9.984806333E0,8.815055911E0,-5.094199526E0,-3.620079038E0,1.080560280E1
9.994792333E0,7.585019839E0,-5.092334265E0,-4.631645884E0,1.024287742E1
1.000477733E1,6.199069515E0,-5.119693387E0,-5.099872495E0,9.520946523E0
1.001476333E1,4.818077046E0,-4.864122115E0,-5.152927791E0,8.568909802E0
1.002474933E1,3.577865649E0,-5.030022826E0,-4.800895003E0,7.819900579E0
1.003473533E1,2.831404252E0,-5.381416513E0,-4.791550860E0,7.741799104E0
1.004472133E1,2.350673078E0,-5.069348860E0,-5.843494484E0,8.085195704E0
1.005470633E1,2.218388010E0,-4.316262567E0,-7.187471155E0,8.672433886E0
1.006469233E1,2.012823882E0,-3.703478460E0,-7.954366232E0,9.002175006E0
1.007467833E1,1.583030142E0,-3.228883062E0,-8.064017898E0,8.829499132E0
1.008466433E1,5.956535196E-1,-3.139188528E0,-7.793802860E0,8.423340830E0
1.009465033E1,-7.416450459E-1,-2.926712405E0,-7.367519789E0,7.962162440E0
1.010463533E1,-2.074650001E0,-2.717706313E0,-6.859372190E0,7.664273421E0
1.011462133E1,-3.117704980E0,-2.507197486E0,-6.444928561E0,7.585725261E0
1.012460733E1,-3.854975724E0,-2.045070106E0,-6.009418584E0,7.426726149E0
1.013459333E1,-4.444204908E0,-1.700743949E0,-5.280385398E0,7.108161309E0
1.014457933E1,-4.693680457E0,-1.379213454E0,-4.595789881E0,6.712238867E0
1.015456433E1,-4.680989075E0,-1.041212814E0,-4.001156116E0,6.245400957E0
1.016455033E1,-4.725627889E0,-8.583882147E-1,-3.247548251E0,5.797840884E0
1.017453633E1,-4.595319180E0,-8.235583976E-1,-2.522535610E0,5.306448219E0
1.018452233E1,-3.869211355E0,-7.403621668E-1,-2.213502223E0,4.518686174E0
1.019450833E1,-2.878292490E0,-4.631933275E-1,-2.304019314E0,3.715860696E0
1.020449333E1,-1.895037569E0,-3.345589685E-1,-2.409298286E0,3.083474554E0
1.021447933E1,-1.086382847E0,-2.444358337E-1,-2.261307743E0,2.520612877E0
1.022446533E1,-6.836359888E-1,-1.457210925E-1,-1.854400298E0,1.981765189E0
1.023445133E1,-2.120931298E-1,-3.003644514E-1,-1.315924361E0,1.366330569E0
1.024443733E1,3.817875141E-1,-3.962017778E-1,-6.882245913E-1,8.811303211E-1
1.025442233E1,8.551675683E-1,-4.127496904E-1,-1.659501198E-1,9.639571148E-1
1.026440833E1,1.001746740E0,-4.613818601E-1,3.375071347E-1,1.153378003E0
1.027439433E1,8.402788031E-1,-5.216976437E-1,1.026050107E0,1.425137088E0
1.028438033E1,6.751645428E-1,-5.966069081E-1,1.300252654E0,1.581911479E0
1.029436633E1,5.062952006E-1,-5.589508393E-1,1.157265427E0,1.381312470E0
1.030435133E1,4.908854485E-1,-3.862378299E-1,9.137211473E-1,1.106812775E0
1.031433733E1,3.903443295E-1,-2.901186678E-1,7.279514515E-1,8.754717887E-1
1.032432333E1,1.344181323E-1,-3.276703638E-1,4.096807793E-1,5.415481904E-1
1.033430933E1,7.106062710E-2,-2.804868418E-1,-5.550791055E-2,2.946245225E-1
1.034429533E1,4.653214216E-3,-9.292804420E-2,-2.879822414E-1,3.026401248E-1
1.035428033E1,-2.058605826E-1,-4.251832098E-2,-3.588927412E-1,4.159211305E-1
1.036426633E1,-4.146892118E-1,-1.809537828E-2,-4.175941086E-1,5.887948918E-1
1.037425233E1,-4.810545248E-1,4.164153099E-2,-3.644603138E-1,6.049618114E-1
1.038423833E1,-4.127602154E-1,3.546102405E-2,-1.406875169E-1,4.375173792E-1
1.039422404E1,-3.851473242E-1,1.386023998E-2,7.649590641E-2,3.929149925E-1
1.040420904E1,-4.266268873E-1,-2.210247517E-4,3.396150559E-2,4.279765574E-1
1.041419504E1,-3.400483346E-1,1.165019712E-1,-1.967427269E-1,4.097722291E-1
1.042418104E1,-3.823739898E-1,1.218355089E-1,-4.258749354E-1,5.851693942E-1
1.043416704E1,-6.493087399E-1,8.020888835E-2,-5.049171580E-1,8.264240086E-1
1.044415304E1,-8.057638586E-1,8.434754759E-2,-7.729422677E-1,1.119736422E0
1.045413804E1,-9.344447029E-1,2.030603510E-1,-1.021372627E0,1.399150618E0
1.046412404E1,-1.105890913E0,3.260980475E-1,-1.109996243E0,1.600445659E0
1.047411004E1,-1.176884882E0,3.383146352E-1,-1.146813529E0,1.677705602E0
1.048409604E1,-1.001566061E0,7.494639426E-2,-1.176939261E0,1.547235457E0
1.049408204E1,-6.086992425E-1,7.116733879E-2,-1.229132385E0,1.373443110E0
1.050406704E1,-9.111072958E-2,7.030224323E-2,-1.290777241E0,1.295897162E0
1.051405304E1,6.808696711E-1,-1.303262508E-1,-1.110072257E0,1.308750876E0
1.052403904E1,1.533739868E0,-2.553242263E-1,-8.615790403E-1,1.777601442E0
1.053402504E1,2.409770302E0,-5.138044873E-1,-8.365769309E-1,2.602085495E0
1.054401104E1,3.693629410E0,-9.180572963E-1,-7.866668522E-1,3.886460105E0
1.055399604E1,5.181216035E0,-1.139668231E0,-8.770034105E-1,5.377078972E0
1.056398204E1,6.370979410E0,-1.430842906E0,-1.096124016E0,6.621040547E0
1.057396804E1,7.270063661E0,-1.979530128E0,-1.432126955E0,7.669638373E0
1.058395404E1,7.803639631E0,-2.528469365E0,-2.018532518E0,8.447746584E0
1.059394004E1,7.778519408E0,-3.162789937E0,-3.068837460E0,8.940154793E0
1.060392504E1,7.123875668E0,-3.880258208E0,-4.450762853E0,9.252853520E0
1.061391104E1,5.909786122E0,-4.446691729E0,-5.759326154E0,9.373818704E0
1.062389704E1,4.306162671E0,-5.168718781E0,-6.863289825E0,9.610589889E0
1.063388304E1,2.816503792E0,-5.661560708E0,-7.869523133E0,1.009531365E1
1.064386904E1,1.306674358E0,-5.909717710E0,-8.618653200E0,1.053154045E1
1.065385404E1,-2.211960751E-1,-6.295678382E0,-8.795759515E0,1.081895926E1
1.066384004E1,-1.678200594E0,-6.742968160E0,-8.383112735E0,1.088855160E1
1.067382604E1,-3.080027277E0,-7.012915395E0,-7.447333113E0,1.068317934E1
1.068381204E1,-4.364778085E0,-7.015369472E0,-6.076829964E0,1.025643988E1
1.069379804E1,-5.485099926E0,-6.857003483E0,-4.682437431E0,9.951383736E0
1.070378304E1,-6.331710679E0,-6.455875134E0,-3.430118204E0,9.671328490E0
1.071376904E1,-6.945035654E0,-6.005329041E0,-2.388231060E0,9.486893313E0
1.072375504E1,-7.310136384E0,-5.639899698E0,-1.772303782E0,9.401469207E0
1.073374104E1,-7.381826756E0,-5.058307562E0,-1.612457424E0,9.092736695E0
1.074372704E1,-7.280862883E0,-4.121460531E0,-1.579873230E0,8.514305648E0
1.075371204E1,-7.199859066E0,-3.305167299E0,-1.690524770E0,8.100615745E0
1.076369804E1,-7.096353409E0,-2.868467413E0,-1.954243551E0,7.899709163E0
1.077368404E1,-6.871491129E0,-2.432492290E0,-2.160162606E0,7.602677921E0
1.078367004E1,-6.449248484E0,-2.130804906E0,-2.140527071E0,7.121445900E0
1.079365604E1,-5.814445517E0,-1.897870838E0,-1.960298343E0,6.422807796E0
1.080364104E1,-5.036115040E0,-1.682917250E0,-1.492589504E0,5.515658491E0
1.081362704E1,-4.238371223E0,-1.743324543E0,-9.103179216E-1,4.672435104E0
1.082361304E1,-3.471874925E0,-1.636718107E0,-2.957936098E-1,3.849708498E0
1.083359904E1,-3.063287283E0,-1.389907134E0,4.552039844E-1,3.394522277E0
1.084358504E1,-3.071993203E0,-1.409492675E0,1.021413265E0,3.530877638E0
1.085357004E1,-3.292625606E0,-1.353672231E0,1.450420554E0,3.844155522E0
1.086355604E1,-3.783583560E0,-1.200374317E0,1.670355969E0,4.306563841E0
1.087354204E1,-4.110325386E0,-1.089630976E0,1.733036951E0,4.591893674E0
1.088352804E1,-4.322734265E0,-1.017423710E0,1.703575171E0,4.756401044E0
1.089351404E1,-4.431935695E0,-1.084817840E0,1.626778425E0,4.844098657E0
1.090349904E1,-4.331462989E0,-1.131244732E0,1.595436180E0,4.752546988E0
1.091348504E1,-3.911463920E0,-1.007174418E0,1.946025875E0,4.483410199E0
1.092347104E1,-3.445113974E0,-8.884909965E-1,2.515528307E0,4.357305269E0
1.093345704E1,-2.799891853E0,-1.113693584E0,3.059149793E0,4.293961486E0
1.094344304E1,-1.725520940E0,-1.453453212E0,3.463525686E0,4.133516534E0
1.095342804E1,-2.667634267E-1,-1.799755582E0,3.469837756E0,3.917914870E0
1.096341404E1,1.496515324E0,-1.797601907E0,3.326578633E0,4.066577939E0
1.097340004E1,3.157771271E0,-1.355177597E0,3.409439526E0,4.840692472E0
1.098338604E1,4.275860646E0,-9.897721537E-1,3.753873857E0,5.775309699E0
1.099337204E1,5.026796333E0,-9.765769614E-1,4.218152136E0,6.634394575E0
1.100335804E1,5.423477874E0,-8.620838012E-1,4.852162220E0,7.328081533E0
1.101334304E1,5.113118193E0,-6.857418635E-1,5.448410402E0,7.503292308E0
1.102332904E1,4.400014576E0,-5.986857395E-1,5.656562508E0,7.191331747E0
1.103331504E1,3.674922413E0,-2.907036817E-1,5.698905120E0,6.787273602E0
1.104330104E1,2.990795258E0,-7.218913972E-2,5.864523996E0,6.583517999E0
1.105328604E1,2.317318221E0,-8.071958417E-1,5.956665589E0,6.442312769E0
1.106327204E1,1.923528128E0,-1.409154414E0,5.538965646E0,6.030407702E0
1.107325804E1,1.612266220E0,-1.487333149E0,4.959509498E0,5.422941704E0
1.108324404E1,8.623070186E-1,-1.790020699E0,4.249541159E0,4.691092363E0
1.109323004E1,-8.867828786E-2,-1.579160163E0,3.779488755E0,4.097089931E0
1.110321504E1,-8.082348919E-1,-1.720696988E0,3.607223935E0,4.077512266E0
1.111320104E1,-1.458696703E0,-2.035554348E0,3.425515861E0,4.243281335E0
1.112318704E1,-1.516739674E0,-2.754456648E0,3.019029123E0,4.359136097E0
1.113317304E1,-1.055098490E0,-3.985728237E0,1.759368718E0,4.482704617E0
1.114315904E1,1.963787377E-2,-3.997472370E0,6.644717395E-2,3.998072813E0
1.115314504E1,1.436970788E0,-3.591325940E0,-1.673205610E0,4.214513503E0
1.116313004E1,2.741494541E0,-3.134721547E0,-2.817904785E0,5.028206328E0
1.117311604E1,3.388730443E0,-3.126391019E0,-3.465457022E0,5.767773157E0
1.118310204E1,3.759212950E0,-3.994536483E0,-4.222577893E0,6.922294979E0
1.119308804E1,4.086406766E0,-4.663006548E0,-5.201279587E0,8.092938877E0
1.120307404E1,4.974339792E0,-4.638686809E0,-6.731417570E0,9.569401976E0
1.121305904E1,6.196085681E0,-3.810269668E0,-8.567495910E0,1.123884420E1
1.122304504E1,6.208032712E0,-3.379387761E0,-9.925987709E0,1.218544885E1
1.123303104E1,5.119905056E0,-3.420264477E0,-1.009470912E1,1.182433038E1
1.124301704E1,3.393199469E0,-3.596529377E0,-9.166305757E0,1.041489258E1
1.125300304E1,1.362391307E0,-3.835865269E0,-7.542626356E0,8.570950051E0
1.126298804E1,-4.749886233E-1,-3.928032591E0,-5.900748081E0,7.104497318E0
1.127297404E1,-1.905574837E0,-3.872475856E0,-4.854795514E0,6.495869780E0
1.128296004E1,-2.968168287E0,-3.564134633E0,-4.347897173E0,6.357459280E0
1.129294604E1,-3.364753935E0,-3.113390905E0,-4.082344705E0,6.138428973E0
1.130293204E1,-3.357612146E0,-2.456935698E0,-4.238476765E0,5.939257330E0
1.131291704E1,-3.311864115E0,-2.031833764E0,-4.341675736E0,5.826400309E0
1.132290304E1,-3.314638619E0,-1.678702285E0,-4.257190486E0,5.650534609E0
1.133288904E1,-3.383390765E0,-1.381000363E0,-4.130328126E0,5.514898503E0
1.134287504E1,-3.289882092E0,-1.030903296E0,-4.046953847E0,5.316382344E0
1.135286104E1,-3.105353322E0,-6.310592875E-1,-4.012728925E0,5.113066448E0
1.136284604E1,-2.849485597E0,-3.901361686E-1,-3.832945755E0,4.791998284E0
1.137283204E1,-2.388933749E0,-3.149985704E-1,-3.248387911E0,4.044533667E0
1.138281804E1,-2.120345991E0,-1.862504831E-1,-2.618472047E0,3.374455841E0
1.139280429E1,-2.008276502E0,-1.046116582E-1,-2.192066184E0,2.974772641E0
1.140279029E1,-1.944941216E0,7.055250406E-3,-2.075418910E0,2.844329405E0
1.141277529E1,-1.896450257E0,8.056995392E-2,-2.090574893E0,2.823741928E0
1.142276129E1,-1.811712407E0,1.525705209E-1,-1.820569185E0,2.572946126E0
1.143274729E1,-1.633051903E0,2.785116524E-1,-1.302343326E0,2.107255418E0
1.144273329E1,-1.367181346E0,3.345703706E-1,-8.296753161E-1,1.633855347E0
1.145271929E1,-8.230037892E-1,2.157797992E-1,-4.266458908E-1,9.517998082E-1
1.146270429E1,-2.312825221E-1,1.336164790E-1,-3.663426787E-2,2.696053376E-1
1.147269029E1,6.287160158E-2,8.810175240E-2,3.432005686E-1,3.598630119E-1
1.148267629E1,5.604029953E-2,4.381727993E-2,6.449014011E-1,6.488129826E-1
1.149266229E1,-1.483298278E-1,6.574404627E-2,8.829596767E-1,8.977426179E-1
1.150264829E1,-2.442300117E-1,1.519603640E-2,1.095881795E0,1.122869595E0
1.151263329E1,-1.739412171E-1,-5.095819205E-2,1.201630006E0,1.215223007E0
1.152261929E1,-1.766911626E-1,9.157032073E-3,1.014614707E0,1.029925542E0
1.153260529E1,-1.974651504E-1,1.280271256E-1,5.436016059E-1,5.923564268E-1
1.154259129E1,-2.924672019E-1,2.240810913E-1,-4.716817304E-2,3.714488339E-1
1.155257729E1,-4.792108977E-1,3.457359213E-1,-5.834442410E-1,8.304117015E-1
1.156256229E1,-7.705846703E-1,3.432873997E-1,-9.894222710E-1,1.300232057E0
1.157254829E1,-8.639518404E-1,2.352182829E-1,-1.339506182E0,1.611216073E0
1.158253429E1,-8.344479597E-1,2.296406239E-1,-1.545222631E0,1.771087573E0
1.159252029E1,-9.064131510E-1,2.446401939E-1,-1.487591011E0,1.759079487E0
1.160250629E1,-9.417262405E-1,1.081518549E-1,-1.178034737E0,1.512055216E0
1.161249129E1,-7.568676871E-1,-7.351762712E-2,-5.920185980E-1,9.637113456E-1
1.162247729E1,-3.711186844E-1,-1.564749992E-1,1.124858111E-2,4.029144250E-1
1.163246329E1,1.069017202E-1,-2.715119505E-1,4.023425236E-1,4.970173270E-1
1.164244929E1,7.418321568E-1,-4.336768752E-1,6.148072439E-1,1.056588154E0
1.165243529E1,1.521967084E0,-5.943992919E-1,6.185406911E-1,1.747079538E0
1.166242029E1,2.443959557E0,-6.011171579E-1,5.183214614E-1,2.569618121E0
1.167240629E1,3.365595934E0,-7.287086660E-1,4.201028565E-1,3.469112094E0
1.168239229E1,4.246604687E0,-9.496977496E-1,2.492846373E-1,4.358637403E0
1.169237829E1,5.034340410E0,-1.149945590E0,7.229117364E-2,5.164512004E0
1.170236429E1,5.574885092E0,-1.456860677E0,-1.302204162E-1,5.763570436E0
1.171234929E1,6.085490860E0,-1.887008758E0,-4.738069010E-1,6.388935282E0
1.172233529E1,6.303245848E0,-2.324492170E0,-1.110796727E0,6.809408303E0
1.173232129E1,6.183017154E0,-2.778888069E0,-2.123537402E0,7.103613948E0
1.174230729E1,5.814667711E0,-3.061312971E0,-3.077163603E0,7.256096302E0
1.175229329E1,4.953988557E0,-3.484628580E0,-3.789841543E0,7.144755971E0
1.176227829E1,3.820389444E0,-4.004936048E0,-4.271347765E0,6.991373254E0
1.177226429E1,2.406606374E0,-4.323737063E0,-4.596245671E0,6.753660541E0
1.178225029E1,9.643877095E-1,-4.594309950E0,-4.936876681E0,6.812523683E0
1.179223629E1,-3.323773724E-1,-4.811804153E0,-5.455579673E0,7.281983486E0
1.180222229E1,-1.289782922E0,-4.635231104E0,-6.044076201E0,7.725267924E0
1.181220729E1,-2.069582804E0,-3.998067032E0,-6.253829859E0,7.705718713E0
1.182219329E1,-2.780926993E0,-3.604689459E0,-6.020584427E0,7.548163875E0
1.183217929E1,-3.435849645E0,-3.604889141E0,-5.502413532E0,7.421377445E0
1.184216529E1,-4.058312064E0,-3.489380904E0,-4.506782687E0,6.996911182E0
1.185215129E1,-4.574665645E0,-3.370691490E0,-3.762326300E0,6.815000078E0
1.186213629E1,-5.021564244E0,-3.190697820E0,-3.513801216E0,6.909664176E0
1.187212229E1,-5.474559735E0,-2.815026786E0,-3.632369885E0,7.147677321E0
1.188210829E1,-5.646862562E0,-2.411225820E0,-3.943564550E0,7.297449425E0
1.189209429E1,-5.709882098E0,-2.180370291E0,-4.287953565E0,7.466144518E0
1.190208029E1,-5.628297653E0,-1.881433291E0,-4.178241088E0,7.257769925E0
1.191206529E1,-5.503711029E0,-1.924545105E0,-3.303421905E0,6.701291311E0
1.192205129E1,-5.380486221E0,-2.201233157E0,-2.229304762E0,6.226143197E0
1.193203729E1,-5.021506941E0,-2.401163347E0,-1.215761557E0,5.697297038E0
1.194202329E1,-4.421545778E0,-2.484299498E0,-3.997258946E-1,5.087395390E0
1.195200929E1,-3.544914250E0,-2.543071032E0,-8.685132533E-2,4.363618964E0
1.196199429E1,-2.636935215E0,-2.269707853E0,-1.809116828E-1,3.483924526E0
1.197198029E1,-2.203538421E0,-1.975568493E0,-2.828344989E-1,2.972952707E0
1.198196629E1,-2.241663437E0,-2.013257453E0,-2.393127957E-1,3.022504119E0
1.199195229E1,-2.621509675E0,-2.141472566E0,-2.520629418E-1,3.394370848E0
1.200193829E1,-3.615359750E0,-2.366172000E0,-6.209146607E-1,4.365218331E0
1.201192329E1,-5.030621581E0,-2.431670902E0,-1.323707590E0,5.742158014E0
1.202190929E1,-5.872330028E0,-2.192207687E0,-1.690099677E0,6.492031379E0
1.203189529E1,-5.592597477E0,-2.149779705E0,-1.573868432E0,6.194817283E0
1.204188129E1,-4.042382494E0,-2.446003305E0,-7.264381921E-1,4.780324345E0
1.205186729E1,-2.268125011E0,-2.868952440E0,1.057530347E0,3.807052614E0
1.206185229E1,-4.742296547E-1,-3.376292245E0,3.131034878E0,4.628998002E0
1.207183829E1,1.758573496E0,-3.715850583E0,4.813998029E0,6.330458381E0
1.208182429E1,4.082669225E0,-3.362867038E0,6.080504939E0,8.059131655E0
1.209181029E1,5.850698254E0,-2.377751534E0,7.056675957E0,9.470007813E0
1.210179629E1,6.909688066E0,-1.329177075E0,7.839362610E0,1.053404514E1
1.211178129E1,6.769329162E0,-8.389940237E-1,8.419266654E0,1.083567161E1
1.212176729E1,5.406180056E0,-8.036815920E-1,8.862877949E0,1.041265060E1
1.213175329E1,3.181072426E0,-7.882794412E-1,8.832099960E0,9.420541171E0
1.214173929E1,7.399546158E-1,-6.780019042E-1,8.062559602E0,8.124782259E0
1.215172529E1,-9.940284151E-1,-2.824795912E-1,6.787699360E0,6.865912161E0
1.216171029E1,-1.912431867E0,1.535034076E-1,5.349694784E0,5.683325894E0
1.217169629E1,-2.610098249E0,3.720076439E-1,4.104780471E0,4.878547456E0
1.218168229E1,-3.444511710E0,5.747648533E-1,3.484049413E0,4.932911501E0
1.219166829E1,-4.263252295E0,4.168333127E-1,3.202860321E0,5.348587138E0
1.220165429E1,-4.792881979E0,-5.737328929E-1,3.078019928E0,5.724953604E0
1.221163929E1,-4.332011458E0,-1.643505116E0,2.432269803E0,5.232912070E0
1.222162529E1,-3.561318029E0,-1.302896180E0,1.586395800E0,4.110617495E0
1.223161129E1,-2.625877545E0,-1.440741658E0,9.597175384E-1,3.145159322E0
1.224159729E1,-1.266977026E0,-1.639651363E0,5.805109853E-1,2.151901573E0
1.225158329E1,3.823956245E-1,-1.286817506E0,1.026471106E0,1.689901962E0
1.226156829E1,2.203423816E0,-1.570990140E0,2.361605617E0,3.591694256E0
1.227155429E1,3.683593833E0,-2.332046773E0,3.582621190E0,5.642914165E0
1.228154029E1,4.495428856E0,-3.175933893E0,4.085463025E0,6.854665916E0
1.229152629E1,5.317155613E0,-4.010861324E0,3.843494132E0,7.689707375E0
1.230151229E1,6.230636294E0,-4.633090439E0,2.779572778E0,8.246961893E0
1.231149729E1,6.749536922E0,-4.390870700E0,1.593566240E0,8.208254840E0
1.232148329E1,6.911625833E0,-4.521610934E0,7.400741914E-1,8.292360755E0
1.233146929E1,6.374869562E0,-4.984579436E0,5.083873343E-1,8.108233579E0
1.234145529E1,5.834212614E0,-6.072190783E0,2.289474365E-1,8.423891895E0
1.235144129E1,5.793678546E0,-7.030143632E0,-8.486169326E-1,9.149304961E0
1.236142629E1,5.833920254E0,-6.960677540E0,-2.239194742E0,9.354124782E0
1.237141229E1,5.707889952E0,-6.796992339E0,-3.440138285E0,9.519120967E0
1.238139829E1,5.441931102E0,-6.702859769E0,-4.287574958E0,9.639825840E0
1.239138429E1,5.051573324E0,-6.365259663E0,-4.759397314E0,9.417366215E0
1.240136983E1,4.183095739E0,-6.005624911E0,-4.894018929E0,8.804387645E0
1.241135583E1,3.138618132E0,-5.802276877E0,-4.946721053E0,8.245446617E0
1.242134083E1,2.221495221E0,-5.520251048E0,-5.207191122E0,7.907151954E0
1.243132683E1,1.402033675E0,-5.179313352E0,-5.671531380E0,7.807512627E0
1.244131283E1,8.679852498E-1,-4.490520118E0,-6.188498919E0,7.695173045E0
1.245129883E1,-1.063602680E-1,-4.047886771E0,-6.689172606E0,7.819317744E0
1.246128483E1,-1.188975170E0,-3.815383935E0,-6.713900481E0,7.813275638E0
1.247126983E1,-2.103865029E0,-3.476976329E0,-6.786833972E0,7.910545355E0
1.248125583E1,-2.678305435E0,-3.063241675E0,-7.048518507E0,8.138696622E0
1.249124183E1,-3.137731694E0,-2.665328417E0,-7.263757439E0,8.349341763E0
1.250122783E1,-3.430614048E0,-2.220401791E0,-7.310418220E0,8.375052920E0
1.251121383E1,-3.288089336E0,-1.802443986E0,-7.050745127E0,7.985821351E0
1.252119883E1,-3.067448747E0,-1.549724402E0,-6.387659762E0,7.253487766E0
1.253118483E1,-3.088396981E0,-1.388413463E0,-5.625559986E0,6.566034802E0
1.254117083E1,-3.050376046E0,-1.205758140E0,-4.954970305E0,5.942253566E0
1.255115683E1,-2.597838977E0,-1.033850585E0,-4.343185487E0,5.165353285E0
1.256114283E1,-2.126147014E0,-8.261031058E-1,-3.650242485E0,4.304325460E0
1.257112783E1,-1.857255785E0,-6.210061696E-1,-3.114324705E0,3.678867500E0
1.258111383E1,-1.480046641E0,-5.246662751E-1,-2.729882555E0,3.149296989E0
1.259109983E1,-1.041332974E0,-4.484326163E-1,-2.183233380E0,2.460076049E0
1.260108583E1,-8.033121210E-1,-3.157174855E-1,-1.416841164E0,1.659043935E0
1.261107183E1,-7.964954370E-1,-2.365660661E-1,-7.792783105E-1,1.139141418E0
1.262105683E1,-8.339825213E-1,-1.676978526E-1,-4.149687088E-1,9.464927072E-1
1.263104283E1,-6.642793661E-1,-8.116403103E-2,-3.317172217E-1,7.469210075E-1
1.264102883E1,-3.111894017E-1,5.116342932E-2,-3.205268570E-1,4.496598785E-1
1.265101483E1,1.167688966E-3,1.709585524E-1,-1.883458146E-1,2.543665386E-1
1.266100083E1,6.071339428E-2,2.097185755E-1,1.299473512E-1,2.540754046E-1
1.267098583E1,-1.375083858E-1,2.179836148E-1,3.653328645E-1,4.470945251E-1
1.268097183E1,-4.872093040E-1,2.793138903E-1,3.521625960E-1,6.628783065E-1
1.269095783E1,-7.605520177E-1,3.144995105E-1,1.855076309E-1,8.436601181E-1
1.270094383E1,-1.042929849E0,4.026059407E-1,-9.309900217E-3,1.117980719E0
1.271092983E1,-1.359757136E0,5.325114843E-1,-1.524731283E-1,1.468249299E0
1.272091483E1,-1.306394861E0,5.015858531E-1,-2.124972089E-1,1.415419007E0
1.273090083E1,-9.143372977E-1,5.588514367E-1,-1.829325171E-1,1.087102538E0
1.274088683E1,-6.316723680E-1,6.456361037E-1,-9.467113573E-2,9.081952339E-1
1.275087283E1,-5.497534615E-1,5.867072797E-1,-2.986874700E-2,8.045784253E-1
1.276085883E1,-6.460723060E-1,6.180542028E-1,9.143408060E-2,8.987550352E-1
1.277084383E1,-5.079365140E-1,5.093322444E-1,3.730406642E-1,8.102951157E-1
1.278082983E1,-2.212644875E-2,2.669546306E-1,7.342184973E-1,7.815568797E-1
1.279081583E1,2.912767088E-1,1.176047561E-1,8.982960463E-1,9.516347968E-1
1.280080183E1,3.664490980E-1,-8.555938303E-3,6.921232224E-1,7.831939098E-1
1.281078783E1,3.850976229E-1,-5.713431358E-2,3.485934556E-1,5.225723932E-1
1.282077283E1,3.931299430E-1,-4.485223711E-2,-3.985345244E-2,3.976822512E-1
1.283075883E1,2.876298004E-1,-7.798665404E-2,-4.019750261E-1,5.003965847E-1
1.284074483E1,1.896123397E-1,-1.173489404E-1,-7.419040775E-1,7.746904372E-1
1.285073083E1,7.205114543E-2,-9.371507943E-2,-1.257757137E0,1.263300004E0
1.286071683E1,-1.227272093E-2,-9.751576960E-2,-1.708556414E0,1.711381011E0
1.287070183E1,-1.754252404E-1,-1.650218743E-1,-1.904505966E0,1.919674245E0
1.288068783E1,-3.891222614E-1,-2.053872505E-1,-1.980832011E0,2.029112001E0
1.289067383E1,-5.004012072E-1,-2.090695345E-1,-2.082836688E0,2.152282534E0
1.290065983E1,-4.241821665E-1,-2.893620381E-1,-2.143471144E0,2.204116478E0
1.291064583E1,-2.405310631E-1,-3.114881945E-1,-2.161087636E0,2.196629203E0
1.292063083E1,-2.233572060E-1,-2.329340681E-1,-1.996808943E0,2.022719129E0
1.293061683E1,-2.091274220E-1,-2.471822709E-1,-1.490882117E0,1.525635225E0
1.294060283E1,-5.363943279E-2,-2.585159290E-1,-7.900839651E-1,8.330308194E-1
1.295058883E1,3.029231930E-1,-2.547447672E-1,-1.442507736E-1,4.212667124E-1
1.296057483E1,7.907797837E-1,-2.726080111E-1,3.425591290E-1,9.038775088E-1
1.297055983E1,1.248960001E0,-3.068373191E-1,7.343015277E-1,1.480962173E0
1.298054583E1,2.014979750E0,-4.012441242E-1,1.097435839E0,2.329271487E0
1.299053183E1,3.184616423E0,-5.999406981E-1,1.477062807E0,3.561379668E0
1.300051783E1,4.554846507E0,-8.117183706E-1,1.815073972E0,4.969910154E0
1.301050383E1,6.106455467E0,-1.141959170E0,2.222347745E0,6.597855607E0
1.302048883E1,7.316284146E0,-1.577801562E0,2.585670336E0,7.918532854E0
1.303047483E1,8.070767339E0,-2.184509827E0,2.735095932E0,8.797165361E0
1.304046083E1,8.519517167E0,-2.813623746E0,2.485527413E0,9.310021367E0
1.305044683E1,8.370898486E0,-3.376018596E0,1.704530021E0,9.185579221E0
1.306043283E1,7.474555995E0,-3.813875645E0,6.276565003E-1,8.414783862E0
1.307041783E1,6.047847070E0,-4.169937750E0,-4.245020092E-1,7.358331127E0
1.308040383E1,4.302736203E0,-4.430889044E0,-1.390643299E0,6.330892934E0
1.309038983E1,2.727219148E0,-4.700437499E0,-2.269217271E0,5.889073271E0
1.310037583E1,1.364420875E0,-4.579969654E0,-3.252178661E0,5.780521811E0
1.311036183E1,2.118609953E-1,-4.242757511E0,-4.107375466E0,5.909010882E0
1.312034683E1,-4.831922668E-1,-4.131463071E0,-4.749899096E0,6.313794683E0
1.313033283E1,-9.836770892E-1,-3.813030430E0,-5.449088094E0,6.723048619E0
1.314031883E1,-1.416470450E0,-3.248418024E0,-6.018710979E0,6.984517882E0
1.315030483E1,-1.858833364E0,-2.981941696E0,-6.447590214E0,7.342932474E0
1.316029083E1,-2.190726587E0,-2.983975358E0,-6.909999722E0,7.839099953E0
1.317027583E1,-2.344594313E0,-2.643798969E0,-7.074600012E0,7.908018767E0
1.318026183E1,-2.762498909E0,-2.531759593E0,-6.603543642E0,7.592627706E0
1.319024783E1,-3.394001707E0,-2.761313386E0,-5.879944857E0,7.329246259E0
1.320023383E1,-4.072114416E0,-3.011823015E0,-5.389152964E0,7.395685456E0
1.321021983E1,-4.516789904E0,-3.083405213E0,-5.410462557E0,7.692976266E0
1.322020483E1,-4.639871455E0,-3.168927759E0,-5.905574373E0,8.151461153E0
1.323019083E1,-4.502318045E0,-3.057823353E0,-6.672427350E0,8.610600338E0
1.324017683E1,-4.460908064E0,-3.023070719E0,-6.791536303E0,8.669695651E0
1.325016283E1,-4.329593634E0,-3.583724852E0,-6.182905473E0,8.355643897E0
1.326014883E1,-4.023961426E0,-4.117298775E0,-5.086197027E0,7.682044973E0
1.327013383E1,-3.963828076E0,-4.767803271E0,-3.919703232E0,7.335390546E0
1.328011983E1,-3.777580224E0,-5.177371491E0,-2.737331615E0,6.969094079E0
1.329010583E1,-3.429841046E0,-5.729824027E0,-1.460286853E0,6.835724591E0
1.330009183E1,-3.251214455E0,-5.816637053E0,-1.282645226E-1,6.664841621E0
1.331007783E1,-2.718995039E0,-5.580718274E0,1.022277191E0,6.291454612E0
1.332006283E1,-2.270145809E0,-5.329362845E0,1.822970052E0,6.072799202E0
1.333004883E1,-1.815061693E0,-4.898601392E0,2.393380557E0,5.746217454E0
1.334003483E1,-1.072019747E0,-4.327001856E0,2.820668764E0,5.275257688E0
1.335002083E1,-5.951588452E-2,-3.806651995E0,3.485780774E0,5.161861017E0
1.336000683E1,1.267912581E0,-3.137656557E0,4.465806862E0,5.603206395E0
1.336999183E1,2.522825632E0,-2.407332159E0,5.530531037E0,6.538093824E0
1.337997783E1,3.082809967E0,-1.742412523E0,6.400004404E0,7.314354042E0
1.338996383E1,2.686746476E0,-1.366312011E0,6.770845345E0,7.411461518E0
1.339995079E1,1.541393874E0,-1.113599590E0,6.736369577E0,6.999619575E0
1.340993679E1,-1.958635980E-1,-7.607367897E-1,6.406106558E0,6.454090505E0
1.341992279E1,-1.215577662E0,-8.491519529E-1,5.604406514E0,5.797245938E0
1.342990779E1,-1.741934075E0,-5.436277722E-1,4.478580104E0,4.836067124E0
1.343989379E1,-1.911740141E0,-4.588105470E-2,3.431052589E0,3.927973690E0
1.344987979E1,-1.939650655E0,3.138528816E-1,2.955756987E0,3.549260157E0
1.345986579E1,-2.093875646E0,6.204290494E-1,2.705399094E0,3.476842200E0
1.346985179E1,-2.148355324E0,9.206794801E-1,3.155400810E0,3.926784381E0
1.347983679E1,-2.260641745E0,8.971204636E-1,4.268676757E0,4.912934711E0
1.348982279E1,-2.354446287E0,1.868121264E-1,5.334173934E0,5.833671884E0
1.349980879E1,-2.291743085E0,-8.120252033E-1,5.960967386E0,6.437748323E0
1.350979479E1,-2.447631024E0,-1.414038739E0,5.662946498E0,6.329246893E0
1.351978079E1,-2.668180397E0,-1.203283891E0,4.690653353E0,5.528951766E0
1.352976579E1,-2.095585372E0,-1.253304921E0,3.823656868E0,4.536805387E0
1.353975179E1,-1.079660888E0,-1.360433951E0,3.498261656E0,3.905673153E0
1.354973779E1,-2.555508059E-1,-1.873508121E0,3.632376317E0,4.095057583E0
1.355972379E1,6.924366331E-1,-2.705732677E0,3.912189560E0,4.806837314E0
1.356970979E1,1.927820569E0,-3.531326491E0,3.712556262E0,5.474471018E0
1.357969479E1,3.633617681E0,-3.474331926E0,2.803701898E0,5.756292567E0
1.358968079E1,5.621234801E0,-3.516841476E0,1.701834455E0,6.845633291E0
1.359966679E1,6.353882736E0,-2.845972005E0,1.363679448E0,7.094434728E0
1.360965279E1,5.977931328E0,-3.103595064E0,2.228122455E0,7.094539799E0
1.361963879E1,5.705506042E0,-3.893145179E0,3.266151752E0,7.640492514E0
1.362962379E1,5.560064154E0,-4.641046160E0,3.630808094E0,8.101628866E0
1.363960979E1,5.531960097E0,-5.401224541E0,2.823170788E0,8.230802048E0
1.364959579E1,6.300141562E0,-5.778150680E0,1.207902607E0,8.633529851E0
1.365958179E1,7.464522173E0,-6.055949557E0,-1.012916968E0,9.665382408E0
1.366956779E1,8.466734936E0,-5.974615372E0,-3.177693028E0,1.083878971E1
1.367955279E1,8.768915532E0,-5.974520062E0,-4.236071513E0,1.142510706E1
1.368953879E1,8.465889428E0,-6.370961283E0,-4.434420470E0,1.148583982E1
1.369952479E1,8.096647115E0,-7.226566224E0,-4.591624032E0,1.178397069E1
1.370951079E1,7.515056734E0,-7.339679441E0,-4.944451164E0,1.161010634E1
1.371949679E1,6.438790154E0,-7.000565491E0,-5.617786113E0,1.104651333E1
1.372948179E1,4.490822420E0,-6.788539605E0,-6.146794238E0,1.019974683E1
1.373946779E1,2.252781917E0,-6.658720892E0,-6.117013199E0,9.318338949E0
1.374945379E1,-1.918793052E-1,-6.372121371E0,-5.735488225E0,8.575346851E0
1.375943979E1,-1.816319429E0,-5.936808445E0,-5.289636862E0,8.156284014E0
1.376942579E1,-2.948246239E0,-5.529965612E0,-5.048629836E0,8.047442996E0
1.377941079E1,-4.014255048E0,-5.000644076E0,-5.358199559E0,8.356493719E0
1.378939679E1,-4.498717915E0,-4.239651178E0,-6.120813305E0,8.699279309E0
1.379938279E1,-4.675879778E0,-3.402272886E0,-6.965879808E0,9.053330547E0
1.380936879E1,-4.626881281E0,-2.642459957E0,-7.523383169E0,9.219106210E0
1.381935479E1,-4.202231922E0,-1.939719945E0,-7.482521657E0,8.798261017E0
1.382933979E1,-3.811014603E0,-1.532517216E0,-6.838646150E0,7.977438341E0
1.383932579E1,-3.526774433E0,-1.350483452E0,-5.789201918E0,6.912076555E0
1.384931179E1,-3.189838572E0,-1.138755481E0,-4.649014746E0,5.751971164E0
1.385929779E1,-2.963078871E0,-9.237425441E-1,-3.715459989E0,4.841258061E0
1.386928379E1,-2.813721102E0,-7.800103819E-1,-3.059871925E0,4.229451363E0
1.387926879E1,-2.592081808E0,-7.426726940E-1,-2.723162350E0,3.832240078E0
1.388925479E1,-2.404561018E0,-6.270872739E-1,-2.729487868E0,3.691240463E0
1.389924079E1,-1.881971966E0,-4.821505854E-1,-2.829222071E0,3.432023484E0
1.390922679E1,-1.273504273E0,-3.629322901E-1,-2.698167257E0,3.005601359E0
1.391921279E1,-1.121397144E0,-3.218862981E-1,-2.208075861E0,2.497346862E0
1.392919779E1,-1.182421610E0,-3.827031881E-1,-1.536020283E0,1.975839291E0
1.393918379E1,-1.039527939E0,-4.478870711E-1,-1.007222072E0,1.515162522E0
1.394916979E1,-5.890660465E-1,-5.263140205E-1,-7.171305943E-1,1.066902781E0
1.395915579E1,-3.458166128E-1,-4.908939269E-1,-5.680447215E-1,8.265838027E-1
1.396914179E1,-3.600645232E-1,-4.000773123E-1,-4.082145900E-1,6.755349496E-1
1.397912779E1,-5.676664066E-1,-3.836863974E-1,-3.011620116E-1,7.484376781E-1
1.398911279E1,-5.480384731E-1,-4.054389167E-1,-1.874143714E-1,7.070014355E-1
1.399909879E1,-3.792404670E-1,-3.375925040E-1,-1.056580174E-1,5.186093397E-1
1.400908479E1,-3.292426801E-1,-2.851114047E-1,-3.117150664E-2,4.366473615E-1
1.401907079E1,-3.071694410E-1,-2.853148878E-1,2.051735348E-1,4.667481441E-1
1.402905679E1,-2.759219205E-1,-3.935930425E-1,3.666063881E-1,6.045234761E-1
1.403904179E1,-3.283574116E-1,-4.018759158E-1,1.058860588E-1,5.296552642E-1
1.404902779E1,-3.749053413E-1,-2.634597498E-1,-3.466673827E-1,5.745810029E-1
1.405901379E1,-3.965382850E-1,-2.072764859E-1,-6.575767028E-1,7.953698971E-1
1.406899979E1,-4.732011294E-1,-2.576692522E-1,-8.529000181E-1,1.008836554E0
1.407898579E1,-5.120225483E-1,-2.327586517E-1,-1.074185556E0,1.212525582E0
1.408897079E1,-6.451133627E-1,-1.646853670E-1,-1.337798502E0,1.494321704E0
1.409895679E1,-7.858055574E-1,-1.347683805E-1,-1.533877278E0,1.728708302E0
1.410894279E1,-8.433041525E-1,-1.148963258E-1,-1.579569760E0,1.794269680E0
1.411892879E1,-8.090792298E-1,-4.716276437E-2,-1.533055744E0,1.734097299E0
1.412891479E1,-8.960922307E-1,-2.477172911E-2,-1.428366026E0,1.686364263E0
1.413889979E1,-8.653937638E-1,-2.369759560E-2,-1.201764200E0,1.481116178E0
1.414888579E1,-5.766114771E-1,-9.830046594E-3,-1.023873188E0,1.175114348E0
1.415887179E1,-4.336312670E-1,4.158042759E-2,-8.489806294E-1,9.542185896E-1
1.416885779E1,-3.963061506E-1,6.880711019E-3,-7.010226846E-1,8.053190135E-1
1.417884379E1,-9.171533167E-2,7.553140819E-3,-5.149981598E-1,5.231556715E-1
1.418882879E1,5.042171001E-1,-3.353085816E-2,-1.573414835E-1,5.292594307E-1
1.419881479E1,1.124777420E0,-7.365152836E-3,3.859828913E-1,1.189185133E0
1.420880079E1,1.736617202E0,3.306980520E-2,9.217666968E-1,1.966363842E0
1.421878679E1,2.272588776E0,-2.125755250E-3,1.351222540E0,2.643949057E0
1.422877279E1,2.883043937E0,-1.550769299E-1,1.636565495E0,3.318785593E0
1.423875779E1,3.650693890E0,-4.083920529E-1,1.887328016E0,4.129934259E0
1.424874379E1,4.617422825E0,-6.870300052E-1,2.167346642E0,5.146843230E0
1.425872979E1,5.725768399E0,-1.058732242E0,2.212998047E0,6.229181172E0
1.426871579E1,6.581497300E0,-1.642020654E0,1.908232689E0,7.046537485E0
1.427870179E1,7.120666716E0,-2.351141440E0,1.150801038E0,7.586573903E0
1.428868779E1,7.219213935E0,-3.024726650E0,-2.598385692E-1,7.831573100E0
1.429867279E1,6.723482898E0,-3.579321606E0,-2.132668706E0,7.909806651E0
1.430865879E1,5.911967134E0,-4.029601650E0,-4.027409237E0,8.210302675E0
1.431864479E1,4.638875089E0,-4.315814670E0,-5.609687719E0,8.462506406E0
1.432863079E1,2.994750314E0,-4.564840568E0,-6.705700931E0,8.647122286E0
1.433861679E1,1.173543198E0,-4.686924292E0,-7.024399327E0,8.525646536E0
1.434860179E1,-7.207716554E-1,-4.766383567E0,-6.814045744E0,8.346804388E0
1.435858779E1,-2.355572460E0,-4.662730852E0,-6.978142004E0,8.716894312E0
1.436857379E1,-3.840787455E0,-4.213536636E0,-7.010243218E0,9.035986345E0
1.437855979E1,-5.125145330E0,-3.720369604E0,-6.487214456E0,9.065992281E0
1.438854579E1,-5.747662713E0,-3.319665762E0,-5.656771839E0,8.720944620E0
1.439853004E1,-6.090682603E0,-3.037151106E0,-4.499793218E0,8.158973000E0
1.440851604E1,-6.430535055E0,-2.815989237E0,-3.259754606E0,7.739998487E0
1.441850204E1,-6.584073583E0,-2.751820431E0,-2.145596900E0,7.451585515E0
1.442848804E1,-6.392873724E0,-2.594854558E0,-1.180427417E0,6.999679530E0
1.443847404E1,-5.722834851E0,-2.442828851E0,-4.024544978E-1,6.235400640E0
1.444845904E1,-4.698632464E0,-2.271618869E0,-2.676712069E-1,5.225805889E0
1.445844504E1,-3.669299145E0,-1.731562137E0,-5.499604529E-1,4.094449921E0
1.446843104E1,-2.724061067E0,-1.487692753E0,-9.106441963E-1,3.234657830E0
1.447841704E1,-1.881619379E0,-1.334060962E0,-1.287107236E0,2.641373729E0
1.448840304E1,-1.430755783E0,-1.353209570E0,-1.454634642E0,2.448305576E0
1.449838804E1,-1.311538072E0,-1.462834631E0,-1.528393174E0,2.489177167E0
1.450837404E1,-1.066038045E0,-1.396221104E0,-1.182988790E0,2.117860468E0
1.451836004E1,-5.324094504E-1,-1.469254581E0,-9.945412159E-2,1.565905479E0
1.452834604E1,-2.733894914E-1,-1.884888119E0,1.195276129E0,2.248606248E0
1.453833204E1,-2.818568444E-1,-2.002298309E0,2.440806738E0,3.169570843E0
1.454831704E1,-3.814208937E-1,-2.058602171E0,3.086101364E0,3.729255479E0
1.455830304E1,-6.050453174E-1,-1.810406139E0,3.043462299E0,3.592535732E0
1.456828904E1,-1.133234248E0,-1.389675584E0,2.489429260E0,3.068008496E0
1.457827504E1,-2.095942637E0,-1.289293510E0,1.444648767E0,2.853465148E0
1.458826104E1,-3.034181598E0,-9.063932705E-1,7.009232819E-1,3.243316231E0
1.459824604E1,-4.128727158E0,-4.389390770E-1,3.344847089E-1,4.165445412E0
1.460823204E1,-5.342956452E0,-3.455306840E-1,3.173605531E-1,5.363514969E0
1.461821804E1,-6.446879777E0,-2.425132692E-1,5.020010054E-1,6.470940933E0
1.462820404E1,-7.254650400E0,-1.570407173E-1,6.744827574E-1,7.287629327E0
1.463819004E1,-7.725820207E0,-2.265579718E-1,7.550375086E-1,7.765932528E0
1.464817504E1,-7.374952185E0,-4.207656384E-1,8.572632104E-1,7.436522283E0
1.465816104E1,-6.131465178E0,-5.142095532E-1,1.406608536E0,6.311721181E0
1.466814704E1,-5.211197634E0,-4.604142921E-1,2.154477358E0,5.657767650E0
1.467813304E1,-4.600137286E0,-8.246132353E-1,2.901893606E0,5.501112300E0
1.468811904E1,-3.790279791E0,-1.279642242E0,3.388242200E0,5.242508023E0
1.469810504E1,-2.518188205E0,-1.631244236E0,3.513753853E0,4.620464883E0
1.470809004E1,-1.141995715E0,-1.608264678E0,3.727077822E0,4.216844624E0
1.471807604E1,-1.685933536E-1,-1.362212674E0,3.981024737E0,4.211009979E0
1.472806204E1,4.485972154E-1,-9.717372210E-1,4.501916927E0,4.627393294E0
1.473804804E1,7.810833460E-1,-4.039537605E-1,5.456952015E0,5.527349738E0
1.474803404E1,6.449677670E-1,-1.952963450E-1,6.686834305E0,6.720705105E0
1.475801904E1,5.698661292E-1,-6.198276633E-1,8.012551290E0,8.056668785E0
1.476800504E1,7.511491102E-1,-1.173192511E0,9.014710259E0,9.121710733E0
1.477799104E1,1.165681617E0,-2.112849715E0,8.854585428E0,9.177506777E0
1.478797704E1,2.393969956E0,-3.179477013E0,7.714560809E0,8.680703583E0
1.479796304E1,4.258880916E0,-3.227002012E0,5.993650982E0,8.029661310E0
1.480794804E1,5.563398237E0,-2.798896949E0,4.169125571E0,7.494453422E0
1.481793404E1,5.864620475E0,-2.462767126E0,3.377738262E0,7.201951888E0
1.482792004E1,5.784377965E0,-2.810819129E0,3.761529324E0,7.450425188E0
1.483790604E1,5.535061460E0,-3.846309566E0,4.872501760E0,8.316987198E0
1.484789204E1,6.095605373E0,-5.172665067E0,5.538065175E0,9.725380951E0
1.485787704E1,7.000213489E0,-6.310483532E0,5.109549052E0,1.072066616E1
1.486786304E1,7.645107581E0,-7.037891777E0,3.591250218E0,1.099439260E1
1.487784904E1,8.225778195E0,-7.067873375E0,1.807250397E0,1.099474488E1
1.488783504E1,8.834314300E0,-7.175712404E0,-1.440099049E-1,1.138229751E1
1.489782104E1,8.977207387E0,-7.229256527E0,-2.351444911E0,1.176357495E1
1.490780604E1,8.705845125E0,-7.545954006E0,-4.666924767E0,1.243033982E1
1.491779204E1,7.805490859E0,-7.020121504E0,-6.701145365E0,1.245444269E1
1.492777804E1,6.217185359E0,-6.065491043E0,-8.016227435E0,1.181962257E1
1.493776404E1,4.369854637E0,-5.823128632E0,-8.641614046E0,1.129964380E1
1.494775004E1,2.100803427E0,-5.802045327E0,-8.869441448E0,1.080481821E1
1.495773504E1,-1.990643638E-1,-5.460139332E0,-8.808526325E0,1.036546594E1
1.496772104E1,-1.803560804E0,-4.948970477E0,-8.588279253E0,1.007490352E1
1.497770704E1,-2.825626034E0,-4.462792037E0,-8.391605816E0,9.915630258E0
1.498769304E1,-3.608750643E0,-3.888141424E0,-8.215525103E0,9.779344438E0
1.499767904E1,-3.734609621E0,-3.203446797E0,-7.761198785E0,9.189428001E0
1.500766404E1,-3.399861787E0,-2.595724331E0,-7.098366605E0,8.287560162E0
1.501765004E1,-3.007038823E0,-2.248559058E0,-6.428118986E0,7.444394805E0
1.502763604E1,-2.399583283E0,-2.056155550E0,-5.708013913E0,6.524354252E0
1.503762204E1,-1.785114593E0,-1.827250798E0,-5.144608372E0,5.743907633E0
1.504760804E1,-1.263373387E0,-1.591520592E0,-4.773280942E0,5.187799251E0
1.505759404E1,-6.776162803E-1,-1.384708667E0,-4.147162845E0,4.424425564E0
1.506757904E1,-4.327775735E-1,-1.174967872E0,-3.329386466E0,3.557057797E0
1.507756504E1,-5.746976835E-1,-1.112206783E0,-2.715241127E0,2.989952463E0
1.508755104E1,-7.309118968E-1,-1.020205522E0,-2.294308843E0,2.615129935E0
1.509753704E1,-6.964273578E-1,-7.853772488E-1,-1.956599979E0,2.220385545E0
1.510752304E1,-6.951479870E-1,-6.080110252E-1,-1.663731658E0,1.902869192E0
1.511750804E1,-8.699586850E-1,-5.638513908E-1,-1.476810792E0,1.804363217E0
1.512749404E1,-9.148693943E-1,-4.800088964E-1,-1.398795487E0,1.738971927E0
1.513748004E1,-8.520439857E-1,-3.398315491E-1,-1.288059162E0,1.581316174E0
1.514746604E1,-7.717979676E-1,-2.642314361E-1,-1.183736649E0,1.437610103E0
1.515745204E1,-4.117656040E-1,-2.690080266E-1,-1.075746177E0,1.182855050E0
1.516743704E1,-1.225599790E-1,-2.379495174E-1,-9.794741106E-1,1.015386850E0
1.517742304E1,6.066310823E-2,-1.612904736E-1,-8.938872457E-1,9.103455594E-1
1.518740904E1,6.511400878E-2,-6.256301478E-2,-8.590238070E-1,8.637568327E-1
1.519739504E1,-1.246486044E-1,1.450401843E-3,-7.975105137E-1,8.071941511E-1
1.520738104E1,-1.263226622E-1,1.236018066E-1,-6.507354605E-1,6.743081352E-1
1.521736604E1,-3.013865447E-1,2.445978016E-1,-4.540035510E-1,5.973116089E-1
1.522735204E1,-5.975269675E-1,2.841692720E-1,-2.893670082E-1,7.221661288E-1
1.523733804E1,-9.024920082E-1,2.783648872E-1,-4.192956483E-1,1.033338123E0
1.524732404E1,-1.156528385E0,3.178213137E-1,-5.625372291E-1,1.324770330E0
1.525731004E1,-1.194225385E0,3.890520948E-1,-5.980543864E-1,1.391116404E0
1.526729604E1,-1.115758089E0,4.548376563E-1,-6.770596254E-1,1.382100989E0
1.527728104E1,-1.022738244E0,4.548627993E-1,-7.571933770E-1,1.351382807E0
1.528726704E1,-7.065553200E-1,4.021469343E-1,-6.852071357E-1,1.063226879E0
1.529725304E1,-4.012148881E-1,2.970482031E-1,-6.588630903E-1,8.266266346E-1
1.530723904E1,-2.586977774E-1,8.495039552E-2,-7.747794628E-1,8.212334173E-1
1.531722504E1,-1.218343395E-1,1.459874332E-2,-1.082803767E0,1.089734246E0
1.532721004E1,-7.927011788E-2,1.318719622E-1,-1.524605348E0,1.532349645E0
1.533719604E1,-2.571073347E-1,1.656791013E-1,-1.792641714E0,1.818548339E0
1.534718204E1,-6.845241809E-1,2.651846784E-1,-1.785875316E0,1.930866881E0
1.535716804E1,-1.240567492E0,3.192682073E-1,-1.633238429E0,2.075670411E0
1.536715404E1,-1.845859562E0,2.920312920E-1,-1.257285851E0,2.252387069E0
1.537713904E1,-2.327096520E0,2.533350036E-1,-7.657127702E-1,2.462899284E0
1.538712504E1,-2.490086487E0,1.772615585E-1,-2.687251675E-1,2.510809748E0
1.539711171E1,-2.494291220E0,1.762181228E-1,2.403157394E-1,2.512029691E0
1.540709771E1,-2.241816049E0,2.577306479E-1,6.402631704E-1,2.345655817E0
1.541708371E1,-1.585019365E0,2.880753583E-1,1.017565212E0,1.905442930E0
1.542706871E1,-9.761219019E-1,3.533370093E-1,1.645900136E0,1.945931208E0
1.543705471E1,-4.867076129E-1,2.043625259E-1,2.552840559E0,2.606845462E0
1.544704071E1,1.124717778E-1,8.129822463E-2,3.273309914E0,3.276250463E0
1.545702671E1,9.431687486E-1,-6.961168706E-2,3.326932390E0,3.458741419E0
1.546701271E1,2.058081331E0,-4.777145952E-2,2.764655946E0,3.446926657E0
1.547699771E1,3.341603054E0,1.817431569E-2,1.954512085E0,3.871273533E0
1.548698371E1,4.602194336E0,-2.094174439E-1,1.423347799E0,4.821821993E0
1.549696971E1,5.602181064E0,-5.690252995E-1,1.293247251E0,5.777604254E0
1.550695571E1,6.197984272E0,-1.026340129E0,1.240559014E0,6.403699694E0
1.551694171E1,6.340039453E0,-1.472202017E0,8.448808542E-1,6.563330153E0
1.552692771E1,6.095859143E0,-1.675505320E0,3.331195302E-1,6.330701808E0
1.553691271E1,5.545757187E0,-2.065635056E0,-2.216341777E-1,5.922110491E0
1.554689871E1,4.992480778E0,-2.668430657E0,-1.121098351E0,5.770809996E0
1.555688471E1,4.673801678E0,-3.079010446E0,-2.347965525E0,6.069404382E0
1.556687071E1,4.267945270E0,-3.264979093E0,-3.433143554E0,6.376669975E0
1.557685671E1,3.600029520E0,-3.506916704E0,-3.951754160E0,6.393358918E0
1.558684171E1,2.572518779E0,-3.864648481E0,-4.001948998E0,6.129352048E0
1.559682771E1,1.619386960E0,-4.299673432E0,-3.855434146E0,5.997831124E0
1.560681371E1,1.164627364E0,-4.573719858E0,-4.046494256E0,6.216863035E0
1.561679971E1,1.126761965E0,-4.444250224E0,-4.716786314E0,6.577919558E0
1.562678571E1,1.260801197E0,-4.167925723E0,-5.424930907E0,6.956371169E0
1.563677071E1,1.256390058E0,-3.914778415E0,-6.079095175E0,7.338896658E0
1.564675671E1,6.738547665E-1,-3.961868089E0,-6.465502574E0,7.612700082E0
1.565674271E1,4.197757047E-1,-4.410250419E0,-6.664063493E0,8.002266094E0
1.566672871E1,-1.345982265E-1,-4.462538853E0,-7.095591516E0,8.383304161E0
1.567671471E1,-1.195711747E0,-4.146010066E0,-7.472097241E0,8.628520338E0
1.568669971E1,-1.455497691E0,-4.242691146E0,-7.724161937E0,8.932053477E0
1.569668571E1,-1.393045335E0,-4.308863793E0,-7.859741911E0,9.070966067E0
1.570667171E1,-1.908463361E0,-4.236370305E0,-7.533612288E0,8.851236065E0
1.571665771E1,-2.726477137E0,-4.263637626E0,-6.592969537E0,8.311409670E0
1.572664371E1,-3.561640211E0,-4.728748548E0,-5.061726429E0,7.788929212E0
1.573662871E1,-4.370085602E0,-5.284985987E0,-3.395331949E0,7.652254838E0
1.574661471E1,-5.337647181E0,-5.191030587E0,-1.958607913E0,7.698923362E0
1.575660071E1,-6.137955587E0,-4.679717598E0,-3.628302562E-1,7.726959388E0
1.576658671E1,-6.127753950E0,-4.290220823E0,5.051760435E-1,7.497370607E0
1.577657271E1,-5.662500356E0,-3.891226122E0,5.486632481E-1,6.892501895E0
1.578655871E1,-4.869965823E0,-2.926684046E0,8.082796231E-1,5.738933923E0
1.579654371E1,-4.125531070E0,-2.612990282E0,5.689919704E-1,4.916449602E0
1.580652971E1,-3.354486809E0,-2.549415845E0,6.202331677E-1,4.258731276E0
1.581651571E1,-2.802343006E0,-2.230905145E0,6.311721388E-1,3.637092569E0
1.582650171E1,-2.521348041E0,-2.125219938E0,2.292561695E-1,3.305497560E0
1.583648771E1,-2.489769568E0,-1.894063131E0,-1.669178340E-1,3.132776597E0
1.584647271E1,-2.674432240E0,-1.656568235E0,-2.929171452E-1,3.159526321E0
1.585645871E1,-3.022497692E0,-1.442310758E0,6.181793332E-2,3.349563266E0
1.586644471E1,-3.373973240E0,-1.399161522E0,9.219936419E-1,3.767150205E0
1.587643071E1,-3.589751869E0,-1.636099764E0,1.908472424E0,4.382397508E0
1.588641671E1,-3.804971505E0,-1.589650652E0,2.684147096E0,4.920309237E0
1.589640171E1,-4.113047850E0,-1.179197748E0,3.168182824E0,5.324007170E0
1.590638771E1,-4.411505524E0,-8.679966518E-1,3.333795267E0,5.597230570E0
1.591637371E1,-4.521944225E0,-6.198054439E-1,3.193159790E0,5.570314875E0
1.592635971E1,-4.486542842E0,-4.801175085E-1,2.781271979E0,5.300476707E0
1.593634571E1,-4.242368379E0,-4.631813407E-1,2.343831251E0,4.868857294E0
1.594633071E1,-3.869668023E0,-4.597779688E-1,2.157225550E0,4.454138352E0
1.595631671E1,-3.484026609E0,-2.998098430E-1,2.108607121E0,4.083448462E0
1.596630271E1,-2.900247615E0,-4.112549959E-1,2.351122729E0,3.756107691E0
1.597628871E1,-2.258420972E0,-8.238149442E-1,2.761703687E0,3.661440100E0
1.598627471E1,-1.459956193E0,-1.200371101E0,3.042104575E0,3.581447069E0
1.599626071E1,-6.019766986E-1,-1.070033448E0,3.385904483E0,3.601624174E0
1.600624571E1,-9.924420655E-2,-5.980987521E-1,3.827537665E0,3.875256908E0
1.601623171E1,4.056342137E-1,-2.521122046E-1,4.147651087E0,4.175057990E0
1.602621771E1,1.082115549E0,-2.651852266E-1,4.320990041E0,4.462314668E0
1.603620371E1,1.208056973E0,-1.777600336E-1,4.438547142E0,4.603444473E0
1.604618971E1,8.333106762E-1,1.438983692E-1,4.605132562E0,4.682131922E0
1.605617471E1,3.105655038E-1,4.184995499E-1,5.098873791E0,5.125437224E0
1.606616071E1,-7.247588718E-1,4.257717320E-1,6.031866630E0,6.090153695E0
1.607614671E1,-2.100537964E0,-1.903122514E-2,6.882982662E0,7.196393003E0
1.608613271E1,-2.917722019E0,-9.383747627E-1,7.173651261E0,7.800956440E0
1.609611871E1,-3.121206293E0,-1.425663443E0,7.083717576E0,7.871054546E0
1.610610371E1,-2.832858455E0,-2.000276341E0,6.753139976E0,7.591514474E0
1.611608971E1,-1.288778370E0,-3.108853465E0,5.993345173E0,6.873580284E0
1.612607571E1,1.821677817E0,-4.733112910E0,4.714117645E0,6.924144211E0
1.613606171E1,4.915749521E0,-5.083348264E0,2.777621562E0,7.597381422E0
1.614604771E1,7.307434970E0,-3.871410493E0,8.921208018E-1,8.317590070E0
1.615603371E1,9.288581561E0,-3.392626442E0,3.388753831E-2,9.888822476E0
1.616601871E1,1.065875610E1,-3.670462741E0,-6.118935764E-2,1.127320373E1
1.617600471E1,1.112667368E1,-4.030427277E0,2.922947091E-1,1.183776362E1
1.618599071E1,1.010441666E1,-4.707410304E0,7.855193362E-1,1.117479255E1
1.619597671E1,8.846479433E0,-5.260907153E0,9.794887286E-1,1.033908800E1
1.620596271E1,7.573331839E0,-6.109663249E0,9.144336306E-1,9.773409284E0
1.621594771E1,6.127928782E0,-7.210039068E0,3.626222415E-1,9.469301421E0
1.622593371E1,4.896779984E0,-8.123405728E0,-1.008658587E0,9.538635489E0
1.623591971E1,4.220495115E0,-8.336488207E0,-3.215228351E0,9.881665244E0
1.624590571E1,3.678917815E0,-7.926952731E0,-5.705156379E0,1.043646613E1
1.625589171E1,3.087156787E0,-7.434886145E0,-7.833004348E0,1.123227609E1
1.626587671E1,2.573727399E0,-6.698843901E0,-9.401041059E0,1.182700957E1
1.627586271E1,2.141720488E0,-5.839225432E0,-1.038203077E1,1.210248252E1
1.628584871E1,1.397439517E0,-5.106102118E0,-1.088556959E1,1.210457523E1
1.629583471E1,2.132321674E-1,-4.511569510E0,-1.090993026E1,1.180789167E1
1.630582071E1,-1.074185556E0,-4.066951033E0,-1.037744421E1,1.119755838E1
1.631580571E1,-1.840836219E0,-3.595088623E0,-9.458131519E0,1.028443445E1
1.632579171E1,-2.283609608E0,-3.138278116E0,-8.153407207E0,9.030044931E0
1.633577771E1,-2.734867306E0,-2.786250591E0,-6.651421813E0,7.712593835E0
