"Time (s)","Linear Acceleration x (m/s^2)","Linear Acceleration y (m/s^2)","Linear Acceleration z (m/s^2)","Absolute acceleration (m/s^2)"
7.623749552E-4,4.829653949E-2,1.714125887E-1,5.711548555E-1,5.982747698E-1
1.074837497E-2,1.336547783E-1,1.285410959E-1,4.733402932E-1,5.083674323E-1
2.073437499E-2,1.862563303E-1,2.355454347E-1,3.276376194E-1,4.444316393E-1
3.072037495E-2,2.186098516E-1,3.859495622E-1,3.593868309E-1,5.708819721E-1
4.070637497E-2,2.018023226E-1,4.394197181E-1,4.480598563E-1,6.592203735E-1
5.069237499E-2,1.525199425E-1,5.598934105E-1,4.910871774E-1,7.602036436E-1
6.067837495E-2,1.231245276E-1,7.293372416E-1,5.475508153E-1,9.202740661E-1
7.066437497E-2,1.854520458E-1,8.114225015E-1,6.457407689E-1,1.053461000E0
8.065037499E-2,2.917246056E-1,8.257572430E-1,8.239849520E-1,1.202468075E0
9.063637495E-2,2.903043169E-1,8.151615036E-1,1.000842175E0,1.323045703E0
1.006223750E-1,3.573604783E-1,8.316793031E-1,1.183609765E0,1.490076860E0
1.106083750E-1,5.472224942E-1,9.336173218E-1,1.468952134E0,1.824531210E0
1.205943750E-1,7.360559848E-1,9.819126919E-1,1.847423108E0,2.217860024E0
1.305803750E-1,8.067692873E-1,1.020815095E0,2.166061277E0,2.526808580E0
1.405663750E-1,9.420416978E-1,1.178219509E0,2.473848184E0,2.897510761E0
1.505523750E-1,1.086764963E0,1.327972841E0,2.766501912E0,3.255472743E0
1.605383750E-1,1.023746596E0,1.534597947E0,3.152977724E0,3.652987337E0
1.705243750E-1,7.138149306E-1,1.769146724E0,3.776673321E0,4.231155074E0
1.805103750E-1,3.138022301E-1,2.005133916E0,4.468283157E0,4.907605142E0
1.904963750E-1,-8.872184962E-2,2.124598379E0,5.060686210E0,5.489292737E0
2.004823750E-1,-1.103854913E-1,1.951908758E0,5.373290053E0,5.717899855E0
2.104683749E-1,2.244523895E-1,1.620073130E0,5.164266711E0,5.417071763E0
2.204543750E-1,4.495596671E-1,1.264827298E0,4.408143375E0,4.607995226E0
2.304403750E-1,4.780379462E-1,9.593783998E-1,3.656137063E0,3.810021708E0
2.404263749E-1,3.730196142E-1,8.085506415E-1,2.977535527E0,3.107831332E0
2.504123750E-1,3.769641459E-1,7.625853869E-1,2.586808789E0,2.723089817E0
2.603983750E-1,5.797865152E-1,8.066929811E-1,2.538585632E0,2.726045301E0
2.703843749E-1,8.149217677E-1,8.416069981E-1,2.796563033E0,3.032023190E0
2.803703750E-1,9.279309046E-1,7.426726940E-1,3.135366495E0,3.353079414E0
2.903563750E-1,9.597380036E-1,4.506153819E-1,2.993822361E0,3.176023235E0
3.003423749E-1,8.976779956E-1,1.859338564E-1,2.597956506E0,2.754954662E0
3.103283750E-1,5.784469181E-1,-1.649575549E-1,2.240555390E0,2.319892300E0
3.203143750E-1,4.029059029E-1,-3.529934853E-1,2.099396002E0,2.166656674E0
3.303003750E-1,7.811482501E-1,-2.576622355E-1,1.826189821E0,2.002885838E0
3.402863750E-1,9.456163931E-1,-1.721893913E-1,1.811015127E0,2.050272016E0
3.502723750E-1,6.246913773E-1,-3.476286650E-1,1.791966945E0,1.929308305E0
3.602583750E-1,4.002214462E-1,-5.158425343E-1,1.295725447E0,1.450922176E0
3.702443750E-1,1.353110021E-1,-6.127420074E-1,9.169097802E-1,1.111073976E0
3.802303750E-1,-1.791996181E-1,-1.009208372E0,4.583310753E-1,1.122800701E0
3.902163750E-1,-1.079049270E0,-1.384662766E0,-1.777733068E0,2.498394117E0
4.002023750E-1,-9.170539141E-1,-1.418715196E0,-3.061293967E0,3.496464135E0
4.101883750E-1,-7.880772007E-1,-2.031089998E0,-4.160876319E0,4.696731204E0
4.201743750E-1,-5.249086422E-1,-2.930787038E0,-5.072560735E0,5.881829151E0
4.301603750E-1,-1.735979855E-2,-3.550657970E0,-5.299558418E0,6.379090281E0
4.401463750E-1,6.644600451E-1,-3.887557579E0,-5.146994036E0,6.484300941E0
4.501323750E-1,1.036452888E0,-4.143865015E0,-4.590286481E0,6.270293600E0
4.601183750E-1,7.523629922E-1,-4.373036692E0,-3.782505333E0,5.830681485E0
4.701043750E-1,-1.542507184E-1,-4.460319834E0,-3.096846793E0,5.432191672E0
4.800903750E-1,-1.042715841E0,-4.649575494E0,-2.494276894E0,5.378403650E0
4.900763750E-1,-1.908083292E0,-5.170427338E0,-2.353183727E0,5.992626666E0
5.000623750E-1,-2.697839229E0,-6.033302706E0,-2.824642532E0,7.187327979E0
5.100491250E-1,-2.736290519E0,-6.767680832E0,-4.191825632E0,8.417849593E0
5.200351250E-1,-2.945255973E0,-7.361048675E0,-5.861413862E0,9.859804400E0
5.300211250E-1,-3.829116998E0,-7.854543736E0,-7.200940801E0,1.132296528E1
5.400071250E-1,-4.898913633E0,-8.262142029E0,-8.472131331E0,1.280778494E1
5.499931250E-1,-6.100539839E0,-9.120051942E0,-9.330711919E0,1.440326764E1
5.599791250E-1,-7.846430140E0,-1.024144733E1,-9.717555521E0,1.615192232E1
5.699651250E-1,-9.802575790E0,-1.143687081E1,-9.509874115E0,1.781376467E1
5.799511250E-1,-1.180503841E1,-1.256208560E1,-8.620023202E0,1.927354992E1
5.899371250E-1,-1.369989763E1,-1.308107043E1,-7.063186247E0,2.021608762E1
5.999231250E-1,-1.502404874E1,-1.345005547E1,-5.165411012E0,2.081603957E1
6.099091250E-1,-1.603085741E1,-1.405891317E1,-2.986689928E0,2.153048410E1
6.198951250E-1,-1.685726194E1,-1.365189199E1,-8.168373156E-1,2.170734112E1
6.298811250E-1,-1.812963829E1,-1.189819975E1,2.363850363E0,2.181372802E1
6.398671250E-1,-1.922864118E1,-1.055084222E1,5.394942877E0,2.258686171E1
6.498531250E-1,-1.915271391E1,-1.018384758E1,7.549889767E0,2.296819621E1
6.598391250E-1,-1.971639018E1,-9.301197513E0,1.017338340E1,2.405714128E1
6.698251250E-1,-2.038982804E1,-7.865280393E0,1.326865028E1,2.556686925E1
6.798111250E-1,-1.945618908E1,-7.876882439E0,1.540825524E1,2.603848882E1
6.897971250E-1,-1.710936347E1,-8.006567250E0,1.659770053E1,2.514595595E1
6.997831250E-1,-1.335548494E1,-6.960485752E0,1.742525930E1,2.303165217E1
7.097691250E-1,-9.623918794E0,-5.186872047E0,1.795619233E1,2.102256639E1
7.197551250E-1,-7.285723089E0,-4.018636951E0,1.810951685E1,1.992952093E1
7.297411250E-1,-5.470449142E0,-4.031040650E0,1.815607238E1,1.938602762E1
7.397271250E-1,-2.663325453E0,-3.096409421E0,1.777307157E1,1.823631341E1
7.497131250E-1,-4.729407822E-1,-2.132655550E0,1.788705368E1,1.801994956E1
7.596991250E-1,1.273151101E0,-2.167880931E0,1.814535560E1,1.831869404E1
7.696851250E-1,3.011799333E0,-2.001755541E0,1.763221448E1,1.799924854E1
7.796711250E-1,4.589857296E0,-1.938022352E0,1.710814491E1,1.781884797E1
7.896571250E-1,5.842103432E0,-1.898969237E0,1.628610007E1,1.740612858E1
7.996431250E-1,6.841735818E0,-1.903973138E0,1.513626850E1,1.671948225E1
8.096291250E-1,7.578473296E0,-1.996505180E0,1.368658703E1,1.577155525E1
8.196151250E-1,8.326747915E0,-2.215369385E0,1.180391223E1,1.461420324E1
8.296011250E-1,8.956036373E0,-2.592792830E0,9.657593493E0,1.342394407E1
8.395871250E-1,9.340684345E0,-3.002713053E0,7.337137656E0,1.225145945E1
8.495731250E-1,9.649641280E0,-3.252220176E0,5.072377717E0,1.137635832E1
8.595591250E-1,9.599306109E0,-3.267236119E0,2.932469282E0,1.055560921E1
8.695451250E-1,9.101256652E0,-3.362174436E0,1.295849408E0,9.788580861E0
8.795311250E-1,8.097237099E0,-3.323278172E0,3.078792930E-2,8.752735250E0
8.895171250E-1,6.970074016E0,-2.908518794E0,-9.048583764E-1,7.606588068E0
8.995031250E-1,5.884461247E0,-2.271138959E0,-1.445958543E0,6.471147691E0
9.094891250E-1,4.801203736E0,-1.596518499E0,-1.546097374E0,5.290637554E0
9.194751250E-1,3.874689027E0,-9.692544933E-1,-1.395960757E0,4.231001745E0
9.294611250E-1,2.858906046E0,-5.222896743E-1,-1.158212968E0,3.128512037E0
9.394471250E-1,1.791620936E0,-2.238277607E-1,-1.047754387E0,2.087532922E0
9.494331250E-1,9.083612971E-1,-3.607527405E-2,-1.041426530E0,1.382385941E0
9.594191250E-1,1.598728162E-1,-5.734145120E-2,-1.012375224E0,1.026523722E0
9.694051250E-1,-4.388823590E-1,-1.877834038E-1,-1.037069185E0,1.141662308E0
9.793911250E-1,-6.846184672E-1,-2.960681366E-1,-1.200913430E0,1.413701472E0
9.893771250E-1,-7.253111413E-1,-3.446007574E-1,-1.500728828E0,1.702061382E0
9.993631250E-1,-7.167822464E-1,-4.258496462E-1,-1.624046606E0,1.825555282E0
1.009349125E0,-5.787745084E-1,-4.453686022E-1,-1.538326424E0,1.702874426E0
1.019335125E0,-3.227522707E-1,-3.988830916E-1,-1.278596029E0,1.377709895E0
1.029321125E0,-1.209689516E-1,-2.294015459E-1,-9.355685377E-1,9.708486212E-1
1.039307125E0,-8.724754728E-2,3.986609705E-2,-5.168447471E-1,5.256709358E-1
1.049293125E0,-1.679462861E-1,2.660448039E-1,-9.571950495E-2,3.288586570E-1
1.059279125E0,-2.727950489E-1,3.519091192E-1,2.569424433E-1,5.140783851E-1
1.069265125E0,-5.467632685E-1,4.329632226E-1,6.725385582E-1,9.688732302E-1
1.079251125E0,-9.428552648E-1,5.854860156E-1,1.134978472E0,1.587433796E0
1.089237125E0,-1.241096665E0,8.026294586E-1,1.645201247E0,2.211610753E0
1.099223125E0,-1.522170275E0,9.775974467E-1,2.326240488E0,2.946878674E0
1.109209125E0,-1.822438248E0,1.153732831E0,3.053436479E0,3.738429476E0
1.119195125E0,-1.889902983E0,1.364602285E0,3.775699174E0,4.437316412E0
1.129181125E0,-1.770977926E0,1.469300628E0,4.551862088E0,5.100456413E0
1.139167125E0,-1.607260858E0,1.625047795E0,5.255419541E0,5.730925087E0
1.149153125E0,-1.307633155E0,1.746638160E0,5.632828075E0,6.040645781E0
1.159139125E0,-9.635490726E-1,1.710692986E0,5.696191428E0,6.025072123E0
1.169125125E0,-5.734112960E-1,1.541111892E0,5.560795641E0,5.798816650E0
1.179111125E0,-1.438686215E-1,1.239562648E0,5.355230927E0,5.498700940E0
1.189097125E0,4.903213383E-1,1.119931978E0,5.085428118E0,5.230319474E0
1.199083125E0,1.100652246E0,1.362668172E0,4.882202876E0,5.186926338E0
1.209069125E0,1.518660776E0,1.613873035E0,5.112286134E0,5.571928413E0
1.219055125E0,1.560789234E0,1.689257094E0,5.663883807E0,6.113037898E0
1.229041125E0,1.161395608E0,1.039896752E0,6.135386320E0,6.330338878E0
1.239027125E0,7.895518684E-1,-3.060330346E-2,5.669474915E0,5.724270654E0
1.249013125E0,5.152505037E-1,-7.536411935E-1,5.093658074E0,5.174824703E0
1.258999125E0,6.171996322E-1,-1.034229777E0,4.982244642E0,5.125751486E0
1.268985125E0,1.006707225E0,-1.112454120E0,4.920662352E0,5.144310604E0
1.278971125E0,1.669555193E0,-1.193000685E0,4.764758626E0,5.187830947E0
1.288957125E0,2.635386288E0,-1.284774197E0,4.919865376E0,5.727214065E0
1.298943125E0,3.255279440E0,-1.275508114E0,4.880481455E0,6.003570972E0
1.308929125E0,3.189554397E0,-1.618132732E0,4.551939272E0,5.788934438E0
1.318915125E0,2.302270412E0,-2.423178260E0,4.204673134E0,5.371360916E0
1.328901125E0,1.015949042E0,-3.197754240E0,4.165048892E0,5.348403211E0
1.338887125E0,-9.814007682E-1,-3.956424039E0,3.904151393E0,5.644363271E0
1.348873125E0,-3.394122745E0,-5.107765067E0,3.150903717E0,6.894746363E0
1.358859125E0,-4.635643918E0,-5.607936478E0,2.155238374E0,7.588359409E0
1.368845125E0,-4.724321036E0,-5.389958711E0,1.009365369E0,7.238071746E0
1.378831125E0,-4.025475855E0,-4.734971447E0,-1.012838615E-1,6.215679278E0
1.388817125E0,-3.123077402E0,-4.195659944E0,-8.613989460E-1,5.300866247E0
1.398803125E0,-2.773812101E0,-4.079119381E0,-1.070891819E0,5.047777509E0
1.408789125E0,-3.057386273E0,-4.387349214E0,-1.001297089E0,5.440499960E0
1.418775125E0,-3.672977629E0,-5.234939668E0,-6.984769531E-1,6.432979717E0
1.428761125E0,-4.129069805E0,-6.360436295E0,-1.242570748E0,7.684292380E0
1.438747125E0,-4.460064311E0,-7.530125009E0,-2.580764230E0,9.124434247E0
1.448733125E0,-5.290906293E0,-8.509274599E0,-4.392695908E0,1.094062251E1
1.458719125E0,-6.327322928E0,-9.073712758E0,-6.357764118E0,1.275885744E1
1.468705125E0,-6.823205407E0,-9.074300988E0,-8.396346738E0,1.412082537E1
1.478691125E0,-7.073075643E0,-9.036155507E0,-9.738686188E0,1.505066490E1
1.488677125E0,-7.628443601E0,-9.024224848E0,-1.016392261E1,1.558637574E1
1.498663125E0,-7.983326322E0,-8.924985319E0,-1.000567122E1,1.560456083E1
1.508648875E0,-8.046811881E0,-9.139958203E0,-9.029352272E0,1.515978957E1
1.518634875E0,-8.319283944E0,-9.721802938E0,-6.904072984E0,1.453926276E1
1.528620875E0,-8.838063535E0,-9.839717889E0,-4.326119511E0,1.391570067E1
1.538606875E0,-9.116389246E0,-9.750288818E0,-2.712298516E0,1.362105900E1
1.548592875E0,-9.575988582E0,-9.900402632E0,-2.595375545E0,1.401618721E1
1.558578875E0,-1.069467086E1,-1.052891516E1,-2.992914873E0,1.530331921E1
1.568564875E0,-1.192814101E1,-1.189630526E1,-3.084298668E0,1.712645687E1
1.578550875E0,-1.287022217E1,-1.369318620E1,-2.855808776E0,1.900793547E1
1.588536875E0,-1.380877981E1,-1.512739009E1,-1.615173164E0,2.054578095E1
1.598522875E0,-1.457396048E1,-1.598001236E1,1.020153190E0,2.165183206E1
1.608508875E0,-1.587544076E1,-1.524146693E1,4.880858308E0,2.254228718E1
1.618494875E0,-1.748102770E1,-1.235776752E1,9.370875274E0,2.336908323E1
1.628480875E0,-1.841096888E1,-8.328763450E0,1.401511168E1,2.459177568E1
1.638466875E0,-1.882054529E1,-3.912453269E0,1.861174122E1,2.675662771E1
1.648452875E0,-1.858302203E1,-1.041105225E0,2.165383936E1,2.855348257E1
1.658438875E0,-1.751383760E1,-2.212159849E0,2.213943892E1,2.831577148E1
1.668424875E0,-1.505552196E1,-4.753427891E0,2.086933715E1,2.616855080E1
1.678410875E0,-1.111373964E1,-5.157727185E0,1.798039980E1,2.175803611E1
1.688396875E0,-5.531281235E0,-3.675794232E0,1.611199104E1,1.742707062E1
1.698382875E0,-1.994067475E0,-2.058507739E0,1.503036607E1,1.530116542E1
1.708368875E0,-2.252326712E0,-1.990726961E0,1.487593409E1,1.517660648E1
1.718354875E0,-3.386160007E0,-1.953664092E0,1.544744094E1,1.593443801E1
1.728340875E0,-4.325229565E0,-1.524954427E0,1.550196740E1,1.616614023E1
1.738326875E0,-4.036522122E0,-1.466307439E0,1.545810627E1,1.604358494E1
1.748312875E0,-2.004429034E0,-1.278583457E0,1.587301767E1,1.605008416E1
1.758298875E0,9.620513083E-1,-9.996215692E-1,1.632088632E1,1.637974714E1
1.768284875E0,3.824169084E0,-6.223978069E-1,1.656580981E1,1.701286875E1
1.778270875E0,5.910098364E0,-8.169968715E-1,1.647238300E1,1.751959327E1
1.788256875E0,7.091970336E0,-1.422629030E0,1.542794165E1,1.703940434E1
1.798242875E0,7.749186850E0,-2.209179815E0,1.363753825E1,1.584022796E1
1.808228875E0,8.181691943E0,-3.042244323E0,1.142589793E1,1.437868134E1
1.818214875E0,8.696702419E0,-3.757735066E0,8.922711922E0,1.301414591E1
1.828200875E0,9.365875905E0,-4.402360771E0,6.636921303E0,1.229427250E1
1.838186875E0,1.014535068E1,-4.888058277E0,4.627673578E0,1.217524607E1
1.848172875E0,1.063473223E1,-5.031642505E0,2.661787051E0,1.206234082E1
1.858158875E0,1.053286905E1,-4.918588929E0,1.042087265E0,1.167132355E1
1.868144875E0,9.841039360E0,-4.555922980E0,-1.906478816E-1,1.084614385E1
1.878130875E0,8.775878981E0,-4.064869131E0,-1.218657975E0,9.748042891E0
1.888116875E0,7.541596661E0,-3.588218145E0,-1.870589776E0,8.558626979E0
1.898102875E0,6.333609855E0,-3.148490571E0,-2.231944780E0,7.416817657E0
1.908088875E0,5.207026230E0,-2.809319319E0,-2.429270182E0,6.395838554E0
1.918074875E0,4.121729503E0,-2.539421492E0,-2.595864957E0,5.493253179E0
1.928060875E0,3.210313767E0,-2.357049175E0,-2.730942070E0,4.829062009E0
1.938046875E0,2.331325519E0,-2.073811364E0,-2.832056217E0,4.213824232E0
1.948032875E0,1.596077327E0,-1.604247641E0,-3.039569222E0,3.789466240E0
1.958018875E0,9.238938408E-1,-1.291766151E0,-3.171059654E0,3.546527731E0
1.968004875E0,3.786962374E-1,-1.194797608E0,-3.297547207E0,3.527714522E0
1.977990875E0,-9.455057345E-2,-1.123075880E0,-3.415998933E0,3.597122176E0
1.987976875E0,-7.272636728E-1,-9.862534455E-1,-3.266945804E0,3.489203806E0
1.997962875E0,-1.209390942E0,-8.476473912E-1,-3.070848318E0,3.407527247E0
2.007948875E0,-1.370613223E0,-7.025063425E-1,-2.866356568E0,3.253935424E0
2.017934875E0,-1.579696937E0,-4.590440702E-1,-2.538896120E0,3.025253275E0
2.027920875E0,-1.752171965E0,-1.713355516E-1,-2.091501092E0,2.733832343E0
2.037906875E0,-1.769715658E0,1.509659719E-1,-1.601388645E0,2.391470223E0
2.047892875E0,-1.656999759E0,4.583375803E-1,-1.148408357E0,2.067501703E0
2.057878875E0,-1.527144209E0,6.045546629E-1,-8.047481972E-1,1.829009414E0
2.067864875E0,-1.416987929E0,6.246826065E-1,-5.163717073E-1,1.632397895E0
2.077850875E0,-1.359415659E0,6.618406387E-1,-2.923601979E-1,1.539973522E0
2.087836875E0,-1.333273488E0,6.385763218E-1,-1.356618351E-1,1.484520814E0
2.097822875E0,-1.256689728E0,5.310666739E-1,-3.173693240E-2,1.364664104E0
2.107808875E0,-1.178406620E0,4.745955442E-1,6.142090738E-2,1.271870913E0
2.117794875E0,-1.115606500E0,5.026099564E-1,2.764908546E-1,1.254448813E0
2.127780875E0,-1.112074709E0,5.512859071E-1,6.732606894E-1,1.412057458E0
2.137766875E0,-1.170167601E0,5.807946118E-1,1.174104531E0,1.756455534E0
2.147752875E0,-1.130875773E0,6.674728230E-1,1.766752582E0,2.201321119E0
2.157738875E0,-9.765464828E-1,8.152335705E-1,2.352967526E0,2.674828029E0
2.167724875E0,-7.272611146E-1,9.755402501E-1,2.918935316E0,3.162399546E0
2.177710875E0,-5.165507052E-1,1.193768571E0,3.613141317E0,3.840142993E0
2.187696875E0,-3.146432059E-1,1.341483125E0,4.297493005E0,4.512983874E0
2.197682875E0,-1.125282034E-1,1.193285445E0,4.998377110E0,5.140074560E0
2.207668875E0,-3.537156165E-2,1.037696152E0,5.588255920E0,5.683895555E0
2.217654875E0,1.573171444E-1,9.691891506E-1,6.051239625E0,6.130381496E0
2.227640875E0,5.070668869E-1,9.997638027E-1,6.463278878E0,6.559772736E0
2.237626875E0,9.415094550E-1,1.309588611E0,6.869255739E0,7.056070917E0
2.247612875E0,1.522129052E0,1.711166318E0,7.276352926E0,7.628255300E0
2.257598875E0,2.066604232E0,2.063365021E0,7.744129009E0,8.276464364E0
2.267584875E0,2.394099472E0,2.185088263E0,8.004544113E0,8.635916249E0
2.277570875E0,2.398001904E0,1.876296951E0,7.918167874E0,8.483412395E0
2.287556875E0,2.391892440E0,1.485521389E0,7.554888552E0,8.062522203E0
2.297542875E0,2.205847487E0,1.236448129E0,7.210239043E0,7.640818946E0
2.307528875E0,2.084677537E0,1.030459419E0,7.117595758E0,7.487849920E0
2.317514875E0,1.915294371E0,8.208891436E-1,7.144604632E0,7.442283713E0
2.327500875E0,1.576845981E0,3.469375241E-1,7.126996912E0,7.307591523E0
2.337486875E0,1.166023679E0,-2.949296106E-1,7.071437838E0,7.172992945E0
2.347472875E0,7.922895348E-1,-9.579458320E-1,6.535112507E0,6.652298731E0
2.357458875E0,5.763702795E-1,-1.880574481E0,5.775262740E0,6.101018177E0
2.367444875E0,3.864348811E-1,-2.815225299E0,4.791195642E0,5.570491996E0
2.377430875E0,3.790890241E-1,-3.683779483E0,3.811961852E0,5.314601859E0
2.387416875E0,4.352398360E-1,-4.677707618E0,2.830427182E0,5.484678688E0
2.397402875E0,5.635739404E-1,-5.654928796E0,1.501535743E0,5.877962646E0
2.407388875E0,-4.513968623E-1,-6.351533909E0,3.763648063E-1,6.378666992E0
2.417374875E0,-2.048695380E0,-6.721460931E0,-7.591714901E-1,7.067639717E0
2.427360875E0,-3.227732622E0,-6.499398884E0,-1.203324237E0,7.355843456E0
2.437346875E0,-4.438348337E0,-6.141866205E0,-1.106423302E0,7.658043416E0
2.447332875E0,-5.243044494E0,-5.885614318E0,-8.722414380E-1,7.930370520E0
2.457318875E0,-5.067424541E0,-5.805011035E0,-6.764102921E-1,7.735274751E0
2.467304875E0,-4.105768651E0,-5.864207661E0,-4.959658018E-1,7.175810044E0
2.477290875E0,-3.695744932E0,-6.112181060E0,-2.821275705E-1,7.148208439E0
2.487276875E0,-4.023309461E0,-6.538987457E0,-4.844411590E-1,7.692857676E0
2.497263875E0,-4.352942736E0,-7.249955086E0,-1.367630997E0,8.566234514E0
2.507249125E0,-4.679768177E0,-7.827509719E0,-2.620096403E0,9.488679769E0
2.517236125E0,-5.121194367E0,-8.082130818E0,-4.094138539E0,1.040718217E1
2.527222125E0,-5.487859227E0,-8.333828309E0,-5.498683008E0,1.139319130E1
2.537207125E0,-6.034030684E0,-8.678582482E0,-6.835055959E0,1.258750611E1
2.547193125E0,-6.903876518E0,-8.956450941E0,-7.644238100E0,1.364975826E1
2.557180125E0,-7.528240451E0,-8.840704722E0,-8.167057532E0,1.419624221E1
2.567166125E0,-8.123485835E0,-8.637330376E0,-8.881477357E0,1.481469332E1
2.577152125E0,-9.087168955E0,-8.977034894E0,-8.999937268E0,1.562570529E1
2.587138125E0,-9.864933422E0,-9.606589985E0,-8.615534295E0,1.624287271E1
2.597124125E0,-9.881654119E0,-1.040551553E1,-7.934909037E0,1.639770176E1
2.607110125E0,-9.851639192E0,-1.095882819E1,-7.177526795E0,1.639108297E1
2.617096125E0,-1.004239291E1,-1.140995023E1,-6.285977266E0,1.644840812E1
2.627082125E0,-1.066630134E1,-1.223796274E1,-4.786622534E0,1.692481822E1
2.637068125E0,-1.167570267E1,-1.271931138E1,-2.602682810E0,1.746072372E1
2.647054125E0,-1.264059266E1,-1.242765811E1,-2.624277163E-1,1.772851199E1
2.657040125E0,-1.386352846E1,-1.194250995E1,2.900517756E0,1.852657466E1
2.667026125E0,-1.501154973E1,-1.053170546E1,6.787250293E0,1.955326601E1
2.677012125E0,-1.602377409E1,-8.279916396E0,9.917277696E0,2.058326380E1
2.686998125E0,-1.728299070E1,-6.513877174E0,1.300726687E1,2.259029337E1
2.696984125E0,-1.899161377E1,-5.676209153E0,1.524024369E1,2.500331521E1
2.706970125E0,-2.037067958E1,-5.046930635E0,1.725928725E1,2.717202775E1
2.716956125E0,-1.938873677E1,-4.491712950E0,1.927699765E1,2.770742206E1
2.726942125E0,-1.505898000E1,-4.310227363E0,2.132600469E1,2.646033663E1
2.736928125E0,-8.173553789E0,-2.078897272E0,2.260182271E1,2.412407895E1
2.746914125E0,-2.327920977E0,7.384664264E-1,2.262816090E1,2.275957413E1
2.756900125E0,4.364062093E-1,1.104165400E0,2.252627200E1,2.255753891E1
2.766886125E0,1.150526365E0,-2.541482051E-1,2.157538610E1,2.160753543E1
2.776872125E0,1.715872158E0,-1.525639428E0,1.853543154E1,1.867709869E1
2.786858125E0,2.171768306E0,-2.995726799E0,1.524618563E1,1.568875817E1
2.796844125E0,2.778627284E0,-4.568276392E0,1.234517729E1,1.345337583E1
2.806830125E0,4.123935073E0,-5.530268497E0,1.020458648E1,1.231764164E1
2.816816125E0,5.833552464E0,-5.564170654E0,8.879092278E0,1.199285659E1
2.826802125E0,7.330654848E0,-4.851643572E0,8.890872663E0,1.250298215E1
2.836788125E0,8.512670077E0,-3.663157815E0,9.543720138E0,1.330288958E1
2.846774125E0,9.386422436E0,-2.494867463E0,1.008316788E1,1.399998444E1
2.856760125E0,9.780461036E0,-1.781117729E0,1.020459584E1,1.424652851E1
2.866746125E0,9.869855608E0,-1.437258764E0,9.608243578E0,1.384911936E1
2.876732125E0,9.815536144E0,-1.435889346E0,8.754522026E0,1.323057761E1
2.886718125E0,9.210309563E0,-1.566960239E0,7.611639873E0,1.205081857E1
2.896704125E0,8.067190597E0,-1.821828091E0,6.136747552E0,1.029846067E1
2.906690125E0,6.859838798E0,-2.161230746E0,4.400986968E0,8.431903282E0
2.916676125E0,5.805941327E0,-2.307734635E0,2.665733922E0,6.792696900E0
2.926662125E0,5.025611102E0,-2.166554198E0,9.186466956E-1,5.549291467E0
2.936648125E0,4.409124538E0,-1.983682528E0,-5.182451552E-1,4.862504869E0
2.946634125E0,3.907952083E0,-1.813405176E0,-1.639535295E0,4.609620787E0
2.956620125E0,3.479139799E0,-1.724819128E0,-2.457268404E0,4.595387119E0
2.966606125E0,3.019706523E0,-1.698026602E0,-2.989980156E0,4.576232420E0
2.976592125E0,2.525283802E0,-1.543465542E0,-3.291625732E0,4.426527320E0
2.986578125E0,1.873800190E0,-1.204107691E0,-3.290218892E0,3.973228264E0
2.996564125E0,1.164962848E0,-8.177464114E-1,-3.048859863E0,3.364727938E0
3.006550125E0,6.571299756E-1,-3.961655250E-1,-2.693381896E0,2.800548690E0
3.016536125E0,3.468710120E-1,-6.252932020E-2,-2.384678146E0,2.410584840E0
3.026522125E0,1.954282728E-1,-1.497979905E-2,-2.201191349E0,2.209900441E0
3.036508125E0,1.257176216E-1,-7.369768482E-2,-2.283284503E0,2.287930154E0
3.046494125E0,-4.016627848E-2,-1.772172475E-1,-2.393426165E0,2.400314165E0
3.056480125E0,-1.842356788E-1,-3.657030664E-1,-2.361120883E0,2.396366696E0
3.066466125E0,-1.900466417E-1,-5.273245655E-1,-2.192846788E0,2.263352813E0
3.076452125E0,-7.268293709E-2,-5.797622127E-1,-1.941860903E0,2.027863605E0
3.086438125E0,-6.030606262E-2,-4.749382641E-1,-1.793134634E0,1.855945848E0
3.096424125E0,-1.361679847E-1,-2.323317684E-1,-1.535617409E0,1.559051185E0
3.106410125E0,-1.404398873E-1,8.023219499E-2,-1.120488487E0,1.132102034E0
3.116396125E0,-5.817350999E-2,3.951883456E-1,-7.268375570E-1,8.293677230E-1
3.126382125E0,3.141299665E-2,5.817023554E-1,-4.041554528E-1,7.090176562E-1
3.136368125E0,3.092592359E-3,5.354153213E-1,-2.073364198E-1,5.741668062E-1
3.146354125E0,-1.113963287E-1,4.778428319E-1,-1.970880049E-1,5.287594876E-1
3.156340125E0,-1.936786397E-1,3.960297600E-1,-1.273652208E-1,4.588822133E-1
3.166326125E0,-1.880180964E-1,3.267679557E-1,-7.068699002E-3,3.770650712E-1
3.176312125E0,-2.463651225E-1,3.588132556E-1,2.492030686E-1,5.015425160E-1
3.186298125E0,-3.948129179E-1,3.074645792E-1,6.989919466E-1,8.596519348E-1
3.196284125E0,-5.142788427E-1,3.371930661E-1,1.092188548E0,1.253418412E0
3.206270125E0,-5.289705567E-1,5.129695780E-1,1.441922795E0,1.619286567E0
3.216256125E0,-5.306381826E-1,7.255977280E-1,1.863089553E0,2.068615872E0
3.226242125E0,-5.831520264E-1,9.385426509E-1,2.292127247E0,2.544558097E0
3.236228125E0,-8.696832812E-1,1.027014897E0,2.799217669E0,3.105918248E0
3.246214125E0,-1.246864651E0,1.073929228E0,3.178155835E0,3.578920222E0
3.256200125E0,-1.487446731E0,1.109778069E0,3.390260074E0,3.864966819E0
3.266186125E0,-1.524046062E0,9.555861881E-1,3.512262813E0,3.946118527E0
3.276172125E0,-1.364751682E0,7.374049374E-1,3.600946364E0,3.920858058E0
3.286158125E0,-1.077796796E0,6.539439739E-1,3.585801491E0,3.800955273E0
3.296144125E0,-5.741119386E-1,6.547557136E-1,3.582959159E0,3.687262656E0
3.306130125E0,-7.705007628E-2,7.029716346E-1,3.628151704E0,3.696429442E0
3.316116125E0,2.719434750E-1,7.750053846E-1,3.959154981E0,4.043450848E0
3.326102125E0,6.109330250E-1,9.315017261E-1,4.396215055E0,4.535156165E0
3.336088125E0,9.390276774E-1,1.056478140E0,4.734711539E0,4.941195442E0
3.346074125E0,1.213181181E0,1.010706063E0,4.968941642E0,5.213800568E0
3.356060125E0,1.393740715E0,7.781208542E-1,5.013467020E0,5.261448166E0
3.366046125E0,1.495969779E0,2.628449882E-1,4.814644146E0,5.048545466E0
3.376032125E0,1.449244386E0,-2.807195975E-1,4.415902045E0,4.656103914E0
3.386018125E0,1.188185065E0,-7.527075393E-1,4.130452087E0,4.363368748E0
3.396004125E0,1.052785477E0,-1.166657955E0,3.867674707E0,4.174728217E0
3.405990125E0,1.189593878E0,-1.212790733E0,3.487802156E0,3.879530750E0
3.415976125E0,1.659378699E0,-9.618495063E-1,3.227685260E0,3.754549810E0
3.425962125E0,2.360596973E0,-6.396261162E-1,3.132306063E0,3.974025781E0
3.435948125E0,3.029695029E0,-2.199628242E-1,3.269339654E0,4.462736536E0
3.445934125E0,3.557871388E0,2.545921549E-1,3.593558407E0,5.063292210E0
3.455920125E0,3.967342252E0,5.789442238E-1,3.862703404E0,5.567356514E0
3.465906125E0,3.946221524E0,6.347645219E-1,4.352703584E0,5.909451651E0
3.475892125E0,3.471454218E0,8.382319853E-2,4.531365259E0,5.708878333E0
3.485878125E0,3.093933710E0,-8.624005741E-1,4.577157143E0,5.591648064E0
3.495864125E0,2.998064224E0,-1.751291959E0,4.528618822E0,5.706470104E0
3.505850125E0,2.565694786E0,-2.815648052E0,3.817314978E0,5.392824615E0
3.515835500E0,1.801399966E0,-3.952896706E0,2.639032611E0,5.082807032E0
3.525821500E0,6.777788329E-1,-4.963231251E0,1.989783513E0,5.390017350E0
3.535807500E0,-1.159087712E0,-5.433661970E0,1.752437428E0,5.825736320E0
3.545793500E0,-3.775689234E0,-5.785948527E0,1.710626328E0,7.117532717E0
3.555779500E0,-6.508249814E0,-6.480793043E0,1.832259523E0,9.365637676E0
3.565765500E0,-8.172944509E0,-6.705185207E0,1.636248575E0,1.069737538E1
3.575751500E0,-8.204490237E0,-6.650511401E0,1.392324958E0,1.065277104E1
3.585737500E0,-7.282413565E0,-6.086864955E0,1.192869415E0,9.565898272E0
3.595723500E0,-6.227374132E0,-5.165579996E0,1.290494966E0,8.193215641E0
3.605709500E0,-5.269178039E0,-4.442555408E0,1.181223443E0,6.992554940E0
3.615695500E0,-4.437174801E0,-4.259001954E0,8.787979209E-1,6.212882072E0
3.625681500E0,-4.141893334E0,-4.127151918E0,1.570877508E-1,5.849217034E0
3.635667500E0,-4.178194018E0,-3.944554483E0,-9.287273685E-1,5.820597035E0
3.645653500E0,-4.112675382E0,-3.827855753E0,-2.334994354E0,6.084305803E0
3.655639500E0,-3.804330651E0,-3.782093105E0,-4.079419928E0,6.739349145E0
3.665625500E0,-3.588491210E0,-4.146866391E0,-5.860223953E0,8.025957563E0
3.675611500E0,-3.788119830E0,-4.758537188E0,-7.350542983E0,9.540650405E0
3.685597500E0,-4.255959063E0,-5.104204112E0,-8.282902569E0,1.061944265E1
3.695583500E0,-4.630701267E0,-5.286499246E0,-8.553480134E0,1.107034285E1
3.705569500E0,-4.917259857E0,-5.657112731E0,-7.968432294E0,1.093975695E1
3.715555500E0,-5.320214877E0,-6.113293201E0,-6.974811430E0,1.069228856E1
3.725541500E0,-6.013069001E0,-6.303543472E0,-6.165028195E0,1.067235830E1
3.735527500E0,-6.907191305E0,-6.343782840E0,-5.610553107E0,1.092845728E1
3.745513500E0,-7.541567425E0,-6.373183810E0,-5.612133025E0,1.135732135E1
3.755499500E0,-8.293838031E0,-6.467031037E0,-5.644470466E0,1.193609176E1
3.765485500E0,-9.141802999E0,-6.710776314E0,-5.390657453E0,1.255652295E1
3.775471500E0,-9.974606137E0,-7.285375180E0,-5.204935851E0,1.340376127E1
3.785457500E0,-1.059315969E1,-7.892519647E0,-4.940590832E0,1.410377029E1
3.795443500E0,-1.100870961E1,-8.521843189E0,-4.411018451E0,1.460378658E1
3.805429500E0,-1.143943891E1,-9.622892023E0,-3.664474608E0,1.539120488E1
3.815415500E0,-1.198612083E1,-1.057802476E1,-1.697745497E0,1.607619483E1
3.825401500E0,-1.244659140E1,-1.072003959E1,7.205746043E-1,1.644250936E1
3.835387500E0,-1.274799198E1,-1.098789703E1,2.844330107E0,1.706854986E1
3.845373500E0,-1.319317793E1,-1.116180258E1,5.528324883E0,1.814409427E1
3.855359500E0,-1.444817284E1,-1.067066103E1,8.232476766E0,1.975819776E1
3.865345500E0,-1.609316768E1,-1.015516114E1,1.089923570E1,2.192967584E1
3.875331500E0,-1.679748235E1,-9.569836727E0,1.326756503E1,2.344707807E1
3.885317500E0,-1.630844930E1,-8.200392509E0,1.651589915E1,2.461680078E1
3.895303500E0,-1.306314988E1,-6.193937999E0,2.015946412E1,2.480755422E1
3.905289500E0,-7.416766793E0,-3.518523135E0,2.251444425E1,2.396432004E1
3.915275500E0,-2.455703689E0,-1.027287232E0,2.335285078E1,2.350407282E1
3.925261500E0,1.401859720E0,1.363863928E0,2.227921545E1,2.236490054E1
3.935247500E0,3.257868002E0,2.147233243E0,2.185295576E1,2.219855829E1
3.945233500E0,2.354919326E0,5.059405670E-1,1.890428443E1,1.905711392E1
3.955219500E0,1.328663397E0,-1.272556147E0,1.501153803E1,1.512385598E1
3.965205500E0,4.269653680E-1,-2.871498610E0,1.216526548E1,1.250685764E1
3.975191500E0,-4.307491013E-1,-4.454494838E0,1.061908859E1,1.152358935E1
3.985177500E0,6.716975825E-1,-4.664697563E0,9.076476737E0,1.022707245E1
3.995163500E0,2.792874025E0,-4.126835584E0,8.835137588E0,1.014349907E1
4.005149500E0,4.685603113E0,-3.899027478E0,9.186794400E0,1.102517497E1
4.015135500E0,6.033783932E0,-3.654079428E0,9.526235209E0,1.185360714E1
4.025121500E0,6.906160440E0,-3.342733321E0,9.338243133E0,1.208601270E1
4.035107500E0,7.166473219E0,-3.216893054E0,8.674367225E0,1.170262304E1
4.045093500E0,7.354894481E0,-3.170574920E0,7.465626127E0,1.094909090E1
4.055079500E0,7.728235692E0,-3.132587021E0,5.974284419E0,1.025820660E1
4.065065500E0,8.097210202E0,-3.165345170E0,4.620958051E0,9.845683136E0
4.075051500E0,8.528353479E0,-3.164314013E0,3.304187306E0,9.677982744E0
4.085037500E0,8.757896454E0,-3.012558887E0,1.998519838E0,9.474721257E0
4.095023500E0,8.488853783E0,-2.831202523E0,7.797127587E-1,8.982443891E0
4.105009500E0,7.737560831E0,-2.648543985E0,-3.526151705E-1,8.185900703E0
4.114995500E0,6.658070682E0,-2.385948746E0,-1.273970881E0,7.186491385E0
4.124981500E0,5.530713471E0,-2.095117010E0,-1.851564690E0,6.197305752E0
4.134967500E0,4.495804247E0,-1.785699168E0,-2.098435889E0,5.272988766E0
4.144953500E0,3.707462752E0,-1.415541328E0,-2.040545531E0,4.462383150E0
4.154939500E0,3.008414088E0,-1.037962493E0,-1.826202977E0,3.669187754E0
4.164925500E0,2.417562009E0,-6.785532235E-1,-1.669841414E0,3.015528294E0
4.174911500E0,2.034219721E0,-4.063085073E-1,-1.625768026E0,2.635575487E0
4.184897500E0,1.580235173E0,-2.989414401E-1,-1.756434000E0,2.381505739E0
4.194883500E0,1.081587400E0,-2.140486945E-1,-1.945497286E0,2.236203890E0
4.204869500E0,6.608257082E-1,-1.649928575E-1,-2.201018856E0,2.303995934E0
4.214855500E0,1.613521618E-1,-2.121730904E-1,-2.451000774E0,2.465452643E0
4.224841500E0,-2.840032111E-1,-2.452832231E-1,-2.627296080E0,2.653960508E0
4.234827500E0,-5.868296327E-1,-2.752917369E-1,-2.628832144E0,2.707565880E0
4.244813500E0,-7.702478707E-1,-3.869482666E-1,-2.408595012E0,2.558190899E0
4.254799500E0,-7.528170285E-1,-3.768142014E-1,-1.960176136E0,2.133310317E0
4.264785500E0,-6.463883480E-1,-1.514905950E-1,-1.403876717E0,1.552944665E0
4.274771500E0,-5.233402728E-1,1.940306055E-1,-7.560198408E-1,9.397334285E-1
4.284757500E0,-3.253067730E-1,4.937528134E-1,-6.682314992E-2,5.950476205E-1
4.294743500E0,-2.022990435E-1,7.304774487E-1,5.674465513E-1,9.468462360E-1
4.304729500E0,-2.657356323E-1,7.944601674E-1,1.002341986E0,1.306319961E0
4.314715500E0,-5.218229203E-1,7.518240251E-1,1.242766045E0,1.543374863E0
4.324701500E0,-8.693820034E-1,6.794787647E-1,1.332605006E0,1.730130793E0
4.334687500E0,-1.124739997E0,5.048579550E-1,1.404333969E0,1.868709585E0
4.344673500E0,-1.236418747E0,3.495548840E-1,1.451076027E0,1.938179963E0
4.354659500E0,-1.212849790E0,2.419098731E-1,1.607512434E0,2.028206406E0
4.364645500E0,-1.030936186E0,2.472162578E-1,1.812876003E0,2.100110640E0
4.374631500E0,-7.489928032E-1,3.168719086E-1,2.126842833E0,2.277028428E0
4.384617500E0,-5.000608993E-1,4.287227121E-1,2.525608907E0,2.610088967E0
4.394603500E0,-3.275806090E-1,6.363594961E-1,2.798214871E0,2.888298622E0
4.404589500E0,-2.836301588E-1,7.515102489E-1,2.947122989E0,3.054627249E0
4.414575500E0,-3.842215638E-1,7.108837214E-1,3.005945978E0,3.112666558E0
4.424561500E0,-5.670020168E-1,6.014018442E-1,3.056751266E0,3.166528662E0
4.434547500E0,-8.380630007E-1,4.423356514E-1,3.239646324E0,3.375399047E0
4.444533500E0,-1.055651124E0,1.823559451E-1,3.585479894E0,3.742100888E0
4.454519500E0,-1.040681668E0,1.524354137E-1,4.205994020E0,4.335509265E0
4.464505500E0,-8.130914430E-1,1.700734849E-1,5.149572659E0,5.216142373E0
4.474491500E0,-4.217547680E-1,8.026520435E-2,6.102878140E0,6.117960541E0
4.484477500E0,1.311249439E-1,1.487936216E-1,6.578538609E0,6.581527446E0
4.494463500E0,5.864192312E-1,3.226429643E-1,6.575550681E0,6.609527423E0
4.504449500E0,8.044679694E-1,3.277004769E-1,6.250005196E0,6.310080924E0
4.514435875E0,7.631788062E-1,2.406389442E-1,5.616727182E0,5.673444565E0
4.524421875E0,7.277410980E-1,1.093084341E-1,4.832788641E0,4.888496853E0
4.534407875E0,7.454754838E-1,3.699971884E-3,4.000340429E0,4.069210112E0
4.544393875E0,8.172767338E-1,6.301968232E-2,3.337447438E0,3.436636166E0
4.554379875E0,1.029836910E0,2.224861170E-1,2.929490125E0,3.113193943E0
4.564365875E0,1.325732481E0,2.319727859E-1,2.643908604E0,2.966754235E0
4.574351875E0,1.618597001E0,5.292768046E-2,2.523351882E0,2.998326585E0
4.584337875E0,1.933476288E0,-1.245769760E-1,2.489851429E0,3.154870856E0
4.594323875E0,2.154042326E0,-3.372410864E-1,2.652764797E0,3.433772118E0
4.604309875E0,2.258880271E0,-7.442315617E-1,2.680187069E0,3.583269934E0
4.614295875E0,2.152921122E0,-1.545432253E0,2.459140683E0,3.615356567E0
4.624281875E0,1.876118318E0,-2.551175857E0,1.918421170E0,3.702520491E0
4.634267875E0,1.464181391E0,-3.526715376E0,8.919529867E-1,3.921368208E0
4.644253875E0,1.179929527E0,-4.293539995E0,-1.641781211E-1,4.455746159E0
4.654239875E0,1.000172085E0,-4.833704900E0,-1.200188960E0,5.079911495E0
4.664225875E0,8.913437068E-1,-5.488549199E0,-2.317459724E0,6.024058888E0
4.674211875E0,1.070898836E0,-6.379906939E0,-3.474720181E0,7.343277007E0
4.684197875E0,1.578381021E0,-7.157802383E0,-4.280488132E0,8.488109345E0
4.694183875E0,2.259886284E0,-7.283128679E0,-4.813050487E0,9.017566433E0
4.704169875E0,2.294643888E0,-7.064737514E0,-5.202237360E0,9.068582043E0
4.714155875E0,1.566628118E0,-7.233889861E0,-5.524320125E0,9.235886477E0
4.724141875E0,7.397283286E-1,-7.561070228E0,-5.666617380E0,9.477738841E0
4.734127875E0,-2.534592569E-2,-7.419489841E0,-5.797410239E0,9.415914050E0
4.744113875E0,-5.915622228E-1,-7.050419437E0,-5.708502156E0,9.090949178E0
4.754099875E0,-8.075548607E-1,-6.966331798E0,-5.520614744E0,8.925195277E0
4.764085875E0,-8.006194782E-1,-6.900932445E0,-5.216009892E0,8.687382768E0
4.774071875E0,-8.341824961E-1,-6.911922287E0,-5.296933603E0,8.748030391E0
4.784057875E0,-1.150685263E0,-6.961756352E0,-5.350957198E0,8.855668863E0
4.794043875E0,-1.594253873E0,-6.918770546E0,-5.348534111E0,8.889198412E0
4.804029875E0,-2.101655951E0,-6.991792914E0,-5.480923845E0,9.129219686E0
4.814015875E0,-3.058145242E0,-7.098708667E0,-5.296350635E0,9.369911799E0
4.824001875E0,-4.468253337E0,-7.155074657E0,-4.636680045E0,9.625964007E0
4.833987875E0,-6.114593037E0,-7.250645058E0,-3.883813607E0,1.024910288E1
4.843973875E0,-7.897933000E0,-7.289033782E0,-3.203942056E0,1.121483856E1
4.853959875E0,-9.503400078E0,-7.051378965E0,-2.431937097E0,1.208101305E1
4.863945875E0,-1.099661056E1,-6.647426410E0,-1.044138469E0,1.289201097E1
4.873931875E0,-1.222877326E1,-6.460723060E0,1.077396262E-1,1.383095968E1
4.883917875E0,-1.318402937E1,-6.533788113E0,6.655645841E-1,1.472929034E1
4.893903875E0,-1.421782763E1,-6.804548696E0,1.342831201E0,1.581934578E1
4.903889875E0,-1.512004598E1,-6.580104493E0,2.567161560E0,1.668843564E1
4.913875875E0,-1.545365420E1,-5.919820529E0,3.792039219E0,1.697761068E1
4.923861875E0,-1.588080733E1,-4.778868249E0,5.841692373E0,1.758303139E1
4.933847875E0,-1.586877259E1,-3.296540902E0,7.962369901E0,1.805780884E1
4.943833875E0,-1.526342439E1,-2.846479836E0,9.501879802E0,1.820330441E1
4.953819875E0,-1.416900688E1,-2.647600536E0,1.126819267E1,1.829597526E1
4.963805875E0,-1.230583605E1,-1.479682652E0,1.248835923E1,1.759494751E1
4.973791875E0,-9.726474863E0,-1.357606530E-2,1.314935188E1,1.635573148E1
4.983777875E0,-7.295256389E0,1.202927869E0,1.354438275E1,1.543107596E1
4.993763875E0,-5.253679410E0,2.081514340E0,1.318033978E1,1.434068360E1
5.003749875E0,-3.621169252E0,2.447463355E0,1.304284367E1,1.375567936E1
5.013735875E0,-3.715343630E0,5.692321813E-1,1.291227301E1,1.344821913E1
5.023721875E0,-2.603428330E0,-2.334122242E-1,1.100542348E1,1.131157223E1
5.033707875E0,-2.397794620E0,-8.154854393E-1,9.625589343E0,9.953210826E0
5.043693875E0,-2.230965956E0,-2.322881262E0,8.613787147E0,9.196212017E0
5.053679875E0,-1.664034106E0,-3.468283566E0,7.508396171E0,8.436469253E0
5.063665875E0,-7.506389406E-1,-3.859847624E0,7.018231099E0,8.044715673E0
5.073651875E0,7.405888195E-1,-3.959435939E0,7.327788543E0,8.361942938E0
5.083637875E0,2.304965540E0,-3.552573811E0,8.370199159E0,9.380505359E0
5.093623875E0,4.076530234E0,-2.690887766E0,9.877461666E0,1.101922069E1
5.103609875E0,6.211962626E0,-1.884118479E0,1.123202414E1,1.297292366E1
5.113595875E0,8.259278648E0,-9.636558574E-1,1.228770267E1,1.483684445E1
5.123581875E0,9.777654372E0,-2.764720704E-1,1.253444231E1,1.589940897E1
5.133567875E0,1.061586326E1,-3.122003853E-1,1.165027079E1,1.576460692E1
5.143553875E0,1.055558782E1,-9.329590715E-1,9.906392519E0,1.450611801E1
5.153539875E0,9.403321474E0,-1.810602021E0,7.759084432E0,1.232493917E1
5.163525875E0,8.153275645E0,-2.630321429E0,5.637099466E0,1.025531009E1
5.173511875E0,7.092181420E0,-3.112084052E0,3.643774295E0,8.559275411E0
5.183497875E0,6.318124089E0,-3.381460599E0,2.004566444E0,7.441186358E0
5.193483875E0,5.785194821E0,-3.579639695E0,8.123425609E-1,6.851437798E0
5.203469875E0,5.421811418E0,-3.486184816E0,-2.892032862E-3,6.445892645E0
5.213455875E0,4.976661136E0,-2.992121699E0,-3.974697465E-1,5.820475111E0
5.223441875E0,4.477463871E0,-2.417979062E0,-4.732110697E-1,5.110600177E0
5.233427875E0,4.072623124E0,-1.778121615E0,-3.774886411E-1,4.459873683E0
5.243413875E0,3.633150489E0,-1.077733061E0,-3.538161886E-1,3.806110471E0
5.253399875E0,3.186631958E0,-4.556601403E-1,-5.146871245E-1,3.259931324E0
5.263385875E0,2.532422082E0,-1.503968916E-1,-8.232827014E-1,2.667128650E0
5.273371875E0,1.460486974E0,-7.925074898E-2,-1.154594711E0,1.863435491E0
5.283357875E0,3.455836013E-1,-1.592343733E-1,-1.442077746E0,1.491432814E0
5.293343875E0,-6.013853990E-1,-4.136699691E-1,-1.690447587E0,1.841303963E0
5.303329875E0,-1.238602682E0,-6.412666988E-1,-1.955248103E0,2.401739937E0
5.313315875E0,-1.417572943E0,-6.660088994E-1,-2.016777769E0,2.553521778E0
5.323301875E0,-1.362693462E0,-5.856148005E-1,-1.860828434E0,2.379613546E0
5.333287875E0,-1.086963768E0,-3.835737654E-1,-1.591293427E0,1.964900465E0
5.343273875E0,-7.057526435E-1,-1.605350134E-1,-1.099761862E0,1.316561596E0
5.353259875E0,-3.740218270E-1,1.922702464E-1,-5.006929833E-1,6.538758584E-1
5.363245875E0,-1.228242731E-1,5.189951337E-1,3.367762327E-2,5.343930512E-1
5.373231875E0,-6.894422740E-2,6.276733842E-1,3.694107127E-1,7.315678085E-1
5.383217875E0,-2.187256265E-1,6.261881183E-1,5.945291001E-1,8.907397544E-1
5.393203875E0,-4.408150099E-1,5.244702106E-1,8.020730960E-1,1.054849812E0
5.403189875E0,-6.047222587E-1,4.419257616E-1,1.032503679E0,1.275559186E0
5.413175875E0,-5.622302502E-1,4.388785948E-1,1.177638588E0,1.376789715E0
5.423161875E0,-4.833413708E-1,4.169268316E-1,1.428500512E0,1.564627935E0
5.433147875E0,-3.944544835E-1,4.782633929E-1,1.726973974E0,1.834875832E0
5.443133875E0,-2.169600597E-1,5.629957239E-1,2.068830852E0,2.155016693E0
5.453119875E0,-1.496477902E-2,5.870159030E-1,2.410891213E0,2.481372213E0
5.463105875E0,1.486877505E-1,7.550125118E-1,2.719767457E0,2.826532674E0
5.473091875E0,2.228185312E-1,1.022905694E0,3.054457988E0,3.228884909E0
5.483077875E0,2.325811887E-1,1.197451001E0,3.335019089E0,3.551103383E0
5.493063875E0,2.635986943E-1,1.185625958E0,3.529027365E0,3.732188008E0
5.503049875E0,2.632683997E-1,1.072623253E0,3.657734522E0,3.820844504E0
5.513036375E0,2.908984305E-1,1.018198320E0,3.723646676E0,3.871291036E0
5.523022375E0,4.097712649E-1,1.040854307E0,3.824616981E0,3.984844442E0
5.533008375E0,6.781396792E-1,1.160910289E0,3.946465353E0,4.169193556E0
5.542994375E0,1.007737066E0,1.228771319E0,4.057451354E0,4.357559459E0
5.552980375E0,1.291163888E0,9.896856880E-1,4.111360343E0,4.421523020E0
5.562966375E0,1.676748876E0,5.879375339E-1,3.991443306E0,4.369070496E0
5.572952375E0,2.041133761E0,9.150570899E-2,3.792960155E0,4.308264971E0
5.582938375E0,2.356324120E0,-3.805041964E-1,3.320623829E0,4.089448546E0
5.592924375E0,2.748889514E0,-8.043245664E-1,2.755461200E0,3.974405364E0
5.602910375E0,3.157805478E0,-1.056232265E0,2.144955168E0,3.960832577E0
5.612896375E0,3.493065820E0,-9.844471675E-1,1.847690325E0,4.072419991E0
5.622882375E0,3.789144554E0,-7.169253570E-1,1.896615148E0,4.297528062E0
5.632868375E0,3.944225285E0,-5.030435640E-1,2.154974957E0,4.522596930E0
5.642854375E0,4.058710844E0,-4.350676355E-1,2.823886487E0,4.963542329E0
5.652840375E0,3.877937448E0,-6.257473844E-1,3.383395443E0,5.184334418E0
5.662826375E0,2.832378398E0,-1.230927188E0,3.552390500E0,4.707125173E0
5.672812375E0,1.021492787E0,-2.152447790E0,3.177358274E0,3.971408391E0
5.682798375E0,-1.004693152E0,-3.069902238E0,2.240357169E0,3.931018739E0
5.692784375E0,-2.702691248E0,-3.796776925E0,1.213086748E0,4.815769353E0
5.702770375E0,-3.865756820E0,-4.207199716E0,1.878277695E-1,5.716632270E0
5.712756375E0,-4.095102745E0,-4.689286859E0,-1.125247828E0,6.326567822E0
5.722742375E0,-3.632302642E0,-4.850501027E0,-2.189189647E0,6.443099720E0
5.732728375E0,-2.717608665E0,-4.453200557E0,-3.207459156E0,6.124066157E0
5.742714375E0,-1.439228398E0,-4.203924690E0,-3.997754790E0,5.977156895E0
5.752700375E0,-1.804298723E-1,-4.293142092E0,-3.943863635E0,5.832468116E0
5.762686375E0,8.861993265E-1,-4.534309039E0,-3.784409187E0,5.972190604E0
5.772672375E0,1.318835397E0,-5.028232993E0,-3.745704128E0,6.407242250E0
5.782658375E0,1.228503517E0,-5.718263497E0,-3.693390843E0,6.917289515E0
5.792644375E0,8.807807118E-1,-6.126989134E0,-3.779264807E0,7.252490123E0
5.802630375E0,5.090533322E-1,-6.340096171E0,-4.009387826E0,7.518719671E0
5.812616375E0,4.125082004E-1,-6.886675179E0,-4.441234522E0,8.204938886E0
5.822602375E0,-4.187892795E-2,-7.351117764E0,-4.877737357E0,8.822301738E0
5.832588375E0,-7.727212429E-1,-7.639270306E0,-5.066812338E0,9.199355205E0
5.842574375E0,-1.169965287E0,-7.803837267E0,-5.380443537E0,9.550804548E0
5.852560375E0,-2.024794301E0,-7.763685606E0,-5.691807770E0,9.837239544E0
5.862546375E0,-3.551685326E0,-8.207627268E0,-5.925233297E0,1.072790770E1
5.872532375E0,-5.373875359E0,-9.396787210E0,-6.325578704E0,1.253758718E1
5.882518375E0,-7.652667446E0,-1.036026860E1,-6.548115546E0,1.444909346E1
5.892504375E0,-1.053298015E1,-1.058865032E1,-6.207962546E0,1.617411467E1
5.902490375E0,-1.336511179E1,-1.042338696E1,-5.232594350E0,1.773846816E1
5.912476375E0,-1.549773635E1,-9.774674631E0,-3.272480779E0,1.861271680E1
5.922462375E0,-1.662565490E1,-9.040346206E0,-1.021862039E0,1.895216247E1
5.932448375E0,-1.724227536E1,-7.750850968E0,1.867924030E0,1.899633887E1
5.942434375E0,-1.716993478E1,-6.046291126E0,4.806256900E0,1.882722502E1
5.952420375E0,-1.662138643E1,-5.172606010E0,7.512463494E0,1.895952129E1
5.962406375E0,-1.607094475E1,-4.731752555E0,9.627929984E0,1.932257186E1
5.972392375E0,-1.605467663E1,-4.152859202E0,9.911287808E0,1.931922636E1
5.982378375E0,-1.577133576E1,-3.845269931E0,9.339431287E0,1.872821693E1
5.992364375E0,-1.552041653E1,-3.507911608E0,8.509081641E0,1.804420249E1
6.002350375E0,-1.514031243E1,-2.312671001E0,9.475763798E0,1.801020842E1
6.012336375E0,-1.365385783E1,-1.074690316E0,1.074679645E1,1.740909035E1
6.022322375E0,-1.167200489E1,-3.613465253E-1,1.294610500E1,1.743467534E1
6.032308375E0,-8.969584372E0,1.150246795E0,1.602413077E1,1.839970865E1
6.042294375E0,-6.207935064E0,2.698162580E0,1.747189786E1,1.873728246E1
6.052280375E0,-4.379618903E0,2.059226508E0,1.813556970E1,1.877019883E1
6.062266375E0,-2.288308576E0,3.569804093E-1,1.804899349E1,1.819697659E1
6.072252375E0,3.367785716E-1,-9.456087917E-1,1.636483867E1,1.639559516E1
6.082238375E0,2.076748274E0,-2.681537776E0,1.432656713E1,1.472256954E1
6.092224375E0,3.652899752E0,-4.383359367E0,1.221235428E1,1.347958133E1
6.102210375E0,5.079106693E0,-5.523623137E0,1.013005670E1,1.260657710E1
6.112196375E0,6.234630527E0,-5.837634990E0,8.412094460E0,1.198799121E1
6.122182375E0,7.126378276E0,-5.839055278E0,7.164585738E0,1.167095209E1
6.132168375E0,7.884061650E0,-5.413363361E0,6.648493527E0,1.164754898E1
6.142154375E0,8.684964134E0,-4.552668419E0,6.903117549E0,1.199201499E1
6.152140375E0,9.159977900E0,-3.721430289E0,7.596483305E0,1.246839192E1
6.162126375E0,9.487632476E0,-2.934573110E0,8.065175062E0,1.279351156E1
6.172112375E0,9.204231382E0,-2.142091202E0,8.027009701E0,1.239916589E1
6.182098375E0,8.349274898E0,-1.709549709E0,7.426526381E0,1.130425785E1
6.192084375E0,7.163201702E0,-1.584722326E0,6.269138455E0,9.650124374E0
6.202070375E0,5.997218953E0,-1.609608515E0,4.711471195E0,7.794577318E0
6.212056375E0,4.914403492E0,-1.719916238E0,3.206565117E0,6.114861683E0
6.222042375E0,4.015796082E0,-1.753218470E0,1.769690223E0,4.725695362E0
6.232028375E0,3.393476627E0,-1.767109116E0,4.302685332E-1,3.850128473E0
6.242014375E0,2.883750281E0,-1.872440858E0,-7.432354885E-1,3.517733566E0
6.252000375E0,2.477940066E0,-1.973460718E0,-1.712771671E0,3.601155505E0
6.261986375E0,2.281641581E0,-1.980403410E0,-2.469114279E0,3.901847164E0
6.271972375E0,2.223085517E0,-1.896864240E0,-2.852305709E0,4.083607598E0
6.281958375E0,2.192244378E0,-1.629535972E0,-2.850712928E0,3.948149832E0
6.291944375E0,2.157954698E0,-1.280588467E0,-2.610160815E0,3.620720201E0
6.301930375E0,2.061211930E0,-9.745620109E-1,-2.244330352E0,3.199278741E0
6.311916375E0,1.734485453E0,-7.776345851E-1,-1.940914239E0,2.716671385E0
6.321902375E0,1.206264655E0,-7.517215526E-1,-1.907782745E0,2.379032306E0
6.331888375E0,8.309226733E-1,-6.987247288E-1,-2.136434020E0,2.396455520E0
6.341874375E0,4.652723050E-1,-7.330556323E-1,-2.224316502E0,2.387767321E0
6.351860375E0,2.306597936E-1,-7.367903951E-1,-2.088689166E0,2.226810827E0
6.361846375E0,3.039138575E-1,-7.084204356E-1,-1.839058081E0,1.994080683E0
6.371832375E0,3.370624539E-1,-7.823665175E-1,-1.435903671E0,1.669589117E0
6.381818375E0,7.554938838E-2,-7.897169061E-1,-1.077059462E0,1.337691140E0
6.391804375E0,-1.127927899E-1,-5.094171752E-1,-7.470379329E-1,9.112045572E-1
6.401790375E0,-1.555300891E-1,-1.725245281E-1,-3.067437637E-1,3.847675376E-1
6.411776375E0,-6.030613571E-2,1.234453022E-1,1.944836551E-1,2.381164941E-1
6.421762375E0,1.914990900E-1,3.112867579E-1,6.133840317E-1,7.140107264E-1
6.431748375E0,3.236827089E-1,3.382723525E-1,8.509517258E-1,9.712453450E-1
6.441734375E0,3.332480228E-1,2.648893027E-1,7.717242926E-1,8.813506517E-1
6.451720375E0,2.726186822E-1,1.419684409E-1,5.843800879E-1,6.602848409E-1
6.461706375E0,1.636267287E-1,3.488710384E-2,5.005427098E-1,5.277630346E-1
6.471692375E0,4.605442464E-2,2.999003561E-2,6.002774978E-1,6.027880943E-1
6.481678375E0,-1.330468141E-1,1.609421075E-1,8.182365543E-1,8.444612930E-1
6.491664375E0,-2.784828548E-1,3.642259135E-1,1.173829712E0,1.260194195E0
6.501650375E0,-4.630076784E-1,5.786497434E-1,1.632326263E0,1.792679744E0
6.511635625E0,-6.657328378E-1,7.443884133E-1,2.144614275E0,2.365731327E0
6.521621625E0,-8.214307420E-1,8.120082463E-1,2.599622962E0,2.844669647E0
6.531607625E0,-9.328646390E-1,8.680440874E-1,2.921122760E0,3.186957036E0
6.541593625E0,-9.791437429E-1,9.075637369E-1,3.067752802E0,3.345669090E0
6.551579625E0,-9.956972104E-1,8.693115444E-1,3.127110227E0,3.394986578E0
6.561565625E0,-9.843895724E-1,7.716417738E-1,3.210699098E0,3.445728160E0
6.571551625E0,-8.459776457E-1,7.607418329E-1,3.229118997E0,3.423684537E0
6.581537625E0,-6.407509013E-1,7.997156449E-1,3.293940645E0,3.449659665E0
6.591523625E0,-4.301783399E-1,7.565670671E-1,3.376557124E0,3.486916280E0
6.601509625E0,-2.495128249E-1,6.860842911E-1,3.472230436E0,3.548147757E0
6.611495625E0,2.895548500E-2,4.602013803E-1,3.562566994E0,3.592284415E0
6.621481625E0,4.414972338E-1,2.058722587E-1,3.599854689E0,3.632665271E0
6.631467625E0,1.000480744E0,-3.838898074E-2,3.567106188E0,3.704953710E0
6.641453625E0,1.676481805E0,-2.867399639E-1,3.755859572E0,4.123019788E0
6.651439625E0,2.506185626E0,-5.424884422E-1,4.186350299E0,4.909255435E0
6.661425625E0,3.482718002E0,-5.591399968E-1,4.615479795E0,5.809011616E0
6.671411625E0,4.492538285E0,-3.104605463E-1,4.849815733E0,6.618156740E0
6.681397625E0,5.226967574E0,-2.455713630E-1,4.698523121E0,7.032610812E0
6.691383625E0,5.128847787E0,-2.158579326E-1,4.485278090E0,6.816846325E0
6.701369625E0,4.278826938E0,-2.011511620E-1,4.046521738E0,5.892636077E0
6.711355625E0,3.180971854E0,-2.414291954E-1,3.666376707E0,4.859957628E0
6.721341625E0,2.246971832E0,-1.281752063E-1,3.514315771E0,4.173215383E0
6.731327625E0,1.638374331E0,2.712608126E-1,3.559503638E0,3.927838977E0
6.741313625E0,1.322523529E0,8.005048728E-1,3.663050811E0,3.975904649E0
6.751299625E0,1.180018112E0,1.035304495E0,3.977074943E0,4.275678103E0
6.761285625E0,9.337453759E-1,9.578908682E-1,3.943041809E0,4.163774015E0
6.771271625E0,8.560358799E-1,3.002179787E-1,3.567491519E0,3.681022141E0
6.781257625E0,6.527726305E-1,-1.089809023E0,2.774664041E0,3.051648137E0
6.791243625E0,-7.395441413E-2,-2.938226450E0,1.440758615E0,3.273290288E0
6.801229625E0,-1.240387983E0,-4.978758532E0,-3.275727153E-2,5.131049786E0
6.811215625E0,-2.135095593E0,-6.517241662E0,-1.638446544E0,7.051069362E0
6.821201625E0,-2.418954524E0,-6.723226790E0,-3.015317311E0,7.755337385E0
6.831187625E0,-2.902414008E0,-6.049025284E0,-3.474562891E0,7.555613889E0
6.841173625E0,-3.448939222E0,-5.637924508E0,-3.552683446E0,7.503528116E0
6.851159625E0,-3.188496051E0,-4.963269258E0,-3.418884826E0,6.818307873E0
6.861145625E0,-2.032732481E0,-4.096851062E0,-2.861752471E0,5.394980739E0
6.871131625E0,-9.194232059E-1,-3.429397827E0,-2.140445795E0,4.145795061E0
6.881117625E0,-1.309554112E-1,-3.197435274E0,-1.317339095E0,3.460653687E0
6.891103625E0,2.319602144E-1,-3.686202569E0,-1.233577584E0,3.894047839E0
6.901089625E0,-2.708225638E-1,-4.535273830E0,-1.512518569E0,4.788503523E0
6.911075625E0,-1.348736889E0,-5.090434504E0,-2.256308373E0,5.729096099E0
6.921061625E0,-2.415394739E0,-5.629220343E0,-3.685286018E0,7.148677252E0
6.931047625E0,-3.111627969E0,-6.153387558E0,-5.099472545E0,8.576189556E0
6.941033625E0,-3.574123431E0,-6.465428315E0,-6.264672936E0,9.686188548E0
6.951019625E0,-4.138276246E0,-6.999041122E0,-7.692626148E0,1.119323027E1
6.961005625E0,-5.219670249E0,-7.689261661E0,-8.866559941E0,1.284467156E1
6.970991625E0,-6.812564059E0,-8.301832929E0,-9.836229440E0,1.456306522E1
6.980977625E0,-8.631847442E0,-8.933240418E0,-1.019365336E1,1.606929194E1
6.990963625E0,-9.927170016E0,-9.525840522E0,-9.661550304E0,1.681177850E1
7.000949625E0,-1.098809467E1,-1.009237257E1,-8.286889785E0,1.706653892E1
7.010935625E0,-1.213980437E1,-1.054833845E1,-6.383130509E0,1.730279310E1
7.020921625E0,-1.320624178E1,-1.031902936E1,-3.955279446E0,1.722008781E1
7.030907625E0,-1.411595393E1,-9.542582855E0,-1.656860595E0,1.711917725E1
7.040893625E0,-1.468984294E1,-9.058888897E0,-3.144033238E-1,1.726133839E1
7.050879625E0,-1.491151205E1,-8.729024073E0,1.293984731E0,1.732695731E1
7.060865625E0,-1.477825635E1,-8.306073915E0,2.584343603E0,1.714836891E1
7.070851625E0,-1.467791111E1,-8.300238394E0,3.211613018E0,1.716535727E1
7.080837625E0,-1.491052621E1,-8.293149814E0,4.218763754E0,1.757549696E1
7.090823625E0,-1.528886679E1,-7.438420787E0,6.325688632E0,1.814094508E1
7.100809625E0,-1.576063886E1,-5.610723846E0,9.194650719E0,1.908977636E1
7.110795625E0,-1.536366204E1,-3.610830205E0,1.166639975E1,1.962613281E1
7.120781625E0,-1.412653622E1,-2.620057812E0,1.386199532E1,1.996443444E1
7.130767625E0,-1.202912827E1,-1.718677944E0,1.625959581E1,2.029847868E1
7.140753625E0,-9.455435368E0,-5.747070390E-1,1.727314515E1,1.970017994E1
7.150739625E0,-7.674090475E0,2.655129996E-1,1.724779864E1,1.887984957E1
7.160725625E0,-6.071526539E0,2.882890740E-1,1.661754364E1,1.769432965E1
7.170711625E0,-4.201027980E0,-3.730291159E-1,1.569477583E1,1.625157762E1
7.180697625E0,-2.589923894E0,-1.061443303E0,1.524189845E1,1.549676857E1
7.190683625E0,-1.514427392E0,-2.103008266E0,1.459877957E1,1.482701922E1
7.200669625E0,-5.836507939E-2,-3.398341219E0,1.361309689E1,1.403098487E1
7.210655625E0,1.620969362E0,-4.460639969E0,1.240863946E1,1.328529954E1
7.220641625E0,3.135912625E0,-5.555216812E0,1.147290252E1,1.312714265E1
7.230627625E0,4.666299700E0,-6.222013990E0,1.066307368E1,1.319806620E1
7.240613625E0,5.993500124E0,-6.546263148E0,1.001084952E1,1.337881583E1
7.250599625E0,7.131532012E0,-6.493130084E0,9.483218413E0,1.352593504E1
7.260585625E0,8.304915581E0,-6.051952400E0,9.039106597E0,1.368587588E1
7.270571625E0,9.130213233E0,-5.461185399E0,8.461887594E0,1.359370742E1
7.280557625E0,9.708098234E0,-5.016805195E0,7.867989408E0,1.346553983E1
7.290543625E0,9.885751848E0,-4.464571930E0,7.286570935E0,1.306731067E1
7.300529625E0,9.462848468E0,-3.852156489E0,6.412210466E0,1.206238176E1
7.310515625E0,8.595370756E0,-3.402593021E0,5.336088898E0,1.067388788E1
7.320501625E0,7.515903411E0,-3.032605773E0,4.222106023E0,9.138472582E0
7.330487625E0,6.589235505E0,-2.665319646E0,3.210882116E0,7.799469041E0
7.340473625E0,5.727876905E0,-2.362050591E0,2.297691457E0,6.608119465E0
7.350459625E0,4.972402024E0,-2.196203528E0,1.487220005E0,5.635593595E0
7.360445625E0,4.368806816E0,-1.805809789E0,6.378271472E-1,4.770141032E0
7.370431625E0,3.901173113E0,-1.483457030E0,-7.310539842E-2,4.174343160E0
7.380417625E0,3.362324417E0,-1.355592018E0,-7.014489466E-1,3.692544628E0
7.390403625E0,2.830806082E0,-1.204928713E0,-1.301169789E0,3.340413013E0
7.400389625E0,2.438743987E0,-1.046361434E0,-1.776560701E0,3.193510984E0
7.410375625E0,2.167426164E0,-9.610401785E-1,-2.094577897E0,3.163635719E0
7.420361625E0,1.732817973E0,-9.007045875E-1,-2.299589463E0,3.016958499E0
7.430347625E0,1.109358312E0,-8.402033740E-1,-2.454028462E0,2.821147509E0
7.440333625E0,6.733744177E-1,-6.444538698E-1,-2.577509378E0,2.740859079E0
7.450319625E0,4.768787357E-1,-4.589578237E-1,-2.644282826E0,2.725855330E0
7.460305625E0,3.400183676E-1,-3.977422998E-1,-2.555002860E0,2.608035859E0
7.470291625E0,1.831729473E-1,-3.807668826E-1,-2.317276706E0,2.355484468E0
7.480277625E0,-1.974502400E-2,-4.200832317E-1,-2.118039265E0,2.159386513E0
7.490263625E0,2.956235290E-2,-4.216145079E-1,-2.094070943E0,2.136297227E0
7.500249625E0,2.639936006E-1,-2.901785652E-1,-2.031727930E0,2.069254600E0
7.510235625E0,5.125588842E-1,-2.137259282E-1,-1.773048863E0,1.857982146E0
7.520222000E0,8.231007068E-1,-8.963284582E-2,-1.406362953E0,1.631988228E0
7.530208000E0,9.223529533E-1,1.027175257E-1,-9.275672078E-1,1.312123007E0
7.540194000E0,6.442804268E-1,3.207093997E-1,-3.195883423E-1,7.874569804E-1
7.550180000E0,5.222063515E-1,5.913520154E-1,1.111672640E-1,7.967150308E-1
7.560166000E0,4.331022401E-1,8.363510091E-1,4.828776866E-1,1.058409855E0
7.570152000E0,1.618556070E-1,1.031669208E0,7.904558480E-1,1.309717160E0
7.580138000E0,-1.888086399E-1,1.212163838E0,1.064478593E0,1.624224291E0
7.590124000E0,-5.163318001E-1,1.222093945E0,1.228806987E0,1.808335907E0
7.600110000E0,-7.819219829E-1,9.953365103E-1,1.030593393E0,1.632243701E0
7.610096000E0,-8.367631647E-1,7.399911609E-1,7.058641791E-1,1.321364352E0
7.620082000E0,-7.686511423E-1,5.032466816E-1,4.576773566E-1,1.026426015E0
7.630068000E0,-5.561283883E-1,3.521763369E-1,3.460809070E-1,7.436927799E-1
7.640054000E0,-2.965561599E-1,2.354993147E-1,3.092259067E-1,4.889030012E-1
7.650040000E0,-1.088576138E-1,1.700817624E-1,3.308465713E-1,3.876044888E-1
7.660026000E0,4.294268265E-2,1.703874256E-1,4.308134937E-1,4.652700454E-1
7.670012000E0,1.323678061E-1,2.719192822E-1,5.041849405E-1,5.879317871E-1
7.679998000E0,1.494500081E-1,3.683345327E-1,5.215768987E-1,6.557805228E-1
7.689984000E0,5.467322052E-2,3.527683675E-1,6.288657045E-1,7.231229194E-1
7.699970000E0,-2.195818050E-1,2.793760901E-1,8.853584969E-1,9.540056797E-1
7.709956000E0,-5.017570303E-1,2.655371194E-1,1.179619625E0,1.309111354E0
7.719942000E0,-7.274763653E-1,2.973088427E-1,1.444338865E0,1.644302030E0
7.729928000E0,-8.456209655E-1,4.130737723E-1,1.808793477E0,2.038979795E0
7.739914000E0,-7.186369832E-1,6.135178598E-1,2.224540451E0,2.416903700E0
7.749900000E0,-3.164375702E-1,7.042679624E-1,2.732021466E0,2.839025782E0
7.759886000E0,7.187879875E-2,7.752675591E-1,3.307916660E0,3.398311195E0
7.769872000E0,3.747609150E-1,8.332860448E-1,3.803469940E0,3.911674189E0
7.779858000E0,5.660975987E-1,7.006453930E-1,4.161392044E0,4.257763991E0
7.789844000E0,6.718798694E-1,4.674047846E-1,4.318957549E0,4.395825759E0
7.799830000E0,7.842345567E-1,3.234253583E-1,4.311176074E0,4.393844210E0
7.809816000E0,8.691489919E-1,2.493469832E-1,4.177016973E0,4.273764697E0
7.819802000E0,9.621785583E-1,3.314538047E-1,4.123679257E0,4.247396828E0
7.829788000E0,1.096973544E0,6.114806899E-1,4.165862825E0,4.351054202E0
7.839774000E0,1.253907622E0,8.777108505E-1,4.416806610E0,4.674488345E0
7.849760000E0,1.521077431E0,8.997934451E-1,4.727968529E0,5.047473745E0
7.859746000E0,1.951807748E0,9.447627727E-1,5.006772543E0,5.456180117E0
7.869732000E0,2.510688567E0,1.096145797E0,5.203929545E0,5.880984220E0
7.879718000E0,3.141380649E0,1.191194042E0,5.271973593E0,6.251473522E0
7.889704000E0,3.736332795E0,1.133978598E0,5.122457950E0,6.440936707E0
7.899690000E0,4.029991660E0,8.245533013E-1,5.203218523E0,6.632812671E0
7.909676000E0,3.971620075E0,2.875834613E-1,5.203450073E0,6.552279216E0
7.919662000E0,3.569941795E0,-2.054707195E-1,5.222757579E0,6.329604993E0
7.929648000E0,2.916941123E0,-6.170396378E-1,5.287163490E0,6.069874892E0
7.939634000E0,2.038906849E0,-1.245730145E0,5.474994768E0,5.973654865E0
7.949620000E0,1.380022708E0,-2.100782523E0,5.421133141E0,5.975486124E0
7.959606000E0,1.184342421E0,-3.128136121E0,5.226447757E0,6.205131644E0
7.969592000E0,1.491765631E0,-4.042481605E0,4.552892368E0,6.268640294E0
7.979578000E0,1.243314514E0,-4.586665593E0,3.992362488E0,6.206632781E0
7.989564000E0,2.365216273E-1,-5.084213651E0,3.328723392E0,6.081576305E0
7.999550000E0,-1.069637591E0,-6.242811366E0,2.835234763E0,6.939407359E0
8.009536000E0,-2.549985949E0,-7.890243326E0,1.891530994E0,8.505072462E0
8.019522000E0,-3.171439723E0,-7.931287857E0,2.290292975E-1,8.544928987E0
8.029508000E0,-3.110280771E0,-6.905388608E0,-1.084559978E0,7.650784839E0
8.039494000E0,-2.660655030E0,-5.884123278E0,-1.828631034E0,6.711623007E0
8.049480000E0,-1.899470344E0,-5.190565733E0,-1.936909188E0,5.856754854E0
8.059466000E0,-6.530456954E-1,-4.783714129E0,-1.470254309E0,5.046982988E0
8.069452000E0,-3.022250354E-1,-4.543115823E0,-7.322164106E-1,4.611657211E0
8.079438000E0,-1.386297063E0,-4.535113909E0,-4.387920195E-1,4.762522037E0
8.089424000E0,-2.584196253E0,-4.411044471E0,-6.459752423E-1,5.152928062E0
8.099410000E0,-3.236998120E0,-4.282637276E0,-1.063340725E0,5.472644001E0
8.109396000E0,-3.499691885E0,-4.590987855E0,-1.681846333E0,6.012788027E0
8.119382000E0,-3.913361342E0,-5.140189047E0,-2.466734462E0,6.915252659E0
8.129368000E0,-4.531918990E0,-5.459837615E0,-3.402453858E0,7.869231778E0
8.139354000E0,-5.324802017E0,-5.540623916E0,-4.478483333E0,8.894315199E0
8.149340000E0,-6.113482066E0,-5.571382610E0,-5.609685380E0,9.994175165E0
8.159326000E0,-7.080673515E0,-5.702591790E0,-6.616580594E0,1.124431542E1
8.169312000E0,-7.899094257E0,-6.012067958E0,-7.523364458E0,1.245558766E1
8.179298000E0,-8.485103379E0,-6.264201651E0,-8.306091456E0,1.342491553E1
8.189284000E0,-8.924522220E0,-6.488525401E0,-8.720344466E0,1.406387096E1
8.199270000E0,-9.197399495E0,-6.872981000E0,-8.840241623E0,1.449068312E1
8.209256000E0,-9.492216108E0,-7.581653597E0,-8.602778009E0,1.488594731E1
8.219242000E0,-1.001118164E1,-8.400242738E0,-8.064181620E0,1.535639479E1
8.229228000E0,-1.086808642E1,-9.185170044E0,-7.371659617E0,1.602572983E1
8.239214000E0,-1.158356576E1,-1.000428193E1,-6.764856627E0,1.673403531E1
8.249200000E0,-1.212474428E1,-1.094863298E1,-5.958085878E0,1.738909932E1
8.259186000E0,-1.283383846E1,-1.201151762E1,-4.854224241E0,1.823588381E1
8.269172000E0,-1.369676353E1,-1.346401628E1,-3.265785717E0,1.948195118E1
8.279158000E0,-1.468004301E1,-1.474948220E1,-1.532565747E0,2.086623219E1
8.289144000E0,-1.601653173E1,-1.571875409E1,4.034023315E-1,2.244484913E1
8.299130000E0,-1.809393636E1,-1.473860755E1,4.375736352E0,2.374371820E1
8.309116000E0,-2.027933204E1,-1.161038343E1,9.850338771E0,2.535905134E1
8.319102000E0,-2.106015050E1,-7.813372321E0,1.480665511E1,2.690382429E1
8.329088000E0,-2.019945439E1,-3.812048391E0,1.955385513E1,2.837081108E1
8.339074000E0,-1.803971045E1,-2.320328806E0,2.218955190E1,2.869131040E1
8.349060000E0,-1.398046926E1,-3.164980888E0,2.382994615E1,2.780893667E1
8.359046000E0,-7.519334557E0,-2.735291814E0,2.342110182E1,2.475015604E1
8.369032000E0,-1.859764241E0,-5.995330741E-1,2.101874520E1,2.110937737E1
8.379018000E0,1.851554458E-1,4.745315172E-2,1.810181022E1,1.810281932E1
8.389004000E0,-7.212507617E-1,-1.086527054E0,1.602199303E1,1.607498070E1
8.398990000E0,-1.892047449E0,-1.580214415E0,1.430434771E1,1.451520873E1
8.408976000E0,-2.048899448E0,-1.308571195E0,1.259478557E1,1.282727450E1
8.418962000E0,-1.337597358E0,-1.176897161E0,1.190982402E1,1.204234868E1
8.428948000E0,4.564484181E-1,-9.505427454E-1,1.191849427E1,1.196504836E1
8.438934000E0,3.098631363E0,-4.518516295E-1,1.220574692E1,1.260102949E1
8.448920000E0,5.441197861E0,-3.594389077E-1,1.282278956E1,1.393412224E1
8.458906000E0,7.183713149E0,-5.329153442E-1,1.271760049E1,1.461598767E1
8.468892000E0,8.097054082E0,-8.613901752E-1,1.125657309E1,1.389297360E1
8.478878000E0,8.030698709E0,-1.360589633E0,9.128708160E0,1.223424042E1
8.488864000E0,7.605227816E0,-1.921475024E0,6.826268179E0,1.039853325E1
8.498850000E0,7.137359932E0,-2.560089937E0,4.923766054E0,9.040986641E0
8.508836000E0,6.994468015E0,-3.211111034E0,3.837064533E0,8.599818668E0
8.518821500E0,7.083305347E0,-3.437581883E0,3.073001847E0,8.451835552E0
8.528807500E0,7.044928901E0,-3.327802163E0,2.592082393E0,8.211222905E0
8.538793500E0,6.687621340E0,-2.940855651E0,2.192662016E0,7.627625965E0
8.548779500E0,6.284937631E0,-2.361215170E0,1.636770147E0,6.910484399E0
8.558765500E0,5.902805132E0,-1.839263611E0,1.130657380E0,6.285251400E0
8.568751500E0,5.538863320E0,-1.482320039E0,6.987843704E-1,5.776208027E0
8.578737500E0,5.035960674E0,-1.236515079E0,1.353560257E-1,5.187310546E0
8.588723500E0,4.476361086E0,-1.092732120E0,-2.969847608E-1,4.617366349E0
8.598709500E0,3.847956727E0,-1.090646637E0,-6.984885013E-1,4.060069857E0
8.608695500E0,3.199909523E0,-1.238604874E0,-1.053665922E0,3.589397563E0
8.618681500E0,2.495887510E0,-1.362527839E0,-1.358371931E0,3.151366509E0
8.628667500E0,1.886020432E0,-1.404145981E0,-1.510768497E0,2.794838181E0
8.638653500E0,1.446326626E0,-1.339417304E0,-1.578615494E0,2.525455662E0
8.648639500E0,1.064012277E0,-1.199518650E0,-1.566049828E0,2.241311933E0
8.658625500E0,7.794950230E-1,-9.742401217E-1,-1.452807387E0,1.915047156E0
8.668611500E0,8.017972536E-1,-6.580535433E-1,-1.296479153E0,1.660352823E0
8.678597500E0,9.490645692E-1,-3.876420388E-1,-1.119731857E0,1.518153266E0
8.688583500E0,1.013713797E0,-2.583065256E-1,-9.527447337E-1,1.414941855E0
8.698569500E0,9.195732600E-1,-2.726337388E-1,-1.039977005E0,1.414742488E0
8.708555500E0,8.506780031E-1,-2.536992485E-1,-1.292543392E0,1.568019386E0
8.718541500E0,7.618616478E-1,-2.547731628E-1,-1.504935899E0,1.705923385E0
8.728527500E0,5.918408427E-1,-2.896754488E-1,-1.601168790E0,1.731452841E0
8.738513500E0,4.152694018E-1,-3.685077930E-1,-1.491047593E0,1.591059268E0
8.748499500E0,2.151403331E-1,-5.208720168E-1,-1.291910139E0,1.409476792E0
8.758485500E0,9.268209569E-2,-4.816275885E-1,-1.212493256E0,1.307935396E0
8.768471500E0,8.882973075E-2,-2.627611172E-1,-9.826175737E-1,1.021014898E0
8.778457500E0,3.744337633E-3,-4.119770905E-2,-5.749140304E-1,5.764003935E-1
8.788443500E0,-1.407031582E-1,1.896090507E-1,-1.568913209E-1,2.834851979E-1
8.798429500E0,-3.161470366E-1,2.811316800E-1,1.710503536E-1,4.563356153E-1
8.808415500E0,-4.689738849E-1,2.868674697E-1,2.942938721E-1,6.235690283E-1
8.818401500E0,-5.680439906E-1,2.952858340E-1,3.404248953E-1,7.250908966E-1
8.828387500E0,-6.484465680E-1,2.439036640E-1,4.816532797E-1,8.437783065E-1
8.838373500E0,-7.199960223E-1,1.979313379E-1,7.132018501E-1,1.032583152E0
8.848359500E0,-6.633590144E-1,2.608397769E-1,1.111068038E0,1.320058618E0
8.858345500E0,-4.398642527E-1,4.405559052E-1,1.642805058E0,1.756809189E0
8.868331500E0,-2.329328256E-1,6.359699254E-1,2.284615329E0,2.382893755E0
8.878317500E0,-9.311544746E-3,7.473028117E-1,2.923302017E0,3.017323794E0
8.888303500E0,2.527148332E-1,7.245846979E-1,3.524836666E0,3.607403678E0
8.898289500E0,4.669120105E-1,7.312609756E-1,3.940759056E0,4.035137095E0
8.908275500E0,6.136524189E-1,7.161076970E-1,4.143861507E0,4.249819727E0
8.918261500E0,6.401702727E-1,6.008394517E-1,4.266009842E0,4.355418004E0
8.928247500E0,6.395207202E-1,6.228772786E-1,4.183758228E0,4.277942937E0
8.938233500E0,6.731550010E-1,7.673120568E-1,4.062620877E0,4.188889332E0
8.948219500E0,6.653209014E-1,9.275658922E-1,4.037321729E0,4.195592584E0
8.958205500E0,7.714195065E-1,1.094379426E0,3.955273014E0,4.175756099E0
8.968191500E0,1.077321271E0,1.114468778E0,3.748350577E0,4.056204362E0
8.978177500E0,1.420117066E0,1.006106278E0,3.591070417E0,3.990585052E0
8.988163500E0,1.644723822E0,9.998581622E-1,3.433660448E0,3.936350704E0
8.998149500E0,1.784168221E0,9.648156526E-1,3.295584882E0,3.869755186E0
9.008135500E0,1.942115111E0,9.879323273E-1,3.155514246E0,3.834721834E0
9.018121500E0,1.965482046E0,1.116673690E0,2.945328478E0,3.712820983E0
9.028107500E0,2.004558111E0,1.122704947E0,2.837103533E0,3.650736375E0
9.038093500E0,2.155330760E0,1.053975678E0,2.876708479E0,3.745900037E0
9.048079500E0,2.385911616E0,1.138332143E0,3.058921167E0,4.042941134E0
9.058065500E0,2.739328147E0,1.277982948E0,3.398039795E0,4.547948280E0
9.068051500E0,3.183547552E0,1.360731428E0,3.769582402E0,5.118233731E0
9.078037500E0,3.394449604E0,1.152919191E0,4.127531987E0,5.466994703E0
9.088023500E0,3.272545390E0,3.504967242E-1,4.101898963E0,5.259085129E0
9.098009500E0,3.144781974E0,-1.010063819E0,3.637487953E0,4.913369638E0
9.107995500E0,3.245611946E0,-2.285767230E0,2.554729795E0,4.720738614E0
9.117981500E0,2.928157545E0,-3.290843082E0,1.235052983E0,4.574834497E0
9.127967500E0,2.311899607E0,-4.296526752E0,-1.485964608E-1,4.881301346E0
9.137953500E0,1.393728290E0,-4.838283269E0,-1.343469717E0,5.211177834E0
9.147939500E0,4.609360099E-1,-5.134510231E0,-2.267199397E0,5.631682735E0
9.157925500E0,-2.651881868E-1,-5.349725189E0,-2.842274226E0,6.063695833E0
9.167911500E0,-7.514736307E-1,-5.112683744E0,-3.172325576E0,6.063653787E0
9.177897500E0,-7.484710854E-1,-4.580654363E0,-3.268444446E0,5.676736074E0
9.187883500E0,-1.337100345E-1,-4.092357477E0,-3.318659749E0,5.270556956E0
9.197869500E0,1.020527412E0,-3.870794781E0,-3.046958349E0,5.030753782E0
9.207855500E0,2.388099936E0,-3.762147667E0,-2.828061399E0,5.277755930E0
9.217841500E0,3.080018506E0,-3.696410930E0,-2.822398371E0,5.578162809E0
9.227827500E0,2.762607667E0,-3.839872366E0,-2.744680981E0,5.468993929E0
9.237813500E0,1.729782391E0,-4.340309241E0,-2.627954769E0,5.360650865E0
9.247799500E0,9.697618854E-1,-5.125978559E0,-2.756982645E0,5.900597224E0
9.257785500E0,5.143058860E-1,-5.675998653E0,-3.102552506E0,6.489014047E0
9.267771500E0,2.991032070E-1,-5.987053569E0,-3.326118165E0,6.855460248E0
9.277757500E0,3.956688040E-1,-6.306889248E0,-3.490238106E0,7.219083587E0
9.287743500E0,2.073294032E-1,-6.762475056E0,-3.597683033E0,7.662726510E0
9.297729500E0,-2.700138938E-1,-7.214126857E0,-3.893324103E0,8.202103778E0
9.307715500E0,-1.390177276E0,-7.494930618E0,-4.395534439E0,8.799278427E0
9.317701500E0,-2.979363366E0,-7.735687383E0,-5.044736760E0,9.703959725E0
9.327687500E0,-4.724582992E0,-7.898910654E0,-5.700634142E0,1.082643541E1
9.337673500E0,-6.623892537E0,-7.811841520E0,-6.207388934E0,1.197633073E1
9.347659500E0,-8.405180712E0,-7.659110493E0,-6.369287226E0,1.303368160E1
9.357645500E0,-1.003583350E1,-7.852561530E0,-6.112809051E0,1.413319182E1
9.367631500E0,-1.137422140E1,-8.453641850E0,-5.578836640E0,1.523024594E1
9.377617500E0,-1.238397006E1,-8.937214186E0,-4.848637519E0,1.602328923E1
9.387603500E0,-1.317451595E1,-9.159139994E0,-3.971618906E0,1.652971484E1
9.397589500E0,-1.356409722E1,-9.496724312E0,-3.195483474E0,1.686367756E1
9.407575500E0,-1.357273239E1,-9.807407345E0,-2.426160632E0,1.692012289E1
9.417561500E0,-1.373734554E1,-9.765048945E0,-7.413310504E-1,1.687069694E1
9.427547500E0,-1.407356512E1,-9.620583542E0,1.270412850E0,1.709487677E1
9.437533500E0,-1.415410701E1,-9.289959165E0,3.031652092E0,1.719979654E1
9.447519500E0,-1.435314389E1,-8.242672555E0,5.024705953E0,1.729745820E1
9.457505500E0,-1.474958043E1,-6.482202222E0,7.650443165E0,1.783531186E1
9.467491500E0,-1.543113657E1,-4.710147093E0,1.007125827E1,1.901935079E1
9.477477500E0,-1.581979398E1,-2.953220465E0,1.248226409E1,2.036649968E1
9.487463500E0,-1.498863800E1,-2.844495583E0,1.370102030E1,2.050532568E1
9.497449500E0,-1.248100811E1,-4.085741645E0,1.436687666E1,1.946473717E1
9.507435500E0,-8.240226080E0,-4.486086760E0,1.511198852E1,1.778759392E1
9.517421750E0,-3.206289713E0,-3.951692179E0,1.530568456E1,1.612948060E1
9.527407750E0,-1.874339595E-1,-2.514992994E0,1.429124643E1,1.451206553E1
9.537393750E0,1.294309836E0,-2.071525980E0,1.405171992E1,1.426244336E1
9.547379750E0,2.707372529E0,-2.445023604E0,1.419477322E1,1.465604289E1
9.557365750E0,4.360125455E0,-1.812254298E0,1.330266938E1,1.411580576E1
9.567351750E0,5.715040512E0,-1.185010611E0,1.216504680E1,1.349274997E1
9.577337750E0,7.095925393E0,-1.441357516E0,1.158831253E1,1.366450350E1
9.587323750E0,8.351144253E0,-1.793202900E0,1.105790341E1,1.397263092E1
9.597309750E0,9.301942449E0,-2.136866130E0,1.057538416E1,1.424538803E1
9.607295750E0,9.726557894E0,-2.373906551E0,9.783669988E0,1.399862705E1
9.617281750E0,9.566196250E0,-2.549615820E0,8.744356057E0,1.320895205E1
9.627267750E0,9.071984321E0,-2.606627342E0,7.330917388E0,1.195147503E1
9.637253750E0,8.263928354E0,-2.382199219E0,5.903326119E0,1.043152166E1
9.647239750E0,7.285831847E0,-2.162358820E0,4.801168653E0,8.989458371E0
9.657225750E0,6.313109517E0,-1.789547221E0,4.010430384E0,7.690343483E0
9.667211750E0,5.513583468E0,-1.381155607E0,3.606996478E0,6.731836083E0
9.677197750E0,4.817476245E0,-1.154111219E0,3.597670169E0,6.122359081E0
9.687183750E0,4.166456902E0,-1.032909402E0,3.778669560E0,5.718794330E0
9.697169750E0,3.654118896E0,-9.456693835E-1,3.732609288E0,5.308412907E0
9.707155750E0,3.367627257E0,-8.440905299E-1,3.123262174E0,4.669921709E0
9.717141750E0,3.223434919E0,-8.522910306E-1,2.387270801E0,4.100730978E0
9.727127750E0,3.145431308E0,-8.500210684E-1,1.666291569E0,3.659617674E0
9.737113750E0,3.102119519E0,-7.363242258E-1,9.349539953E-1,3.322567960E0
9.747099750E0,2.886342351E0,-5.981011641E-1,4.104798013E-1,2.976103298E0
9.757085750E0,2.556474604E0,-5.195335892E-1,-1.124302626E-2,2.608755250E0
9.767071750E0,2.184629988E0,-4.931381248E-1,-4.478575426E-1,2.283937340E0
9.777057750E0,1.721662801E0,-4.380221605E-1,-7.674166489E-1,1.935178164E0
9.787043750E0,1.332100391E0,-2.804024043E-1,-9.450948215E-1,1.657202818E0
9.797029750E0,1.043742320E0,-1.615816833E-1,-1.110859877E0,1.532813210E0
9.807015750E0,8.114304683E-1,-1.115457616E-1,-1.200936819E0,1.453654396E0
9.817001750E0,6.490839145E-1,-9.875680458E-2,-1.191249737E0,1.360198063E0
9.826987750E0,5.101181833E-1,-8.900829010E-2,-1.125760921E0,1.239145144E0
9.836973750E0,3.998623540E-1,-1.192206158E-1,-1.168654341E0,1.240909516E0
9.846959750E0,3.137081630E-1,-8.341140836E-2,-1.231084478E0,1.273161131E0
9.856945750E0,2.135463821E-1,1.034092879E-2,-1.283465590E0,1.301150611E0
9.866931750E0,1.347217490E-1,2.155189951E-1,-1.219512838E0,1.245716641E0
9.876917750E0,1.513486721E-1,4.163010699E-1,-1.038088939E0,1.128645935E0
9.886903750E0,2.866894951E-1,4.796209702E-1,-9.265006757E-1,1.081956859E0
9.896889750E0,3.596130451E-1,3.851238257E-1,-8.379200363E-1,9.898241715E-1
9.906875750E0,2.779509775E-1,3.249229033E-1,-6.639630318E-1,7.897332123E-1
9.916861750E0,2.102715759E-1,3.496297283E-1,-4.530352521E-1,6.096687807E-1
9.926847750E0,1.839472649E-1,3.447534794E-1,-2.573026317E-1,4.678634439E-1
9.936833750E0,1.648556672E-1,2.145697179E-1,-1.794989955E-1,3.247113245E-1
9.946819750E0,1.779285065E-1,1.350668078E-1,-2.952914071E-1,3.702682961E-1
9.956805750E0,2.815048420E-1,1.367548624E-1,-4.140471876E-1,5.190201750E-1
9.966791750E0,3.705385675E-1,1.138862558E-1,-4.240096736E-1,5.745024914E-1
9.976777750E0,4.171501587E-1,1.805918401E-1,-3.694633377E-1,5.857736982E-1
9.986763750E0,4.178480970E-1,3.128202998E-1,-2.018154788E-1,5.596276080E-1
9.996749750E0,3.620574005E-1,4.043217696E-1,1.397554708E-1,5.604402254E-1
1.000673575E1,1.963247240E-1,4.087857898E-1,5.287947017E-1,6.966154289E-1
1.001672175E1,-1.425146987E-1,3.744496970E-1,9.019669282E-1,9.869485065E-1
1.002670775E1,-4.706139558E-1,3.908585190E-1,1.279719864E0,1.418425467E0
1.003669375E1,-8.272028209E-1,3.665730955E-1,1.694705529E0,1.921110921E0
1.004667975E1,-1.381240830E0,2.808998379E-1,2.291710925E0,2.690477637E0
1.005666575E1,-1.766191541E0,2.600938367E-1,2.957183708E0,3.454275155E0
1.006665175E1,-1.872646096E0,3.593750999E-1,3.641255899E0,4.110316093E0
1.007663775E1,-1.744840433E0,5.466499056E-1,4.282049339E0,4.656097164E0
1.008662375E1,-1.292417092E0,7.595308015E-1,4.798022266E0,5.026753092E0
1.009660975E1,-5.914618700E-1,9.646492993E-1,5.243640325E0,5.364339593E0
1.010659575E1,2.891858176E-1,1.214053658E0,5.598556960E0,5.735973741E0
1.011658175E1,1.431193301E0,1.436757219E0,5.820632456E0,6.163793293E0
1.012656775E1,2.682772416E0,1.649759590E0,5.915114105E0,6.701309530E0
1.013655375E1,3.671057403E0,1.799680299E0,5.737733556E0,7.045360033E0
1.014653975E1,4.213502722E0,1.543463203E0,5.309813849E0,6.951978637E0
1.015652575E1,4.079716966E0,8.468649606E-1,4.819890853E0,6.371233681E0
1.016651175E1,3.597995274E0,3.030977324E-2,4.344360192E0,5.640917847E0
1.017649775E1,3.021946884E0,-7.421430094E-1,3.909560652E0,4.996759320E0
1.018648375E1,2.607765210E0,-1.296159895E0,3.339561206E0,4.430929803E0
1.019646975E1,2.535654423E0,-1.452525405E0,3.038151273E0,4.215416535E0
1.020645575E1,2.933363613E0,-1.282368068E0,2.827560877E0,4.271321864E0
1.021644175E1,3.579493222E0,-1.134468449E0,2.596334488E0,4.565166280E0
1.022642775E1,4.543541501E0,-1.327059360E0,2.568005313E0,5.385119052E0
1.023641375E1,5.439236705E0,-1.679126500E0,2.495165378E0,6.215352927E0
1.024639975E1,5.386952072E0,-2.326427306E0,2.575514892E0,6.408181770E0
1.025638575E1,4.670692129E0,-3.025459014E0,2.605673077E0,6.144778221E0
1.026637175E1,3.914431382E0,-3.410038573E0,2.439406915E0,5.736012745E0
1.027635775E1,2.640071661E0,-3.955559528E0,1.979879499E0,5.151344716E0
1.028634375E1,1.326366611E0,-4.656191618E0,1.223041048E0,4.993515613E0
1.029632975E1,3.918096417E-1,-5.069369910E0,2.067236316E-1,5.088689491E0
1.030631575E1,-4.285529602E-1,-5.371973260E0,-7.044456446E-1,5.434887120E0
1.031630175E1,-8.998502362E-1,-5.708251895E0,-1.490130165E0,5.967776642E0
1.032628775E1,-9.815463638E-1,-5.579673961E0,-2.300162198E0,6.114486153E0
1.033627375E1,-8.899468070E-1,-5.050697411E0,-2.841770781E0,5.863208237E0
1.034625975E1,-8.015269661E-1,-4.412893653E0,-2.993054622E0,5.392073056E0
1.035624575E1,-6.253152752E-1,-3.993524914E0,-3.033708558E0,5.053973491E0
1.036623175E1,-2.864322907E-1,-3.995645115E0,-2.979331499E0,4.992358112E0
1.037621775E1,5.489190638E-2,-4.368527319E0,-3.029249179E0,5.316332820E0
1.038620375E1,-1.181312978E-1,-4.742321105E0,-3.235828677E0,5.742312399E0
1.039618975E1,-9.524675757E-1,-4.893490341E0,-3.406209524E0,6.037856037E0
1.040617575E1,-1.790705701E0,-5.105931965E0,-3.748254683E0,6.582293012E0
1.041616175E1,-2.671256032E0,-5.375488021E0,-4.097914671E0,7.268038587E0
1.042614775E1,-3.270059447E0,-5.585721152E0,-4.661001538E0,7.976120919E0
1.043613375E1,-3.716458109E0,-5.755854662E0,-5.518226157E0,8.797314572E0
1.044611975E1,-4.198893746E0,-6.017312910E0,-6.468025648E0,9.781314796E0
1.045610575E1,-5.152909080E0,-6.290741578E0,-7.041460333E0,1.075676834E1
1.046609175E1,-6.302209137E0,-6.494243978E0,-7.292363187E0,1.162203105E1
1.047607775E1,-7.296748014E0,-6.650867497E0,-7.432151402E0,1.235772813E1
1.048606375E1,-8.224527476E0,-6.768832149E0,-7.248385109E0,1.288406099E1
1.049604975E1,-9.041700422E0,-6.819731576E0,-6.666687723E0,1.314175827E1
1.050603575E1,-9.478548242E0,-6.926737962E0,-5.869255562E0,1.312519472E1
1.051602225E1,-9.467477708E0,-7.202380970E0,-5.099875419E0,1.294280322E1
1.052600825E1,-9.487887415E0,-7.682323354E0,-4.574158691E0,1.303691020E1
1.053599425E1,-9.629677716E0,-8.261853762E0,-4.282981385E0,1.339152157E1
1.054598025E1,-1.014411341E1,-8.781454886E0,-3.747962907E0,1.393069319E1
1.055596625E1,-1.113634965E1,-9.014543028E0,-2.569117161E0,1.455612011E1
1.056595225E1,-1.233329107E1,-8.976443156E0,-1.085270999E0,1.529262612E1
1.057593825E1,-1.343122743E1,-8.503703372E0,8.951824039E-1,1.592206623E1
1.058592425E1,-1.413657121E1,-7.703938757E0,3.041621010E0,1.638428443E1
1.059591025E1,-1.475455408E1,-6.832667956E0,5.126800092E0,1.704893828E1
1.060589625E1,-1.549902508E1,-5.783610810E0,7.510757861E0,1.816814289E1
1.061588225E1,-1.628427457E1,-3.894477174E0,1.057526020E1,1.980355218E1
1.062586825E1,-1.658910278E1,-2.367998378E0,1.252272682E1,2.091947501E1
1.063585425E1,-1.637151152E1,-2.903360088E0,1.325847028E1,2.126600393E1
1.064584025E1,-1.496119818E1,-4.304445929E0,1.499935945E1,2.161819812E1
1.065582625E1,-1.138588309E1,-4.599439713E0,1.642484046E1,2.050776837E1
1.066581225E1,-6.625303470E0,-3.336010484E0,1.667893005E1,1.825404940E1
1.067579825E1,-1.960525800E0,-2.166103231E0,1.698333610E1,1.723279924E1
1.068578425E1,9.146065620E-1,-1.905911783E0,1.717412139E1,1.730374093E1
1.069577025E1,2.423928312E0,-2.192686135E0,1.640480205E1,1.672724817E1
1.070575625E1,2.926153412E0,-2.624996370E0,1.407869664E1,1.461720489E1
1.071574225E1,3.039440584E0,-3.180709314E0,1.134857785E1,1.217149663E1
1.072572825E1,3.351039583E0,-3.721144945E0,8.940307948E0,1.024721875E1
1.073571425E1,3.559531705E0,-4.350326399E0,7.331152446E0,9.238041022E0
1.074570025E1,4.044607944E0,-4.631713420E0,6.610584274E0,9.028369015E0
1.075568625E1,4.657293234E0,-4.213597155E0,7.050915281E0,9.442467238E0
1.076567225E1,5.207185274E0,-3.363749383E0,8.201789993E0,1.028099934E1
1.077565825E1,5.645593132E0,-2.414619398E0,9.503289565E0,1.131439884E1
1.078564425E1,6.172728394E0,-1.702259986E0,1.048984056E1,1.228971195E1
1.079563025E1,6.645702066E0,-1.203346456E0,1.085308480E1,1.278291236E1
1.080561625E1,6.533820273E0,-9.229477613E-1,1.061786769E1,1.250127010E1
1.081560225E1,6.407208173E0,-9.520601709E-1,9.868844039E0,1.180477945E1
1.082558825E1,6.312980293E0,-1.054904947E0,8.765110749E0,1.085328112E1
1.083557425E1,6.235970709E0,-1.033966798E0,7.662170341E0,9.933039432E0
1.084556025E1,6.222471242E0,-1.071187542E0,6.577274441E0,9.117408084E0
1.085554625E1,6.398550786E0,-1.331114550E0,5.503077191E0,8.543838521E0
1.086553225E1,6.617039015E0,-1.598976376E0,4.257589266E0,8.029258817E0
1.087551825E1,6.810942042E0,-1.776801606E0,2.877293200E0,7.604260096E0
1.088550425E1,6.619742768E0,-2.046270832E0,1.688594019E0,7.131589472E0
1.089549025E1,5.992111995E0,-2.320715892E0,4.297136325E-1,6.440169425E0
1.090547625E1,5.363907026E0,-2.425198181E0,-8.018164033E-1,5.941043203E0
1.091546225E1,4.739477896E0,-2.314849381E0,-1.875029567E0,5.597938394E0
1.092544825E1,4.122719144E0,-2.096934617E0,-2.698109370E0,5.354786840E0
1.093543425E1,3.466819423E0,-1.814821957E0,-3.172797446E0,5.037763321E0
1.094542025E1,2.883918681E0,-1.312924593E0,-3.321037812E0,4.590212423E0
1.095540625E1,2.342612399E0,-8.081281802E-1,-3.093068907E0,3.963329316E0
1.096539225E1,1.749532531E0,-4.967841927E-1,-2.588817308E0,3.163800510E0
1.097537825E1,1.259649588E0,-3.120961587E-1,-2.077599337E0,2.449599988E0
1.098536425E1,9.102229044E-1,-1.638109890E-1,-1.862336431E0,2.079335653E0
1.099535025E1,7.222077316E-1,-2.327169903E-2,-1.809900940E0,1.948811687E0
1.100533625E1,5.120000365E-1,8.184903234E-2,-1.733616995E0,1.809494733E0
1.101532225E1,2.393910022E-1,8.616562966E-2,-1.589536924E0,1.609770232E0
1.102530825E1,5.041483954E-2,1.413476676E-2,-1.455991781E0,1.456932913E0
1.103529425E1,-1.051291367E-1,3.024987582E-2,-1.296658663E0,1.301265107E0
1.104528025E1,-1.399893594E-1,1.326012562E-1,-1.081877568E0,1.098926379E0
1.105526625E1,-1.117528626E-1,1.519859090E-1,-7.969591212E-1,8.189824539E-1
1.106525225E1,-2.666856587E-2,3.185563087E-2,-5.963651258E-1,5.978104690E-1
1.107523825E1,1.387073573E-1,-1.401376594E-2,-4.571739113E-1,4.779582637E-1
1.108522325E1,3.272981885E-1,4.726161886E-2,-3.032137996E-1,4.486606436E-1
1.109520925E1,4.799083243E-1,8.830512587E-2,-1.033156228E-1,4.987824305E-1
1.110519525E1,5.772459000E-1,5.923558362E-2,1.001838541E-1,5.888620281E-1
1.111518125E1,6.246622874E-1,8.662777897E-2,2.116288608E-1,6.652023152E-1
1.112516725E1,5.481877233E-1,1.827614861E-1,3.229867440E-1,6.619909196E-1
1.113515425E1,3.767347889E-1,3.013232120E-1,4.937084842E-1,6.902701258E-1
1.114513925E1,3.503027429E-1,4.324144979E-1,7.186882925E-1,9.089593893E-1
1.115512525E1,4.022606626E-1,3.914942210E-1,9.428518295E-1,1.097292549E0
1.116511125E1,4.708183891E-1,2.948480420E-1,1.107570233E0,1.239079152E0
1.117509725E1,4.793290114E-1,2.857487146E-1,1.239897986E0,1.359689540E0
1.118508325E1,3.929637359E-1,2.824204795E-1,1.436317070E0,1.515647897E0
1.119506925E1,3.884736590E-1,2.517524181E-1,1.663297210E0,1.726513444E0
1.120505525E1,3.991518442E-1,1.314759596E-1,1.854198276E0,1.901225755E0
1.121504125E1,4.076715298E-1,1.123655412E-1,1.911375275E0,1.957594833E0
1.122502725E1,5.175038745E-1,2.103570914E-1,1.945717726E0,2.024321574E0
1.123501325E1,6.004906288E-1,2.525189881E-1,2.032036078E0,2.133899121E0
1.124499925E1,5.859850024E-1,2.326917376E-1,2.174197678E0,2.263771060E0
1.125498525E1,4.458104324E-1,2.267209630E-1,2.339873856E0,2.392730448E0
1.126497125E1,1.753290537E-1,1.876808948E-1,2.540170813E0,2.553122040E0
1.127495725E1,-2.222832187E-1,2.251400951E-1,2.827814646E0,2.845458411E0
1.128494325E1,-5.700339442E-1,3.934006326E-1,3.276206040E0,3.348615948E0
1.129492925E1,-6.964554244E-1,7.099660009E-1,3.884393651E0,4.009690252E0
1.130491525E1,-6.786804736E-1,1.154456571E0,4.621626973E0,4.811737008E0
1.131490125E1,-4.129688148E-1,1.646749590E0,5.514727768E0,5.770142962E0
1.132488725E1,9.869603008E-2,2.200832330E0,6.490377799E0,6.854079649E0
1.133487325E1,8.570977342E-1,2.578798981E0,7.188417819E0,7.684931454E0
1.134485925E1,1.783529997E0,2.470067082E0,7.494776251E0,8.090357328E0
1.135484525E1,2.578434992E0,1.937804251E0,7.419542466E0,8.090304242E0
1.136483125E1,3.034045358E0,1.239127908E0,6.917118123E0,7.654240153E0
1.137481725E1,3.300127291E0,4.562446426E-1,6.281731603E0,7.110495851E0
1.138480325E1,3.444561704E0,-4.496992694E-1,5.478962104E0,6.487392427E0
1.139478925E1,3.264584114E0,-1.312530199E0,4.581353105E0,5.776594259E0
1.140477525E1,2.493614404E0,-1.871198764E0,3.968412877E0,5.046563026E0
1.141476125E1,1.768316127E0,-2.099020903E0,3.650213249E0,4.566934140E0
1.142474725E1,1.388530700E0,-2.193042085E0,3.703322924E0,4.522394473E0
1.143473325E1,1.222072749E0,-2.231497760E0,3.905845331E0,4.661402343E0
1.144471925E1,1.163523409E0,-2.493662059E0,4.145915633E0,4.976017849E0
1.145470525E1,1.192976419E0,-3.191344814E0,3.966180410E0,5.228619465E0
1.146469125E1,8.549535602E-1,-4.463149010E0,3.406471480E0,5.679321492E0
1.147467725E1,1.236960930E-1,-6.120991645E0,2.195851672E0,6.504122078E0
1.148466325E1,-5.513456583E-1,-7.617034514E0,1.643810195E-1,7.638731435E0
1.149464925E1,-9.761312574E-1,-8.368033351E0,-1.810522499E0,8.617122844E0
1.150463525E1,-1.261145598E0,-8.446886562E0,-3.661445458E0,9.292285168E0
1.151462125E1,-1.076768855E0,-8.110838308E0,-5.286132041E0,9.741063658E0
1.152460692E1,-5.064133143E-1,-7.523470293E0,-6.283444837E0,9.815331819E0
1.153459292E1,1.656779319E-1,-6.814381959E0,-6.598659462E0,9.487125874E0
1.154457892E1,6.820549017E-1,-6.300388314E0,-6.438366231E0,9.033972079E0
1.155456492E1,1.192337319E0,-6.229304298E0,-5.799473721E0,8.594172198E0
1.156455092E1,1.076265410E0,-6.268566597E0,-4.903506621E0,8.031042996E0
1.157453692E1,2.011027032E-1,-6.230140450E0,-4.198413690E0,7.515435439E0
1.158452292E1,-1.147536537E0,-6.182435356E0,-3.730177431E0,7.311194889E0
1.159450892E1,-2.889069493E0,-6.167008063E0,-3.620615813E0,7.712818541E0
1.160449492E1,-4.150368288E0,-6.211588404E0,-4.074883073E0,8.509645086E0
1.161448092E1,-4.753530217E0,-6.460107933E0,-4.611102569E0,9.251557217E0
1.162446692E1,-5.183855469E0,-6.724320220E0,-5.267398732E0,9.991713033E0
1.163445292E1,-5.885394462E0,-6.852347345E0,-5.896304197E0,1.078697990E1
1.164443892E1,-6.676617465E0,-7.086344145E0,-6.547257759E0,1.173286317E1
1.165442492E1,-7.899386033E0,-7.472369721E0,-7.068896053E0,1.296942174E1
1.166441092E1,-9.187952149E0,-7.695244532E0,-7.517430704E0,1.414733252E1
1.167439692E1,-9.741141434E0,-7.834977198E0,-7.797369661E0,1.473348831E1
1.168438292E1,-1.014456715E1,-7.990442383E0,-7.563084009E0,1.496528155E1
1.169436892E1,-1.136817655E1,-8.021941919E0,-6.175851392E0,1.522261905E1
1.170435492E1,-1.245372266E1,-7.835446730E0,-4.356183262E0,1.534489382E1
1.171434092E1,-1.301997404E1,-7.716069390E0,-2.993787570E0,1.542790378E1
1.172432692E1,-1.356922406E1,-8.041648205E0,-1.532060548E0,1.584737066E1
1.173431292E1,-1.388043393E1,-8.284596507E0,3.253382018E-1,1.616808060E1
1.174429892E1,-1.373663686E1,-8.378654818E0,1.876274439E0,1.619930414E1
1.175428492E1,-1.364840238E1,-8.184107428E0,3.136876831E0,1.622031128E1
1.176427092E1,-1.420640567E1,-7.381362487E0,5.345226341E0,1.687832690E1
1.177425692E1,-1.503595133E1,-5.387980013E0,7.980616137E0,1.785498236E1
1.178424292E1,-1.589654921E1,-4.072916070E0,9.346168449E0,1.888490897E1
1.179422892E1,-1.718996968E1,-4.052678856E0,1.071622019E1,2.065808894E1
1.180421492E1,-1.710756604E1,-4.252593405E0,1.283255441E1,2.180430735E1
1.181420092E1,-1.472041452E1,-4.889313090E0,1.499448521E1,2.157384002E1
1.182418692E1,-1.070282305E1,-5.131044586E0,1.700488659E1,2.073750727E1
1.183417292E1,-6.532992307E0,-4.446205533E0,1.832529314E1,1.995658039E1
1.184415892E1,-3.398225151E0,-3.851631409E0,1.900279598E1,1.968474673E1
1.185414492E1,-1.772640143E0,-3.720962804E0,1.904660566E1,1.948745762E1
1.186413092E1,-3.443447225E-1,-4.002481095E0,1.803961338E1,1.848150641E1
1.187411692E1,1.564316275E0,-4.237678912E0,1.641948909E1,1.702952231E1
1.188410292E1,3.812072949E0,-4.271785429E0,1.494244733E1,1.600177438E1
1.189408892E1,6.272779516E0,-4.082862768E0,1.379397466E1,1.569366968E1
1.190407492E1,8.905505905E0,-3.824144233E0,1.301159615E1,1.622447993E1
1.191406092E1,1.120888319E1,-3.892572444E0,1.279101111E1,1.744709569E1
1.192404692E1,1.258395419E1,-4.263562197E0,1.204036428E1,1.793053924E1
1.193403292E1,1.278166024E1,-4.491427314E0,1.076471232E1,1.730383742E1
1.194401892E1,1.214235024E1,-4.370565659E0,9.202746774E0,1.585020700E1
1.195400492E1,1.142668262E1,-4.064100807E0,7.627822042E0,1.432723491E1
1.196399092E1,1.097385202E1,-3.766765506E0,6.250123309E0,1.317869462E1
1.197397692E1,1.069985267E1,-3.519122474E0,5.219449224E0,1.241425472E1
1.198396292E1,1.039093257E1,-3.176240287E0,4.356773831E0,1.170647087E1
1.199394892E1,9.829377673E0,-2.553519714E0,3.501029727E0,1.074217564E1
1.200393492E1,8.909897749E0,-1.949320634E0,2.650356914E0,9.497921910E0
1.201392092E1,7.726224250E0,-1.636366689E0,1.941151051E0,8.132668965E0
1.202390692E1,6.440049645E0,-1.407920067E0,1.425817224E0,6.744585465E0
1.203389292E1,5.179748969E0,-1.160904661E0,9.089362246E-1,5.385504997E0
1.204387892E1,4.126473057E0,-1.002331242E0,2.758365512E-1,4.255412273E0
1.205386492E1,3.190893702E0,-9.427925534E-1,-2.869240415E-1,3.339608633E0
1.206385092E1,2.295557516E0,-8.853028022E-1,-7.290016115E-1,2.566084315E0
1.207383692E1,1.499941354E0,-7.849632660E-1,-1.082738863E0,2.009555881E0
1.208382292E1,8.435726859E-1,-6.937377848E-1,-1.330318159E0,1.721230198E0
1.209380892E1,3.731331964E-1,-5.651999049E-1,-1.362258575E0,1.521324337E0
1.210379492E1,-1.618290022E-2,-3.960899498E-1,-1.203218987E0,1.266840584E0
1.211378092E1,-3.862464546E-1,-2.890342285E-1,-1.046763284E0,1.152579924E0
1.212376692E1,-5.066374089E-1,1.595010795E-2,-1.036527148E0,1.153830316E0
1.213375292E1,-4.805833854E-1,2.988050721E-1,-9.785309547E-1,1.130383869E0
1.214373892E1,-4.670808488E-1,4.780270558E-1,-8.245965707E-1,1.061430115E0
1.215372492E1,-5.212231421E-1,6.396053586E-1,-6.606809896E-1,1.057008963E0
1.216371092E1,-7.148286916E-1,7.953984994E-1,-4.635251570E-1,1.165544681E0
1.217369692E1,-9.081380796E-1,8.266213153E-1,-2.537492788E-1,1.253956246E0
1.218368292E1,-9.704248135E-1,6.378897125E-1,-3.562398595E-1,1.214715786E0
1.219366892E1,-8.942459723E-1,6.111653057E-1,-6.284230703E-1,1.252243764E0
1.220365492E1,-8.198329903E-1,5.744982203E-1,-7.442131430E-1,1.247408329E0
1.221364092E1,-6.567816277E-1,5.467890693E-1,-7.537025893E-1,1.139477067E0
1.222362692E1,-4.418913361E-1,5.633698726E-1,-6.419003177E-1,9.616078120E-1
1.223361292E1,-2.536139157E-1,4.404704627E-1,-4.295844090E-1,6.654900535E-1
1.224359892E1,-6.607353687E-2,2.729591364E-1,-3.355167425E-1,4.375430115E-1
1.225358492E1,1.025068067E-1,2.455397880E-1,-2.447574306E-1,3.615295738E-1
1.226357092E1,2.980141631E-1,2.516954443E-1,-1.239826065E-1,4.093100595E-1
1.227355692E1,4.647815774E-1,2.339438823E-1,2.731059015E-2,5.210542420E-1
1.228354292E1,5.424998443E-1,1.374180463E-1,2.220597088E-1,6.020799904E-1
1.229352892E1,6.175665450E-1,1.018647824E-1,3.848362523E-1,7.347542531E-1
1.230351492E1,6.275847258E-1,1.569647035E-1,5.672255266E-1,8.603750950E-1
1.231350092E1,6.330270217E-1,2.788740335E-1,8.825793153E-1,1.121356404E0
1.232348692E1,6.044430542E-1,4.507769112E-1,1.360412024E0,1.555400947E0
1.233347292E1,5.898720852E-1,4.912962154E-1,1.889114925E0,2.039136152E0
1.234345892E1,5.988311890E-1,4.638688271E-1,2.481454242E0,2.594491904E0
1.235344492E1,6.700492524E-1,4.843677033E-1,2.990009977E0,3.102214972E0
1.236343092E1,8.445135029E-1,5.030910726E-1,3.408997477E0,3.547896205E0
1.237341692E1,9.966405125E-1,4.847183901E-1,3.837253983E0,3.994090930E0
1.238340292E1,1.068080624E0,4.124791105E-1,4.321201125E0,4.470314799E0
1.239338892E1,1.127576336E0,4.096689387E-1,4.790693366E0,4.938623286E0
1.240337492E1,1.309634804E0,5.453063616E-1,5.255009651E0,5.443126747E0
1.241336092E1,1.833407916E0,6.628481139E-1,5.677467474E0,6.002865076E0
1.242334692E1,2.584591525E0,6.727974437E-1,5.952989445E0,6.524634325E0
1.243333292E1,3.457147251E0,6.173637928E-1,5.974451065E0,6.930156614E0
1.244331892E1,4.166495494E0,3.705344014E-1,5.714470409E0,7.081818445E0
1.245330492E1,4.381610464E0,-2.853689745E-2,5.282913734E0,6.863563370E0
1.246329092E1,4.143438461E0,-4.106544138E-1,4.640875422E0,6.234937370E0
1.247327692E1,3.602732396E0,-7.897856109E-1,3.897706007E0,5.366148912E0
1.248326292E1,3.160613895E0,-1.018595053E0,3.255847789E0,4.650544151E0
1.249324892E1,2.748956757E0,-1.006764309E0,2.886568054E0,4.111278725E0
1.250323492E1,2.489768106E0,-8.560974218E-1,3.159533038E0,4.112723797E0
1.251322092E1,2.847032105E0,-5.337212367E-1,3.584287062E0,4.608423148E0
1.252320737E1,3.686446982E0,-3.072334315E-1,3.983094066E0,5.435928815E0
1.253319337E1,4.632999222E0,-3.131408369E-1,4.683285277E0,6.595142149E0
1.254317938E1,5.127667819E0,-5.130330203E-1,5.359577748E0,7.435136433E0
1.255316537E1,5.258399282E0,-1.171401802E0,5.539635737E0,7.727257553E0
1.256315137E1,4.937263767E0,-2.179180968E0,5.081584159E0,7.412685124E0
1.257313738E1,3.952796426E0,-3.024403591E0,4.307411052E0,6.582203783E0
1.258312337E1,2.840836396E0,-3.293107124E0,3.448105409E0,5.550165481E0
1.259310937E1,1.211529050E0,-3.511233411E0,2.963910345E0,4.751981401E0
1.260309538E1,-8.716426831E-1,-4.060029099E0,2.853291550E0,5.038339996E0
1.261308137E1,-2.652145577E0,-4.691733626E0,2.712106435E0,6.033387266E0
1.262306737E1,-3.676390064E0,-5.244819708E0,2.179362524E0,6.765618869E0
1.263305338E1,-3.989781527E0,-5.756193216E0,1.305943456E0,7.124437191E0
1.264303937E1,-3.642266298E0,-5.689039114E0,2.473243582E-1,6.759618270E0
1.265302537E1,-2.794073288E0,-5.070865628E0,-6.643232203E-1,5.827679563E0
1.266301137E1,-2.144164624E0,-4.680639997E0,-1.225248372E0,5.292170281E0
1.267299737E1,-2.191629982E0,-4.739026784E0,-1.222523862E0,5.362479037E0
1.268298337E1,-2.461294797E0,-4.763426045E0,-1.079117097E0,5.469249809E0
1.269296937E1,-2.743229409E0,-4.732169169E0,-1.074347523E0,5.574312087E0
1.270295537E1,-2.948128125E0,-4.806108381E0,-1.389470347E0,5.806958331E0
1.271294137E1,-2.976784160E0,-4.881769012E0,-2.001376203E0,6.057922030E0
1.272292737E1,-3.274037308E0,-4.965866591E0,-2.805939628E0,6.576659372E0
1.273291337E1,-3.587925199E0,-5.068623220E0,-3.693861544E0,7.225563071E0
1.274289937E1,-4.046576702E0,-5.175897993E0,-4.566522228E0,8.001114191E0
1.275288537E1,-4.491159804E0,-5.363990057E0,-5.510938772E0,8.905804391E0
1.276287137E1,-4.821042754E0,-5.567185478E0,-6.357864690E0,9.729257464E0
1.277285737E1,-5.487300233E0,-5.604769042E0,-6.876373554E0,1.043112713E1
1.278284337E1,-6.332602964E0,-5.578304543E0,-7.145384066E0,1.105784135E1
1.279282937E1,-7.119027742E0,-5.649503750E0,-7.160817207E0,1.157042573E1
1.280281537E1,-7.734692772E0,-5.877876697E0,-6.915235319E0,1.192457070E1
1.281280137E1,-8.299364235E0,-6.267382536E0,-6.565194093E0,1.229883344E1
1.282278637E1,-8.921351275E0,-6.703934487E0,-6.186964025E0,1.275977155E1
1.283277237E1,-9.594925375E0,-7.084752533E0,-6.027948995E0,1.336384976E1
1.284275837E1,-1.066035940E1,-7.583637557E0,-6.028052491E0,1.440459087E1
1.285274537E1,-1.201178309E1,-8.100173571E0,-5.766940398E0,1.559337508E1
1.286273137E1,-1.299299499E1,-8.620691539E0,-5.616552351E0,1.657346982E1
1.287271637E1,-1.354380855E1,-9.424669658E0,-5.333268201E0,1.734078712E1
1.288270237E1,-1.393822313E1,-1.039502796E1,-4.251641479E0,1.789991971E1
1.289268837E1,-1.464446855E1,-1.118606736E1,-2.296780461E0,1.857050787E1
1.290267437E1,-1.555769604E1,-1.086819868E1,9.232735974E-1,1.900031797E1
1.291266038E1,-1.579213080E1,-1.000363172E1,3.743747064E0,1.906514319E1
1.292264637E1,-1.597713787E1,-9.519969918E0,5.883399392E0,1.950674627E1
1.293263237E1,-1.688096772E1,-8.351585133E0,8.609902841E0,2.070860865E1
1.294261838E1,-1.782563804E1,-5.976733233E0,1.160867253E1,2.209606276E1
1.295260437E1,-1.781036511E1,-4.311272553E0,1.314815437E1,2.255371676E1
1.296259037E1,-1.681189339E1,-4.645172833E0,1.435519743E1,2.258957909E1
1.297257638E1,-1.413935448E1,-4.850604230E0,1.654676660E1,2.229899530E1
1.298256237E1,-9.003878292E0,-4.421459531E0,1.791669672E1,2.053356156E1
1.299254837E1,-3.683347373E0,-3.510449884E0,1.782374938E1,1.853581259E1
1.300253438E1,1.714245024E-1,-2.537067111E0,1.750154675E1,1.768531127E1
1.301252037E1,2.722483488E0,-2.202325709E0,1.732606713E1,1.767638982E1
1.302250637E1,3.921165621E0,-2.153855799E0,1.631007365E1,1.691251422E1
1.303249238E1,3.975882111E0,-2.064165212E0,1.484896088E1,1.550999858E1
1.304247837E1,4.711438743E0,-2.192010782E0,1.403392918E1,1.496508385E1
1.305246437E1,6.598667064E0,-1.867435057E0,1.423258132E1,1.579861044E1
1.306245038E1,8.858903596E0,-1.021895075E0,1.493360868E1,1.739359396E1
1.307243637E1,1.059838126E1,-1.025092918E0,1.572769331E1,1.899307341E1
1.308242237E1,1.120255300E1,-1.799007870E0,1.539957330E1,1.912800253E1
1.309240837E1,1.083981396E1,-2.606145824E0,1.341240641E1,1.744093485E1
1.310239437E1,9.883838639E0,-3.488295076E0,1.057412350E1,1.488860492E1
1.311238037E1,8.906530337E0,-3.889769873E0,7.441608689E0,1.224067532E1
1.312236637E1,7.963204299E0,-3.670270368E0,4.798043901E0,9.995235492E0
1.313235237E1,7.064308913E0,-3.338491166E0,2.985353254E0,8.364348016E0
1.314233837E1,6.508116497E0,-2.953842901E0,1.923160338E0,7.401304879E0
1.315232437E1,6.103496776E0,-2.559255540E0,1.399598309E0,6.764712650E0
1.316231037E1,5.698868283E0,-2.176274170E0,9.619874275E-1,6.175652903E0
1.317229637E1,5.199321939E0,-1.792634989E0,5.617689049E-1,5.528297489E0
1.318228237E1,4.519424367E0,-1.393855905E0,1.814601517E-1,4.732965105E0
1.319226837E1,3.905148928E0,-1.128301902E0,-1.158520532E-1,4.066531080E0
1.320225437E1,3.386016165E0,-9.303753331E-1,-4.016358876E-1,3.534404492E0
1.321224037E1,2.939212291E0,-7.651751918E-1,-6.905251783E-1,3.114688907E0
1.322222637E1,2.550375081E0,-7.263012942E-1,-9.669061053E-1,2.822558067E0
1.323221237E1,2.243094543E0,-7.472120337E-1,-1.275157281E0,2.686228777E0
1.324219837E1,1.925741006E0,-6.582530064E-1,-1.605995666E0,2.592488674E0
1.325218437E1,1.512139961E0,-6.007988867E-1,-1.792393207E0,2.420784991E0
1.326217037E1,1.018878497E0,-5.328723672E-1,-1.752510518E0,2.096034224E0
1.327215637E1,7.246467514E-1,-3.451600802E-1,-1.552215316E0,1.747461239E0
1.328214237E1,5.298245426E-1,-2.287291709E-1,-1.415786326E0,1.528882599E0
1.329212837E1,4.359803858E-1,-1.289927293E-1,-1.371470863E0,1.444870357E0
1.330211437E1,4.179975665E-1,-5.898214336E-3,-1.283591890E0,1.349949960E0
1.331210037E1,2.890981825E-1,1.544335169E-1,-1.069242904E0,1.118350508E0
1.332208637E1,2.313728616E-1,3.667590735E-1,-7.952488106E-1,9.057959428E-1
1.333207237E1,3.303514583E-1,5.187123477E-1,-4.964636922E-1,7.903611728E-1
1.334205837E1,4.526013887E-1,4.903478701E-1,-2.874795270E-1,7.265903448E-1
1.335204437E1,5.096824926E-1,4.308396966E-1,-3.335251808E-1,7.460818545E-1
1.336203037E1,5.087472305E-1,3.641924382E-1,-4.167930400E-1,7.517820926E-1
1.337201637E1,3.244731063E-1,3.600099614E-1,-3.495284253E-1,5.975450519E-1
1.338200237E1,1.797339074E-1,4.573304705E-1,-1.646219248E-1,5.182237112E-1
1.339198837E1,9.665783688E-2,4.548309686E-1,1.628595740E-1,4.926836594E-1
1.340197437E1,-4.841187581E-2,4.958381863E-1,4.519324672E-1,6.726382175E-1
1.341196037E1,-7.522311375E-2,5.873650184E-1,7.132568139E-1,9.270336910E-1
1.342194637E1,-3.432257116E-2,5.989651999E-1,1.032755694E0,1.194370827E0
1.343193237E1,1.560928836E-2,6.098068878E-1,1.280954795E0,1.418785847E0
1.344191837E1,1.026820770E-1,5.361861305E-1,1.448115581E0,1.547603926E0
1.345190437E1,1.553097953E-1,3.370189653E-1,1.543761996E0,1.587735499E0
1.346189037E1,1.118812090E-1,2.878786360E-1,1.621348116E0,1.650503325E0
1.347187637E1,6.160041690E-2,2.986586359E-1,1.746347553E0,1.772772227E0
1.348186237E1,4.285702094E-2,2.548162860E-1,1.966364245E0,1.983269121E0
1.349184837E1,6.327447474E-2,2.765211871E-1,2.249277096E0,2.267093973E0
1.350183437E1,6.247939959E-2,3.063086212E-1,2.571583225E0,2.590515186E0
1.351182037E1,1.013310778E-1,3.556401179E-1,2.916642623E0,2.939991849E0
1.352180637E1,2.171844466E-1,3.874270074E-1,3.290936930E0,3.320773200E0
1.353179237E1,2.446833171E-1,4.369080831E-1,3.601672588E0,3.636317372E0
1.354177837E1,2.174034248E-1,4.218245691E-1,3.864377462E0,3.893406399E0
1.355176437E1,2.444691628E-1,3.832150022E-1,4.051639221E0,4.077057675E0
1.356175037E1,4.444208416E-1,3.341031050E-1,4.307662482E0,4.343396232E0
1.357173637E1,8.041225451E-1,1.707393914E-1,4.700516437E0,4.771857058E0
1.358172237E1,1.124479065E0,1.295784741E-1,4.915720870E0,5.044358772E0
1.359170837E1,1.470154760E0,1.086870944E-1,4.956665998E0,5.171238315E0
1.360169437E1,1.886480169E0,1.179736788E-1,4.976746505E0,5.323601318E0
1.361168038E1,2.441891397E0,2.256536086E-1,4.857804784E0,5.441692794E0
1.362166637E1,3.502174612E0,3.233296832E-1,4.533727534E0,5.737983483E0
1.363165237E1,5.090572498E0,1.676978526E-1,4.058662312E0,6.512663871E0
1.364163838E1,6.156026407E0,-9.162835434E-2,3.444163216E0,7.054595462E0
1.365162437E1,6.162015710E0,-5.781374542E-1,3.090124834E0,6.917626183E0
1.366161037E1,5.246572119E0,-1.110499542E0,2.848865792E0,6.072541851E0
1.367159638E1,3.846400198E0,-1.238173350E0,2.556045418E0,4.781342479E0
1.368158237E1,2.219349000E0,-1.253748286E0,2.438077843E0,3.527267826E0
1.369156837E1,1.011206219E0,-1.226454653E0,2.597534337E0,3.045310110E0
1.370155438E1,5.909918270E-1,-6.096967775E-1,2.616267647E0,2.750610459E0
1.371154037E1,1.257037637E0,1.206982255E-1,2.929074388E0,3.189700371E0
1.372152637E1,2.481809753E0,5.053964835E-1,3.715595645E0,4.496716163E0
1.373151238E1,3.420316809E0,6.365153244E-1,4.419572343E0,5.624618967E0
1.374149837E1,4.000599753E0,1.751322949E-1,4.824273925E0,6.269696054E0
1.375148437E1,3.752889186E0,-1.097114535E0,4.924018069E0,6.287590277E0
1.376147038E1,2.681814934E0,-2.770628000E0,4.254001999E0,5.741519300E0
1.377145637E1,1.150329167E0,-4.388539123E0,3.244701242E0,5.577689394E0
1.378144237E1,-3.619414794E-1,-5.565660524E0,1.946997097E0,5.907484778E0
1.379142837E1,-1.421354045E0,-6.429990095E0,3.937579340E-1,6.596973947E0
1.380141437E1,-2.258326247E0,-6.688774411E0,-9.250400412E-1,7.120073008E0
1.381140037E1,-2.858781500E0,-5.865193502E0,-1.712386632E0,6.745768634E0
1.382138637E1,-2.822673190E0,-4.901848351E0,-2.000165244E0,5.999688508E0
1.383137237E1,-2.413444692E0,-4.273493693E0,-1.969399534E0,5.288288774E0
1.384135837E1,-1.968019592E0,-3.725518954E0,-1.714085541E0,4.548701115E0
1.385134437E1,-1.527548252E0,-3.210592679E0,-1.513609074E0,3.864236204E0
1.386133037E1,-1.238704569E0,-2.989545708E0,-1.351178686E0,3.506772931E0
1.387131637E1,-1.077897953E0,-3.061129076E0,-1.214665496E0,3.465225459E0
1.388130237E1,-1.382743710E0,-3.324074855E0,-1.315235267E0,3.832922856E0
1.389128837E1,-2.114714538E0,-3.851944528E0,-1.572886392E0,4.667276060E0
1.390127437E1,-2.785786030E0,-3.890422130E0,-1.909402424E0,5.151874006E0
1.391126037E1,-3.310449089E0,-3.845205027E0,-2.475796477E0,5.645727859E0
1.392124637E1,-3.508488436E0,-4.233525635E0,-3.100649822E0,6.312389383E0
1.393123237E1,-3.249756160E0,-4.456841910E0,-3.817868124E0,6.708239108E0
1.394121837E1,-3.340439458E0,-4.640814611E0,-4.724822727E0,7.417522890E0
1.395120437E1,-4.113797463E0,-4.920082308E0,-5.458016793E0,8.421430210E0
1.396119037E1,-5.003805665E0,-5.197322776E0,-6.116384039E0,9.458350220E0
1.397117637E1,-5.870577618E0,-5.497929302E0,-6.813221287E0,1.054091516E1
1.398116237E1,-6.869475009E0,-5.855894675E0,-7.214791685E0,1.155570891E1
1.399114837E1,-7.874842930E0,-6.053404264E0,-7.086720121E0,1.220157598E1
1.400113437E1,-8.735333803E0,-6.104551029E0,-6.526414189E0,1.249662683E1
1.401112037E1,-9.396418251E0,-6.284927106E0,-5.954314424E0,1.277680887E1
1.402110637E1,-1.006579697E1,-6.495601702E0,-5.571512418E0,1.321192116E1
1.403109237E1,-1.130074178E1,-6.906996008E0,-5.234521592E0,1.424126311E1
1.404107837E1,-1.260448844E1,-7.407610638E0,-4.737591877E0,1.536849378E1
1.405106437E1,-1.329677539E1,-7.874251776E0,-4.152564502E0,1.600162081E1
1.406105037E1,-1.402562263E1,-8.779289078E0,-3.739861005E0,1.696409642E1
1.407103637E1,-1.455597678E1,-1.004967737E1,-3.086651295E0,1.795549753E1
1.408102237E1,-1.464269216E1,-1.115295575E1,-2.059563600E0,1.852130281E1
1.409100837E1,-1.474290057E1,-1.202010251E1,-8.400203562E-1,1.904052562E1
1.410099437E1,-1.536004612E1,-1.199814972E1,1.549995713E0,1.955221471E1
1.411098037E1,-1.596428803E1,-1.047771928E1,4.925708499E0,1.972064142E1
1.412096637E1,-1.627088561E1,-8.594882514E0,7.886702253E0,2.002033457E1
1.413095237E1,-1.671667733E1,-6.982806913E0,1.051280725E1,2.094578740E1
1.414093837E1,-1.619885026E1,-6.123984250E0,1.243415554E1,2.131933762E1
1.415092337E1,-1.489644495E1,-7.236498889E0,1.350679100E1,2.137064321E1
1.416091037E1,-1.221666602E1,-8.325542804E0,1.515018487E1,2.116812918E1
1.417089637E1,-7.748643644E0,-6.973281798E0,1.599150097E1,1.908916553E1
1.418088237E1,-3.413912061E0,-4.577797121E0,1.626393093E1,1.723735686E1
1.419086837E1,-6.577845713E-1,-2.748619373E0,1.682390825E1,1.705964472E1
1.420085337E1,5.610485645E-1,-1.761356625E0,1.731068662E1,1.740910750E1
1.421083937E1,1.366317127E0,-1.555379390E0,1.738997837E1,1.751277748E1
1.422082537E1,2.365736675E0,-1.282855141E0,1.680718755E1,1.702128023E1
1.423081137E1,3.504300660E0,-1.370323055E0,1.584659527E1,1.628718791E1
1.424079737E1,4.844576043E0,-2.095280147E0,1.474139433E1,1.565786776E1
1.425078337E1,6.044168587E0,-2.911278387E0,1.376565542E1,1.531341846E1
1.426076937E1,6.944348606E0,-3.602939095E0,1.258896642E1,1.482184952E1
1.427075537E1,7.222058020E0,-3.931811646E0,1.103788956E1,1.376416619E1
1.428074137E1,7.113174094E0,-4.117877357E0,9.706971475E0,1.271925528E1
1.429072737E1,6.985273268E0,-4.169500670E0,8.669191854E0,1.188838365E1
1.430071337E1,7.206145992E0,-3.835162726E0,7.953649948E0,1.139726111E1
1.431069937E1,7.507334901E0,-3.509780378E0,7.619241253E0,1.125750740E1
1.432068537E1,7.710644928E0,-3.141486191E0,7.437602761E0,1.116426959E1
1.433067137E1,7.688765817E0,-2.640426587E0,7.081207951E0,1.078111675E1
1.434065737E1,7.392942898E0,-2.240260836E0,6.217706931E0,9.916362880E0
1.435064337E1,6.930381947E0,-2.029794402E0,4.746805335E0,8.641899104E0
1.436062937E1,6.392689537E0,-1.925895519E0,3.231952558E0,7.417618917E0
1.437061537E1,5.725569009E0,-1.805707025E0,2.000244766E0,6.328008965E0
1.438060137E1,5.076853176E0,-1.615229297E0,1.044131452E0,5.428960706E0
1.439058737E1,4.713786985E0,-1.341015640E0,4.072457063E-1,4.917718958E0
1.440057337E1,4.507622347E0,-1.126627552E0,3.661701858E-2,4.646427625E0
1.441055937E1,4.388914514E0,-1.003046868E0,-2.502526438E-1,4.509024286E0
1.442054537E1,4.307286506E0,-9.329220148E-1,-5.675775290E-1,4.443557672E0
1.443053137E1,4.135438592E0,-8.701025265E-1,-8.984124058E-1,4.320425397E0
1.444051737E1,3.932461272E0,-8.105903696E-1,-1.222616540E0,4.197153751E0
1.445050337E1,3.701725757E0,-7.920574734E-1,-1.523904852E0,4.080737019E0
1.446048937E1,3.418838925E0,-7.730768998E-1,-1.834819434E0,3.956345517E0
1.447047537E1,3.022690650E0,-7.435161549E-1,-2.086004709E0,3.747117650E0
1.448046137E1,2.436122826E0,-6.950906843E-1,-2.176706133E0,3.340044173E0
1.449044737E1,1.876527185E0,-7.001135887E-1,-2.231655343E0,2.998632835E0
1.450043337E1,1.378633849E0,-6.615107826E-1,-2.249894562E0,2.720340667E0
1.451041937E1,8.573634902E-1,-6.288907014E-1,-2.219940446E0,2.461444952E0
1.452040512E1,3.614807189E-1,-6.497591948E-1,-1.975639098E0,2.110925192E0
1.453039112E1,-2.064154834E-2,-5.542544654E-1,-1.537651071E0,1.634623780E0
1.454037712E1,-1.391149083E-1,-3.013546774E-1,-1.026722537E0,1.079039743E0
1.455036312E1,1.910431534E-2,-1.148017836E-1,-5.451715833E-1,5.574553611E-1
1.456034912E1,1.237218207E-1,1.111800365E-1,-2.222585142E-2,1.678156069E-1
1.457033512E1,-4.343633384E-2,3.855497954E-1,5.680558312E-1,6.879119036E-1
1.458032112E1,-2.840938430E-1,5.525177327E-1,1.131063176E0,1.290460796E0
1.459030712E1,-4.243049580E-1,6.440124781E-1,1.491761538E0,1.679327024E0
1.460029312E1,-5.222396806E-1,6.756914500E-1,1.698304490E0,1.900929079E0
1.461027912E1,-6.487402444E-1,6.322205445E-1,1.833818976E0,2.045350522E0
1.462026512E1,-8.010479330E-1,5.402887562E-1,1.945577393E0,2.172293977E0
1.463025112E1,-9.221431844E-1,4.045801800E-1,1.991963355E0,2.232028490E0
1.464023712E1,-9.270142074E-1,4.044403584E-1,2.037458786E0,2.274679241E0
1.465022312E1,-7.690994775E-1,4.165378456E-1,2.197060291E0,2.364760391E0
1.466020912E1,-5.337842770E-1,4.293748594E-1,2.460152836E0,2.553750262E0
1.467019512E1,-3.217056191E-1,4.768908687E-1,2.760469340E0,2.819771335E0
1.468018113E1,-1.913277666E-1,4.640858319E-1,3.040264456E0,3.081426608E0
1.469016712E1,-2.829555362E-2,3.623023257E-1,3.210813119E0,3.231313123E0
1.470015312E1,1.359634052E-1,2.461849917E-1,3.276460394E0,3.288508143E0
1.471013913E1,1.781066273E-1,1.239485282E-1,3.297748936E0,3.304880218E0
1.472012512E1,1.821732196E-1,-6.430676412E-3,3.362122103E0,3.367060063E0
1.473011112E1,2.464347044E-1,-8.535063744E-2,3.474828939E0,3.484601979E0
1.474009713E1,3.916100324E-1,-1.107388458E-1,3.660679180E0,3.683231403E0
1.475008312E1,6.829264292E-1,-1.343289257E-1,3.919396253E0,3.980715986E0
1.476006912E1,9.801716103E-1,-2.973802518E-1,4.122715051E0,4.248052588E0
1.477005513E1,1.380109540E0,-4.022235328E-1,4.089975321E0,4.335249040E0
1.478004112E1,1.868776554E0,-4.065880407E-1,3.871732090E0,4.318327109E0
1.479002712E1,2.247154703E0,-4.091098718E-1,3.464147245E0,4.149384446E0
1.480001313E1,2.764281432E0,-3.797406232E-1,2.941192743E0,4.054142268E0
1.480999912E1,3.286254480E0,-3.180768371E-1,2.409569743E0,4.087379078E0
1.481998512E1,3.539993234E0,-3.139881715E-1,2.017102874E0,4.086421989E0
1.482997113E1,3.601776084E0,-4.727872927E-1,1.851943005E0,4.077500665E0
1.483995712E1,3.587263294E0,-5.121112798E-1,1.736340628E0,4.018158121E0
1.484994312E1,3.632179559E0,-5.445927089E-1,1.518649959E0,3.974368788E0
1.485992912E1,3.845967796E0,-6.980732028E-1,1.278749226E0,4.112660218E0
1.486991512E1,4.260003874E0,-8.068227893E-1,9.463630825E-1,4.437814677E0
1.487990112E1,5.078101557E0,-7.904640341E-1,5.565485108E-1,5.169303150E0
1.488988712E1,5.986912651E0,-8.382620984E-1,1.449706024E-1,6.047050762E0
1.489987312E1,6.655563980E0,-1.021326726E0,-3.442536521E-1,6.742265996E0
1.490985912E1,6.972132236E0,-1.138143862E0,-8.780225801E-1,7.118772578E0
1.491984512E1,6.856299478E0,-1.521149351E0,-1.511191251E0,7.183762029E0
1.492983112E1,6.421552563E0,-2.370266221E0,-2.201260931E0,7.190274609E0
1.493981712E1,5.702740309E0,-3.271338525E0,-2.901886005E0,7.186365226E0
1.494980312E1,4.704964998E0,-4.147797852E0,-3.570438516E0,7.217267756E0
1.495978912E1,3.453200088E0,-5.325336453E0,-4.332999637E0,7.684964869E0
1.496977512E1,2.385640597E0,-6.576589732E0,-5.182655035E0,8.706476140E0
1.497976112E1,1.766551437E0,-7.420566314E0,-5.852595676E0,9.614488262E0
1.498974712E1,1.763398619E0,-7.745031234E0,-6.407054976E0,1.020516717E1
1.499973312E1,1.590740281E0,-7.837195632E0,-6.676546714E0,1.041769485E1
1.500971912E1,1.232980730E0,-7.908534586E0,-6.422721421E0,1.026238331E1
1.501970512E1,6.208450788E-1,-7.762568203E0,-6.016589025E0,9.840846367E0
1.502969112E1,-7.606701314E-2,-7.428547179E0,-5.797134250E0,9.423155782E0
1.503967712E1,-7.980016798E-1,-7.205425031E0,-5.707166067E0,9.226413229E0
1.504966312E1,-1.668065030E0,-7.187357719E0,-5.539786010E0,9.226580134E0
1.505964912E1,-2.896924642E0,-7.095136018E0,-5.119950664E0,9.216670891E0
1.506963512E1,-4.419717354E0,-7.017499028E0,-4.594585939E0,9.481002797E0
1.507962112E1,-5.829452981E0,-7.127463520E0,-4.136145813E0,1.009410523E1
1.508960712E1,-7.228131523E0,-7.194699483E0,-4.018157772E0,1.096153173E1
1.509959312E1,-8.507209947E0,-7.050774947E0,-3.880076944E0,1.171072353E1
1.510957912E1,-9.484546900E0,-6.815466617E0,-4.115769144E0,1.238332632E1
1.511956512E1,-1.030897332E1,-6.433924686E0,-4.634734091E0,1.300580939E1
1.512955112E1,-1.110668790E1,-6.496920834E0,-4.537265099E0,1.364387302E1
1.513953712E1,-1.238901504E1,-6.869051671E0,-3.711123694E0,1.464390670E1
1.514952312E1,-1.403000570E1,-6.789343012E0,-1.672308939E0,1.567586858E1
1.515950912E1,-1.591013580E1,-5.777584670E0,7.624792600E-1,1.694385671E1
1.516949512E1,-1.779358594E1,-4.572886045E0,3.434929293E0,1.869015052E1
1.517948112E1,-1.862413731E1,-3.054085520E0,6.449896356E0,1.994460057E1
1.518946712E1,-1.812700353E1,-1.176915580E0,8.972668194E0,2.026035937E1
1.519945312E1,-1.652227963E1,-8.115482166E-2,1.065315212E1,1.965914445E1
1.520943912E1,-1.434340477E1,1.084874851E-1,1.187929688E1,1.862425097E1
1.521942512E1,-1.133349672E1,6.583829608E-1,1.242121916E1,1.682760534E1
1.522941112E1,-8.794364369E0,1.105990243E0,1.173257386E1,1.470433094E1
1.523939712E1,-7.639828715E0,2.837178670E-1,1.056675834E1,1.304238707E1
1.524938312E1,-6.985528207E0,-7.631040350E-1,9.188286610E0,1.156739136E1
1.525936912E1,-6.669965672E0,-1.895770372E0,7.762299816E0,1.040844301E1
1.526935512E1,-5.825894950E0,-2.929725768E0,6.747565241E0,9.383708314E0
1.527934112E1,-4.605278450E0,-3.197353705E0,6.255496316E0,8.400172289E0
1.528932612E1,-3.119474933E0,-3.451688291E0,6.666946755E0,8.129788124E0
1.529931212E1,-1.365851835E0,-3.666346886E0,7.397748724E0,8.368652037E0
1.530929812E1,1.063719332E0,-2.979969723E0,8.523527772E0,9.091877916E0
1.531928412E1,3.374973991E0,-2.350832853E0,1.012501757E1,1.092853354E1
1.532927012E1,5.468846421E0,-1.686554803E0,1.166153955E1,1.299015985E1
1.533925612E1,7.076209166E0,-8.179773033E-1,1.269996763E1,1.456128431E1
1.534924212E1,7.983087755E0,-3.951057172E-1,1.310697243E1,1.535182480E1
1.535922812E1,8.304967037E0,-6.373648518E-1,1.297640293E1,1.541965449E1
1.536921412E1,8.162626512E0,-1.128422135E0,1.218977233E1,1.471367927E1
1.537920012E1,7.666787302E0,-1.732701321E0,1.085679427E1,1.340342730E1
1.538918612E1,7.187765855E0,-2.364754051E0,9.469925353E0,1.212169649E1
1.539917212E1,6.924991983E0,-2.621975991E0,8.181024776E0,1.103446593E1
1.540915812E1,6.824540327E0,-2.668115492E0,6.915817702E0,1.007579900E1
1.541914412E1,6.838404075E0,-2.793696143E0,5.768637845E0,9.372603215E0
1.542913012E1,6.897025920E0,-2.904160572E0,4.655911537E0,8.813661408E0
1.543911612E1,6.869767370E0,-2.887753869E0,3.636319095E0,8.291902236E0
1.544910212E1,6.641613693E0,-2.668825344E0,2.644651201E0,7.630716948E0
1.545908812E1,6.198824517E0,-2.524688263E0,1.706660746E0,6.907399447E0
1.546907412E1,5.635311388E0,-2.316779254E0,8.955940479E-1,6.158432369E0
1.547906012E1,4.955300088E0,-1.964790613E0,2.293441701E-1,5.335541197E0
1.548904612E1,4.149693812E0,-1.653426233E0,-2.738426507E-1,4.475351030E0
1.549903212E1,3.292952465E0,-1.420869895E0,-5.606561798E-1,3.629978313E0
1.550901812E1,2.546515626E0,-1.166797119E0,-6.389544904E-1,2.873050677E0
1.551900412E1,1.992329829E0,-8.294104372E-1,-6.372938812E-1,2.250209615E0
1.552898954E1,1.732372562E0,-5.861562162E-1,-5.174856019E-1,1.900653874E0
1.553897554E1,1.568701394E0,-3.651253980E-1,-3.191199803E-1,1.641943416E0
1.554896154E1,1.403729513E0,-1.067759137E-1,-1.464359146E-1,1.415380203E0
1.555894754E1,1.209818885E0,1.281581215E-1,-2.905481458E-2,1.216934847E0
1.556893354E1,1.039011045E0,2.544628584E-1,-1.176810622E-2,1.069782121E0
1.557891954E1,9.330301152E-1,2.441678302E-1,-1.324137068E-1,9.734970544E-1
1.558890554E1,7.278267597E-1,2.366973179E-1,-3.932077110E-1,8.604473931E-1
1.559889154E1,3.646078098E-1,1.233525142E-1,-6.186383396E-1,7.286069537E-1
1.560887754E1,8.460277855E-2,-7.335677387E-2,-7.916071647E-1,7.994878046E-1
1.561886354E1,-4.557466060E-2,-1.829835523E-1,-1.045513149E0,1.062383064E0
1.562884954E1,5.360157207E-2,-8.487405282E-2,-1.239314434E0,1.243373234E0
1.563883554E1,2.931374390E-1,-4.446789231E-2,-1.341490434E0,1.373864454E0
1.564882154E1,5.132699056E-1,-1.561893627E-1,-1.271654799E0,1.380198189E0
1.565880754E1,6.127287050E-1,-1.972986509E-1,-1.191616357E0,1.354368032E0
1.566879354E1,6.118589316E-1,-2.328482968E-1,-1.190308920E0,1.358464208E0
1.567877954E1,6.293719272E-1,-2.748621858E-1,-1.027029516E0,1.235494990E0
1.568876554E1,5.877390209E-1,-1.473325852E-1,-7.409492272E-1,9.571571473E-1
1.569875154E1,4.983311467E-1,5.907283003E-2,-4.151178128E-1,6.512651760E-1
1.570873754E1,2.296784846E-1,1.706715454E-1,7.169212639E-2,2.949927859E-1
1.571872354E1,-9.714067072E-2,3.901624445E-1,6.676689970E-1,7.793875369E-1
1.572870954E1,-2.819572704E-1,6.335694972E-1,1.266620931E0,1.444035593E0
1.573869554E1,-4.102634543E-1,7.688187381E-1,1.824278659E0,2.021729700E0
1.574868154E1,-4.491660033E-1,1.004851831E0,2.438350323E0,2.675262529E0
1.575866754E1,-4.515237468E-1,1.232090491E0,2.990454950E0,3.265691577E0
1.576865354E1,-2.641459206E-1,1.165790960E0,3.369927551E0,3.575647260E0
1.577863954E1,-9.022502258E-2,1.023448242E0,3.666270288E0,3.807508986E0
1.578862554E1,2.203245476E-2,9.809408116E-1,3.829034552E0,3.952750423E0
1.579861154E1,2.509775524E-1,1.033836771E0,3.978199947E0,4.117995024E0
1.580859754E1,4.370626324E-1,1.212162303E0,4.349920895E0,4.536757981E0
1.581858354E1,6.124223839E-1,1.406633972E0,4.895210592E0,5.129987041E0
1.582856954E1,1.056572792E0,1.370496717E0,5.255004389E0,5.532601417E0
1.583855554E1,1.396404706E0,1.081440488E0,5.459466317E0,5.738051246E0
1.584854154E1,1.626153211E0,7.505498437E-1,5.592989826E0,5.872753573E0
1.585852754E1,1.898709913E0,5.000788794E-1,5.671476417E0,6.001734996E0
1.586851354E1,2.414441350E0,4.503410013E-1,5.608787248E0,6.122975457E0
1.587849954E1,3.155680015E0,2.973458263E-1,5.241345293E0,6.125229088E0
1.588848554E1,3.977648554E0,-1.433731431E-1,4.620793744E0,6.098686638E0
1.589847154E1,4.739779320E0,-3.206499043E-1,4.050502523E0,6.242987670E0
1.590845754E1,5.150420505E0,-5.650410068E-1,3.363378085E0,6.177249781E0
1.591844354E1,4.929829617E0,-1.149986228E0,2.893398771E0,5.830732786E0
1.592842954E1,4.136462440E0,-1.760071845E0,2.557141771E0,5.171764540E0
1.593841554E1,3.150687662E0,-2.747859527E0,1.865396279E0,4.577910878E0
1.594840154E1,2.239742334E0,-3.686551355E0,1.114092218E0,4.455144003E0
1.595838754E1,1.391549325E0,-3.977557046E0,3.875394201E-1,4.231732077E0
1.596837354E1,7.213288951E-1,-4.182572998E0,-6.383756161E-2,4.244797697E0
1.597835954E1,2.928262210E-1,-4.608308477E0,-7.760015309E-2,4.618254649E0
1.598834554E1,3.040710014E-1,-5.081204674E0,-3.731757349E-1,5.103955353E0
1.599833154E1,5.593276924E-1,-5.337331431E0,-9.630937207E-1,5.452293443E0
1.600831754E1,2.913410282E-1,-5.442509392E0,-1.409647334E0,5.629644188E0
1.601830354E1,-2.111324322E-1,-5.347940619E0,-1.811550147E0,5.650376952E0
1.602828954E1,-7.071786332E-1,-5.024007211E0,-2.638699320E0,5.718696020E0
1.603827554E1,-1.029417518E0,-4.623748635E0,-3.377223707E0,5.817593302E0
1.604826154E1,-1.067761804E0,-4.325656119E0,-3.881155755E0,5.908873507E0
1.605824754E1,-4.433300436E-1,-4.193002969E0,-4.487744738E0,6.157732395E0
1.606823354E1,6.310543174E-1,-4.228473056E0,-5.082222090E0,6.641324816E0
1.607821954E1,1.495933526E0,-4.497446145E0,-5.528507316E0,7.282117281E0
1.608820554E1,1.583663396E0,-4.843166864E0,-5.873470820E0,7.775725979E0
1.609819154E1,1.089325166E0,-5.006008896E0,-6.221307646E0,8.059244581E0
1.610817754E1,2.639672881E-1,-5.071377259E0,-6.606640912E0,8.332841662E0
1.611816354E1,-7.867949063E-1,-5.216029188E0,-6.774941320E0,8.586375056E0
1.612814954E1,-1.920811511E0,-5.372111839E0,-6.743115510E0,8.832820006E0
1.613813554E1,-2.704917283E0,-5.540277761E0,-6.607435548E0,9.037115674E0
1.614812154E1,-3.834515732E0,-5.594204877E0,-6.615165567E0,9.474125532E0
1.615810754E1,-5.097320770E0,-5.693181866E0,-6.696906719E0,1.016088374E1
1.616809354E1,-5.706757931E0,-6.013764235E0,-7.111816370E0,1.092292902E1
1.617807954E1,-6.260144268E0,-6.558977333E0,-7.514694207E0,1.177625658E1
1.618806554E1,-7.182603348E0,-7.417534533E0,-7.714943801E0,1.288914145E1
1.619805154E1,-8.380687310E0,-8.106478624E0,-7.771044912E0,1.401213954E1
1.620803754E1,-9.520822442E0,-8.690886778E0,-7.408964269E0,1.486843383E1
1.621802254E1,-1.074515923E1,-9.329361797E0,-6.523580629E0,1.565415417E1
1.622800854E1,-1.184856157E1,-1.007432572E1,-5.556547639E0,1.651531628E1
1.623799454E1,-1.246176258E1,-1.084105591E1,-4.655206363E0,1.716085564E1
1.624798054E1,-1.310148657E1,-1.169025172E1,-3.245491785E0,1.785620767E1
1.625796654E1,-1.461228313E1,-1.204017717E1,-1.051631091E0,1.896287458E1
1.626795254E1,-1.654545449E1,-1.084792756E1,1.874865845E0,1.987321611E1
1.627793854E1,-1.796258100E1,-8.778403809E0,4.832699763E0,2.056865762E1
1.628792454E1,-1.914690997E1,-6.661548021E0,8.603048151E0,2.202255255E1
1.629791054E1,-1.926627854E1,-3.956184595E0,1.305178991E1,2.360487461E1
1.630789654E1,-1.708469290E1,-1.137937748E0,1.662690620E1,2.386704095E1
1.631788254E1,-1.369822182E1,1.111618736E-1,1.852794594E1,2.304210101E1
1.632786854E1,-9.734111327E0,5.911076018E-1,1.946603112E1,2.177220014E1
1.633785454E1,-5.764866976E0,7.471648175E-1,1.867161203E1,1.955558852E1
1.634784054E1,-3.170668475E0,3.567802884E-2,1.678096630E1,1.707791678E1
1.635782654E1,-1.817499689E0,-6.716523396E-1,1.453723178E1,1.466579455E1
1.636781254E1,-1.102543017E0,-1.197044400E0,1.229305287E1,1.240030908E1
1.637779854E1,-6.944262944E-1,-2.343393733E0,1.025373818E1,1.054100890E1
1.638778454E1,-5.146899750E-1,-3.472934441E0,8.398580959E0,9.102875454E0
1.639777054E1,5.093940056E-1,-3.936695241E0,7.234592112E0,8.252052756E0
1.640775654E1,2.058889708E0,-3.623965098E0,7.285552350E0,8.393534590E0
1.641774254E1,3.773985063E0,-2.635511126E0,8.283887240E0,9.476901917E0
1.642772854E1,5.753245634E0,-1.858435754E0,9.697506588E0,1.142782800E1
1.643771454E1,7.170706603E0,-1.428960834E0,1.079205858E1,1.303570062E1
1.644770054E1,7.751670747E0,-9.573309242E-1,1.121905735E1,1.367011813E1
1.645768654E1,7.814347637E0,-5.070285145E-1,1.094671977E1,1.345926375E1
1.646767254E1,7.665431333E0,-4.387949431E-1,1.020964316E1,1.277451337E1
1.647765854E1,7.470827225E0,-5.766402016E-1,9.190338398E0,1.185782835E1
