"Time (s)","Linear Acceleration x (m/s^2)","Linear Acceleration y (m/s^2)","Linear Acceleration z (m/s^2)","Absolute acceleration (m/s^2)"
9.579583420E-4,8.907063603E-2,-2.809155889E-2,1.996794909E-2,9.550619286E-2
1.094395830E-2,7.691602886E-2,-1.152169633E-1,8.425253034E-3,1.387876400E-1
2.092895831E-2,2.251908928E-1,2.018964079E-2,-7.702800304E-2,2.388553392E-1
3.091495833E-2,6.374593574E-1,2.272442888E-1,-4.571759579E-1,8.167032849E-1
4.090095829E-2,1.464214720E0,2.834370910E-1,-8.029776603E-1,1.693822439E0
5.088595831E-2,3.954117604E0,-1.829711453E-1,-7.736720002E-1,4.033248422E0
6.087195833E-2,3.769153216E0,-3.641916708E-1,9.743382087E-1,3.910049423E0
7.085795834E-2,2.686528375E0,-7.161088664E-1,2.496597362E0,3.736742566E0
8.084295830E-2,2.092440155E0,-1.128533452E0,3.973587078E0,4.630473823E0
9.082895832E-2,2.123505827E0,-1.588855285E0,5.075672624E0,5.726795849E0
1.008149583E-1,2.751904339E0,-1.720179655E0,5.357872115E0,6.264087255E0
1.107999583E-1,3.376829605E0,-1.480419694E0,4.650883516E0,5.935093776E0
1.207859583E-1,3.981102505E0,-1.152092030E0,3.337739214E0,5.321371652E0
1.307719583E-1,4.256626815E0,-6.676597877E-1,2.230222775E0,4.851652817E0
1.407575000E-1,4.068800799E0,-4.509476134E-1,1.536642280E0,4.372615143E0
1.507435000E-1,3.572502583E0,-1.731025802E-1,1.157593163E0,3.759356480E0
1.607295000E-1,2.873178515E0,2.983228961E-1,1.013940231E0,3.061409172E0
1.707145000E-1,1.847607295E0,4.347710355E-1,8.370473394E-1,2.074446147E0
1.807005000E-1,8.121642208E-1,3.477816793E-1,7.665907297E-1,1.169711146E0
1.906865000E-1,-2.664488465E-1,4.887369256E-1,9.815206361E-1,1.128380046E0
2.006715000E-1,-1.170526620E0,4.833830322E-1,1.281322001E0,1.801548720E0
2.106575000E-1,-1.738726877E0,3.065426195E-1,1.491823518E0,2.311423142E0
2.206435000E-1,-1.652098038E0,1.720599485E-1,1.480202177E0,2.224866522E0
2.306285000E-1,-1.787437692E0,2.382313532E-1,1.260100701E0,2.199895783E0
2.406145000E-1,-2.366843553E0,4.767242230E-1,-4.086034298E-3,2.414380062E0
2.505995000E-1,-3.109190265E0,9.110719932E-1,-1.926172239E0,3.769251354E0
2.605855000E-1,-3.894506410E0,1.133455053E0,-4.140394692E0,5.796099442E0
2.705715000E-1,-4.168546112E0,1.165322963E0,-6.039770896E0,7.430584551E0
2.805565000E-1,-4.135294166E0,9.261428992E-1,-7.106241635E0,8.273878697E0
2.905425000E-1,-4.050615374E0,8.557022962E-1,-7.016675740E0,8.146990227E0
3.005285000E-1,-4.258016698E0,7.323097468E-1,-5.917370546E0,7.326817723E0
3.105135000E-1,-4.470266533E0,3.220750169E-1,-4.171825815E0,6.123001374E0
3.204995000E-1,-4.483551407E0,-1.556365085E-1,-2.106588662E0,4.956225553E0
3.304855000E-1,-4.573834171E0,-5.944336443E-1,-3.160712421E-1,4.623117066E0
3.404705000E-1,-4.435921742E0,-8.074583817E-1,1.021575817E0,4.623095056E0
3.504565000E-1,-4.242278332E0,-8.312606424E-1,1.737838100E0,4.659184582E0
3.604425000E-1,-4.185955612E0,-7.687197009E-1,1.762955984E0,4.606643916E0
3.704275000E-1,-3.891955270E0,-7.191299035E-1,1.333596693E0,4.176475043E0
3.804135000E-1,-3.595475124E0,-6.489098136E-1,5.139749336E-1,3.689538663E0
3.903995000E-1,-3.463707535E0,-4.820776413E-1,-2.432886100E-1,3.505546760E0
4.003845000E-1,-3.437604979E0,-3.895372675E-1,-7.235753953E-1,3.534462990E0
4.103705000E-1,-3.428332465E0,-3.873641498E-1,-6.838084817E-1,3.517258664E0
4.203565000E-1,-3.887893209E0,-5.880685115E-1,-1.578993809E-1,3.935285301E0
4.303415000E-1,-4.655268343E0,-7.140706001E-1,9.835192144E-1,4.811312733E0
4.403275000E-1,-5.665502316E0,-6.872783656E-1,2.415196518E0,6.197051095E0
4.503135000E-1,-6.099862146E0,-5.180855262E-1,3.736270230E0,7.171920667E0
4.602985000E-1,-5.941827695E0,-3.935880724E-1,5.104930336E0,7.843503150E0
4.702845000E-1,-5.665695859E0,-4.920260940E-1,6.377169272E0,8.544617439E0
4.802705000E-1,-5.237913562E0,-1.205638711E0,7.333919933E0,9.092617048E0
4.902555000E-1,-4.872015272E0,-2.151498202E0,7.987929835E0,9.600651039E0
5.002415000E-1,-4.808582337E0,-2.943297155E0,8.458817806E0,1.016548380E1
5.102265000E-1,-4.806410097E0,-3.378060443E0,8.776500540E0,1.056124198E1
5.202125000E-1,-4.431577846E0,-4.256410760E0,8.441343986E0,1.044089091E1
5.301985000E-1,-3.117955241E0,-5.041942960E0,7.429728901E0,9.504930575E0
5.401835000E-1,-1.140939708E0,-5.323134391E0,6.332754407E0,8.351124568E0
5.501695000E-1,5.844391447E-1,-4.494036049E0,6.359693114E0,7.809201344E0
5.601555000E-1,2.028590314E0,-3.952361686E0,6.887999573E0,8.196394310E0
5.701405000E-1,3.489594913E0,-4.521806231E0,7.380204154E0,9.332278264E0
5.801265000E-1,4.950220027E0,-5.439143150E0,8.133016212E0,1.096516800E1
5.901125000E-1,6.521908325E0,-6.640325552E0,8.247274899E0,1.243570484E1
6.000975000E-1,8.561043507E0,-6.588675342E0,7.556885961E0,1.318365026E1
6.100835000E-1,1.038006377E1,-5.355830852E0,6.543802055E0,1.338850228E1
6.200695000E-1,1.105579958E1,-5.095508133E0,5.434982271E0,1.333168931E1
6.300545000E-1,1.083362059E1,-5.454028991E0,5.000228339E0,1.311930070E1
6.400405000E-1,1.008711358E1,-5.790348557E0,5.053785911E0,1.268143323E1
6.500265000E-1,9.482960551E0,-6.363806046E0,4.561272597E0,1.229755162E1
6.600115000E-1,9.497904280E0,-6.951458820E0,3.033863217E0,1.215472301E1
6.699975000E-1,9.642600648E0,-6.243774403E0,1.525122388E0,1.158837626E1
6.799835000E-1,9.360099440E0,-5.584842315E0,5.703819998E-1,1.091454355E1
6.899685000E-1,8.536761775E0,-5.434471809E0,1.744762373E-1,1.012127598E1
6.999545000E-1,7.365292584E0,-5.715717620E0,2.167365499E-1,9.325445699E0
7.099405000E-1,6.602685855E0,-6.201680882E0,1.024563014E-1,9.059072996E0
7.199255000E-1,5.884971709E0,-6.431104574E0,-5.513246814E-1,8.734755690E0
7.299115000E-1,4.897884523E0,-6.200034306E0,-1.508628416E0,8.043982714E0
7.398975000E-1,3.749035286E0,-6.190067142E0,-2.637805281E0,7.702610824E0
7.498825000E-1,2.425075974E0,-6.167846553E0,-3.762927686E0,7.621217052E0
7.598685000E-1,1.177429258E0,-5.835691960E0,-4.943751837E0,7.738366916E0
7.698545000E-1,-3.627027869E-1,-5.377236339E0,-6.138421025E0,8.168625138E0
7.798395000E-1,-1.867612959E0,-4.735531026E0,-7.119055223E0,8.751810072E0
7.898255000E-1,-3.010668190E0,-3.982767207E0,-7.857471437E0,9.309479843E0
7.998105000E-1,-3.831540084E0,-3.234612456E0,-8.318984567E0,9.713337294E0
8.097965000E-1,-4.482267943E0,-2.395579402E0,-8.348596621E0,9.773872934E0
8.197825000E-1,-4.887074776E0,-1.766146225E0,-7.975250148E0,9.518791271E0
8.297675000E-1,-5.077134427E0,-1.290577412E0,-7.316452546E0,8.998519984E0
8.397535000E-1,-5.061038212E0,-9.616137904E-1,-6.377165764E0,8.197990732E0
8.497395000E-1,-4.721618453E0,-9.165930073E-1,-5.255601974E0,7.124266676E0
8.597245000E-1,-3.918357788E0,-8.426871251E-1,-4.318082221E0,5.891475486E0
8.697105000E-1,-2.936737749E0,-6.113863304E-1,-3.635326238E0,4.713153796E0
8.796965000E-1,-1.990975760E0,-4.282885929E-1,-3.139422709E0,3.742110439E0
8.896815000E-1,-1.243662423E0,-2.845888280E-1,-2.792087574E0,3.069762213E0
8.996675000E-1,-7.962726581E-1,-2.034646860E-1,-2.454718434E0,2.588646483E0
9.096535000E-1,-5.318416858E-1,-2.845578195E-1,-1.951528105E0,2.042618583E0
9.196385000E-1,-3.174652183E-1,-3.388267416E-1,-1.398628256E0,1.473685423E0
9.296245000E-1,-7.503322542E-2,-4.608616041E-1,-8.972166502E-1,1.011445065E0
9.396105000E-1,2.492592019E-1,-6.018398738E-1,-5.369907439E-1,8.442158743E-1
9.495955000E-1,7.152425283E-1,-4.726225474E-1,-3.779515944E-2,8.581214487E-1
9.595815000E-1,7.943945324E-1,-3.872805347E-1,6.726144259E-1,1.110612017E0
9.695675000E-1,5.297086215E-1,-5.345283352E-1,1.106656752E0,1.338282829E0
9.795525000E-1,2.203722024E-1,-6.935419030E-1,1.079517632E0,1.301891929E0
9.895385000E-1,-3.637143552E-2,-6.265796625E-1,8.082758224E-1,1.023344888E0
9.995245000E-1,-1.028215331E-1,-4.505274909E-1,3.461199372E-1,5.773614974E-1
1.009509500E0,-2.400773191E-1,-1.436541292E-1,-9.792799830E-2,2.964178147E-1
1.019495500E0,-5.828592271E-1,-1.022457377E-2,-3.979005401E-1,7.058004394E-1
1.029481500E0,-8.444975692E-1,-4.672210358E-2,-3.711192691E-1,9.236279615E-1
1.039466500E0,-1.117670129E0,4.194299150E-3,1.201833782E-1,1.124121058E0
1.049452500E0,-1.078532960E0,-7.356938868E-2,6.720979705E-1,1.272934202E0
1.059438500E0,-7.110301942E-1,-2.916052675E-1,9.238667974E-1,1.201718531E0
1.069423500E0,-3.636400956E-1,-2.613474614E-1,7.868296972E-1,9.053383827E-1
1.079409500E0,-2.328934300E-1,-1.842056387E-1,3.013514614E-1,4.230647354E-1
1.089395500E0,-2.319865268E-1,-2.313811573E-1,-3.093291101E-1,4.505990312E-1
1.099380500E0,-4.639672065E-1,-1.322758769E-1,-8.688871828E-1,9.938447629E-1
1.109366500E0,-8.777986318E-1,5.304882746E-2,-1.265563462E0,1.541102038E0
1.119351500E0,-1.351089808E0,1.259294735E-1,-1.414173371E0,1.959894953E0
1.129337500E0,-1.492199494E0,3.664314833E-2,-1.208949258E0,1.920822834E0
1.139324083E0,-1.114562334E0,4.307406228E-2,-5.899042448E-1,1.261781118E0
1.149309083E0,-7.734825504E-1,2.216747793E-1,3.120264307E-1,8.630037410E-1
1.159295083E0,-6.543467009E-1,1.430704035E-2,1.141347844E0,1.315693428E0
1.169281083E0,-7.233514470E-1,-2.953623777E-1,1.559958783E0,1.744691278E0
1.179266083E0,-5.107203734E-1,-4.022491875E-1,1.750493814E0,1.867315801E0
1.189252083E0,-1.464885396E-1,-4.180674407E-1,1.725256646E0,1.781221427E0
1.199238083E0,3.907664984E-1,-5.385452992E-1,1.449478567E0,1.594903637E0
1.209223083E0,1.070036371E0,-6.128020875E-1,8.137102246E-1,1.477372182E0
1.219209083E0,1.775026392E0,-2.263644290E-1,8.952087164E-2,1.791639900E0
1.229195083E0,2.033395556E0,1.102967598E-1,-5.674757874E-1,2.113975314E0
1.239180083E0,2.238127041E0,5.857535988E-2,-1.141199325E0,2.512962320E0
1.249166083E0,2.517799950E0,-1.232826948E-2,-1.333811578E0,2.849302003E0
1.259152083E0,2.839392133E0,-9.465151101E-2,-1.255265054E0,3.105929321E0
1.269137083E0,3.280813646E0,-2.397123067E-1,-1.218716447E0,3.508057860E0
1.279123083E0,3.554125954E0,-4.206926943E-1,-1.315360105E0,3.812999586E0
1.289109083E0,3.828167995E0,-7.710824145E-1,-1.551218365E0,4.201870619E0
1.299094083E0,4.328891968E0,-1.046618419E0,-1.887921508E0,4.837247503E0
1.309080083E0,4.865272847E0,-1.051272656E0,-2.224116527E0,5.451857335E0
1.319066083E0,4.984244390E0,-6.808796114E-1,-2.097985654E0,5.450489243E0
1.329051083E0,4.487433373E0,-8.277458811E-1,-1.725751905E0,4.878569582E0
1.339037083E0,3.675704185E0,-1.003257441E0,-1.342558136E0,4.039775872E0
1.349023083E0,2.658327253E0,-7.713558450E-1,-9.682883871E-1,2.932452221E0
1.359008083E0,1.718727061E0,-5.650565019E-1,-8.261419898E-1,1.988924872E0
1.368994083E0,8.534426397E-1,-7.613853921E-1,-9.935050893E-1,1.514966804E0
1.378980083E0,-7.864037275E-2,-1.567803116E0,-1.388314937E0,2.095616683E0
1.388965083E0,-9.477634907E-1,-1.681633348E0,-1.716475883E0,2.583105845E0
1.398951083E0,-1.994011050E0,-9.177769223E-1,-1.271076509E0,2.536538988E0
1.408937083E0,-3.311461242E0,-6.123553602E-1,-5.830095005E-1,3.417697283E0
1.418922083E0,-4.674808568E0,-7.850872269E-1,-2.263913262E-1,4.745676995E0
1.428908083E0,-5.689222716E0,-6.126744720E-1,1.824290353E-1,5.725024496E0
1.438893083E0,-6.036733852E0,-3.055297355E-1,4.439878553E-1,6.060744941E0
1.448879083E0,-5.312289560E0,-6.481346190E-3,7.875737554E-1,5.370357046E0
1.458865083E0,-4.141624654E0,1.285603917E-1,1.146067132E0,4.299192066E0
1.468850083E0,-3.383849479E0,6.031402946E-2,1.403821169E0,3.663985392E0
1.478836083E0,-3.301087989E0,-3.442859580E-1,1.241837507E0,3.543709233E0
1.488822083E0,-3.493832097E0,-7.923857215E-1,4.915181172E-1,3.616120562E0
1.498807083E0,-3.475710991E0,-6.858175850E-1,-1.195615268E-1,3.544743660E0
1.508793083E0,-3.459676172E0,-4.848177928E-1,-4.369285119E-1,3.520697947E0
1.518779083E0,-3.631743356E0,-4.563175866E-1,-3.204741955E-1,3.674301193E0
1.528764083E0,-4.027502792E0,-5.654839334E-1,6.246931314E-1,4.114704404E0
1.538750083E0,-4.355195960E0,-7.240849802E-1,2.127648579E0,4.900910057E0
1.548736083E0,-4.404408758E0,-9.784210271E-1,3.570619780E0,5.753733556E0
1.558721083E0,-4.210642557E0,-1.198399419E0,4.740288028E0,6.452596570E0
1.568707083E0,-3.953864420E0,-1.227060716E0,5.357731197E0,6.770820145E0
1.578693083E0,-3.663539930E0,-1.197324994E0,5.405421088E0,6.638801782E0
1.588678083E0,-3.424595509E0,-1.062692268E0,5.070003748E0,6.209839552E0
1.598664083E0,-3.080650005E0,-1.129070738E0,4.531377538E0,5.594514061E0
1.608650083E0,-2.751072280E0,-1.536899996E0,3.929192094E0,5.036765906E0
1.618635083E0,-2.816662252E0,-1.849530737E0,3.440042099E0,4.815416890E0
1.628621083E0,-3.014039986E0,-2.042975634E0,3.282026943E0,4.902028900E0
1.638607083E0,-2.937740254E0,-2.094794536E0,3.723716843E0,5.185031251E0
1.648592083E0,-2.971415538E0,-2.127780872E0,4.503527834E0,5.799872817E0
1.658578083E0,-2.807537087E0,-2.035999175E0,5.508922652E0,6.509668649E0
1.668564083E0,-2.695028180E0,-2.252598169E0,6.866815111E0,7.713010124E0
1.678549083E0,-2.617362830E0,-3.792388297E0,7.985614922E0,9.219698632E0
1.688535083E0,-2.306952570E0,-4.886601736E0,9.038290910E0,1.053050850E1
1.698521083E0,-2.106386641E0,-5.794052768E0,9.407356052E0,1.124750017E1
1.708506083E0,-1.167520566E0,-6.395935911E0,8.946342275E0,1.105930109E1
1.718492083E0,8.696651548E-1,-7.564301984E0,7.607802345E0,1.076353281E1
1.728478083E0,3.898653840E0,-7.784655476E0,6.174934548E0,1.067380810E1
1.738463083E0,7.597097263E0,-7.376646123E0,4.761799350E0,1.161057828E1
1.748449083E0,1.050509595E1,-7.139576027E0,3.520548903E0,1.318047235E1
1.758435083E0,1.205625467E1,-6.381044222E0,2.654255837E0,1.389662103E1
1.768420083E0,1.317440836E1,-6.387998900E0,1.987612442E0,1.477572905E1
1.778406083E0,1.323076617E1,-6.085759832E0,1.942009422E0,1.469221041E1
1.788392083E0,1.226192463E1,-6.309911674E0,2.287313234E0,1.397861162E1
1.798377083E0,1.075880663E1,-6.521907156E0,3.001106238E0,1.293421168E1
1.808363083E0,8.679073064E0,-6.985295488E0,3.991024645E0,1.183422748E1
1.818348083E0,6.354523591E0,-7.641843665E0,4.568107408E0,1.093825169E1
1.828334083E0,4.894087926E0,-8.367670239E0,4.031422473E0,1.049868416E1
1.838320083E0,5.016597619E0,-8.627875428E0,2.574100159E0,1.030691407E1
1.848305083E0,6.121487489E0,-8.085755507E0,8.411012140E-1,1.017641894E1
1.858291083E0,6.955205716E0,-7.478565431E0,-8.772810070E-1,1.025053410E1
1.868277083E0,6.743575101E0,-7.056998724E0,-2.219629667E0,1.001018441E1
1.878262083E0,6.348539550E0,-6.727994025E0,-3.530704347E0,9.901299471E0
1.888248083E0,5.740757151E0,-6.046247857E0,-4.678688196E0,9.560519288E0
1.898234083E0,5.606919647E0,-5.595240419E0,-5.455720006E0,9.618167396E0
1.908219083E0,5.097699670E0,-5.100133281E0,-6.179649743E0,9.496629526E0
1.918205083E0,3.629815237E0,-4.956795806E0,-6.843425664E0,9.196622104E0
1.928191083E0,2.021553774E0,-5.025581281E0,-7.357556133E0,9.136562763E0
1.938176083E0,6.095774943E-1,-4.820915869E0,-7.788341560E0,9.179928039E0
1.948162083E0,-3.737838453E-1,-4.275757150E0,-7.941291273E0,9.026955226E0
1.958148083E0,-1.427853810E0,-3.815975965E0,-7.915046046E0,8.902156647E0
1.968133083E0,-2.477857620E0,-3.307680140E0,-7.782176841E0,8.811515345E0
1.978119083E0,-3.416967816E0,-2.764561222E0,-7.336606729E0,8.552442113E0
1.988105083E0,-4.239061779E0,-2.224233179E0,-6.635575274E0,8.182158469E0
1.998090083E0,-4.707959358E0,-1.671637825E0,-5.952173758E0,7.770947611E0
2.008076083E0,-4.769329394E0,-1.225686986E0,-5.434669445E0,7.333787796E0
2.018062083E0,-4.638929468E0,-8.529956932E-1,-4.891742023E0,6.795322530E0
2.028047083E0,-4.387803835E0,-5.858833339E-1,-4.180964429E0,6.089051267E0
2.038033083E0,-3.841368084E0,-5.471177559E-1,-3.398007635E0,5.157703218E0
2.048019083E0,-3.053572134E0,-3.836608158E-1,-2.826068668E0,4.178296605E0
2.058004083E0,-2.417369928E0,-2.481019648E-1,-2.510476313E0,3.493955248E0
2.067990083E0,-1.893148334E0,-2.752371385E-1,-2.271546802E0,2.969796453E0
2.077976083E0,-1.428084775E0,-3.071015402E-1,-1.941591346E0,2.429714888E0
2.087961083E0,-9.893424565E-1,-2.517216837E-1,-1.469259698E0,1.789102110E0
2.097947083E0,-4.366513538E-1,-2.943334139E-1,-1.005138710E0,1.134724808E0
2.107933083E0,1.015585345E-1,-3.116313782E-1,-5.178095376E-1,6.128253985E-1
2.117918083E0,3.821997428E-1,-2.776806899E-1,-2.140781681E-2,4.729075000E-1
2.127904083E0,3.249876612E-1,-4.068532851E-1,3.729237199E-1,6.404831585E-1
2.137889583E0,7.663711667E-2,-5.453675381E-1,5.463334250E-1,7.757442946E-1
2.147874583E0,-2.879549056E-1,-5.652004896E-1,5.032850540E-1,8.097317251E-1
2.157860583E0,-6.162608618E-1,-4.491893922E-1,2.996499217E-1,8.193525708E-1
2.167846583E0,-6.454992789E-1,-3.176670934E-1,7.875616590E-2,7.237293935E-1
2.177831583E0,-4.146131980E-1,-2.179842726E-1,-1.184879780E-2,4.685740508E-1
2.187817583E0,-3.467252702E-1,-2.186576526E-1,7.650495132E-2,4.169923136E-1
2.197803583E0,-3.865278518E-1,-2.828340603E-1,2.483067087E-1,5.394952340E-1
2.207788583E0,-3.750328106E-1,-3.704024736E-1,3.576051843E-1,6.369686564E-1
2.217774583E0,-3.127295583E-1,-3.788527235E-1,2.543843047E-1,5.532093069E-1
2.227760583E0,-2.480862504E-1,-2.301612454E-1,-4.758230209E-2,3.417382946E-1
2.237745583E0,-3.048603755E-1,-9.434592091E-2,-2.998592885E-1,4.379002104E-1
2.247731583E0,-4.749272275E-1,7.185643315E-3,-3.897005510E-1,6.143891473E-1
2.257717583E0,-6.031677765E-1,-1.403412156E-2,-3.544663990E-1,6.997533502E-1
2.267702583E0,-4.940025991E-1,1.396534368E-3,-1.737172139E-1,5.236584656E-1
2.277688583E0,-2.536557233E-1,-4.039395444E-2,1.015298831E-1,2.761905406E-1
2.287674583E0,-6.106773555E-2,-1.100921803E-1,3.079202235E-1,3.326626227E-1
2.297659583E0,1.623806870E-1,-2.160803461E-1,3.548639731E-1,4.460791890E-1
2.307645583E0,3.484104377E-1,-2.853571339E-1,3.489559829E-1,5.697269565E-1
2.317631583E0,5.790602911E-1,-2.247289628E-1,2.715973564E-1,6.779225998E-1
2.327616583E0,9.021587169E-1,-1.070487776E-1,1.652657032E-1,9.233972839E-1
2.337602583E0,1.175863373E0,-1.143440562E-1,6.995736714E-2,1.183479307E0
2.347588583E0,1.594510565E0,-3.346251883E-1,-1.161140815E-1,1.633377005E0
2.357573583E0,2.188598201E0,-5.996670485E-1,-5.170119774E-1,2.327415742E0
2.367559583E0,2.837626274E0,-8.708661729E-1,-1.240548781E0,3.217062642E0
2.377545583E0,3.417172469E0,-1.037243432E0,-2.221311764E0,4.205611439E0
2.387530583E0,4.116549162E0,-6.931295282E-1,-2.536087117E0,4.884479851E0
2.397516583E0,4.604200516E0,1.983685452E-1,-1.333260917E0,4.797457362E0
2.407501583E0,4.714161499E0,2.348823604E-1,3.495208240E-1,4.732932830E0
2.417487583E0,5.026643136E0,-1.585419899E-1,1.963618977E0,5.398895837E0
2.427473583E0,5.394090353E0,-4.376471347E-1,2.898341715E0,6.139065927E0
2.437458583E0,5.530219381E0,-7.145639589E-1,3.274105720E0,6.466351082E0
2.447444583E0,4.947419211E0,-1.095967603E0,3.044405454E0,5.911557020E0
2.457430583E0,4.009963192E0,-8.531828041E-1,3.208575974E0,5.206023961E0
2.467415583E0,2.898254299E0,-7.262154132E-2,4.128313468E0,5.044613361E0
2.477401583E0,1.776382946E0,1.198623660E-1,4.849041561E0,5.165569419E0
2.487387583E0,1.214924528E0,-4.409078345E-2,5.334178612E0,5.470963999E0
2.497372583E0,7.811102432E-1,-2.563151101E-1,5.305768746E0,5.369079309E0
2.507358583E0,1.449203163E-1,-3.513316336E-1,4.643380954E0,4.658907865E0
2.517344583E0,-5.587827319E-1,-3.691483555E-1,3.465522510E0,3.529639489E0
2.527329583E0,-1.140057364E0,-6.664267561E-1,2.166781070E0,2.537478200E0
2.537315583E0,-1.786473486E0,-7.337316435E-1,8.716029221E-1,2.118853769E0
2.547301583E0,-2.579371716E0,-2.584999222E-2,-1.770104206E-1,2.585567512E0
2.557286583E0,-3.383322353E0,5.498775321E-1,-1.016123289E0,3.575156218E0
2.567272583E0,-3.802565376E0,6.227376764E-1,-1.756406518E0,4.234651049E0
2.577258583E0,-3.535382119E0,4.974952507E-1,-2.200118970E0,4.193679975E0
2.587243583E0,-3.190294070E0,2.565148108E-1,-2.310441311E0,3.947393463E0
2.597229583E0,-3.138057384E0,-2.009577105E-1,-2.349124736E0,3.925070085E0
2.607215583E0,-3.129316381E0,-3.753617164E-1,-2.240401023E0,3.866899815E0
2.617200583E0,-3.257644638E0,-3.624465692E-1,-2.057866738E0,3.870197878E0
2.627186583E0,-3.257869464E0,-6.428970487E-1,-2.106126148E0,3.932276365E0
2.637172583E0,-3.199710426E0,-7.871002771E-1,-2.472275283E0,4.119443983E0
2.647157583E0,-3.097992555E0,-3.827941488E-1,-2.737413769E0,4.151809650E0
2.657143583E0,-2.809383638E0,-1.308404951E-1,-2.736973473E0,3.924382684E0
2.667129583E0,-2.650782006E0,-2.361828908E-1,-2.511546353E0,3.659274885E0
2.677114583E0,-2.774775138E0,-5.771019854E-1,-2.133824408E0,3.547623200E0
2.687100583E0,-2.937089167E0,-6.544423760E-1,-1.568633713E0,3.393434738E0
2.697086583E0,-2.914063416E0,-7.182489473E-1,-1.167806495E0,3.220468778E0
2.707071583E0,-2.793416061E0,-5.418131619E-1,-1.049153041E0,3.032730931E0
2.717057583E0,-2.821356981E0,-2.771679622E-1,-1.023307178E0,3.013973271E0
2.727043583E0,-3.026852113E0,-5.690364093E-3,-1.018615372E0,3.193656740E0
2.737028583E0,-3.367592173E0,1.329028264E-2,-1.097284981E0,3.541876340E0
2.747014583E0,-3.899380649E0,-3.229214014E-1,-1.089992334E0,4.061715274E0
2.757000583E0,-4.509960064E0,-3.608908810E-1,-9.575926602E-1,4.624604384E0
2.766985583E0,-5.063597538E0,-4.962046605E-1,-8.975733304E-1,5.166418196E0
2.776971583E0,-5.478096131E0,-8.228625789E-1,-7.394295359E-1,5.588684647E0
2.786957583E0,-5.533941718E0,-1.115401994E0,-2.062868446E-1,5.648998744E0
2.796942583E0,-5.258700414E0,-1.385570254E0,5.836269665E-1,5.469401741E0
2.806928583E0,-4.779662594E0,-1.845870087E0,1.709715917E0,5.401438642E0
2.816914583E0,-4.460546414E0,-2.258621532E0,3.191502689E0,5.931571036E0
2.826899583E0,-4.371271710E0,-2.466015254E0,4.525880570E0,6.758168578E0
2.836885583E0,-4.065209439E0,-2.507282563E0,5.255828261E0,7.101839505E0
2.846871583E0,-3.174995415E0,-2.374066326E0,5.588485715E0,6.851858098E0
2.856856583E0,-2.329114687E0,-1.805443023E0,5.984795959E0,6.670995608E0
2.866842583E0,-2.517880349E0,-1.000837205E0,6.611549649E0,7.145207158E0
2.876828583E0,-3.404675800E0,-6.129402280E-1,7.026234183E0,7.831697123E0
2.886813583E0,-4.052111969E0,-5.187518165E-1,7.715461864E0,8.730238636E0
2.896799583E0,-3.890932300E0,-5.409241658E-1,8.797215471E0,9.634466937E0
2.906785583E0,-3.034502610E0,-1.147254409E0,9.969655885E0,1.048419941E1
2.916770583E0,-2.204949355E0,-2.834670507E0,1.063058187E1,1.122080342E1
2.926756583E0,-1.408377027E0,-5.079592012E0,1.077666871E1,1.199676495E1
2.936742583E0,-4.940692574E-2,-7.935817695E0,1.018161628E1,1.290910352E1
2.946727583E0,1.164481768E0,-8.485893922E0,9.437923542E0,1.274522712E1
2.956713583E0,1.933783559E0,-7.603592935E0,8.594324690E0,1.163686217E1
2.966699583E0,2.551972833E0,-6.602329175E0,8.188343151E0,1.082369066E1
2.976684583E0,3.804020748E0,-7.922758523E0,7.600298029E0,1.161917409E1
2.986670583E0,5.921095807E0,-8.981933692E0,6.976617050E0,1.282215637E1
2.996656583E0,8.040967589E0,-8.280984682E0,6.333737324E0,1.316617240E1
3.006641583E0,9.731680639E0,-7.657311305E0,5.487520673E0,1.354447886E1
3.016627583E0,1.081154618E1,-7.105639372E0,5.195110189E0,1.394162155E1
3.026613583E0,1.066123532E1,-6.988064729E0,5.570227200E0,1.391123352E1
3.036598583E0,9.371986245E0,-7.467266856E0,6.018523868E0,1.340957979E1
3.046584583E0,8.281457722E0,-8.734933854E0,5.746427196E0,1.333802973E1
3.056570583E0,8.441805916E0,-1.021694048E1,4.653303386E0,1.404646548E1
3.066555583E0,8.993590116E0,-9.916843833E0,3.348022420E0,1.379991699E1
3.076541583E0,9.901463317E0,-9.959183521E0,1.227447802E0,1.409719619E1
3.086527583E0,1.096342644E1,-9.816195710E0,-1.317730274E0,1.477466854E1
3.096512583E0,1.099634392E1,-8.973982063E0,-3.508605672E0,1.462061037E1
3.106498583E0,1.022115515E1,-8.315654578E0,-5.287668689E0,1.419794224E1
3.116484583E0,8.491658692E0,-7.953824195E0,-6.429258024E0,1.329311647E1
3.126469583E0,6.666533942E0,-7.534870609E0,-6.848912691E0,1.217064316E1
3.136455583E0,4.876875477E0,-7.080753622E0,-7.119134746E0,1.116257434E1
3.146441958E0,3.087035750E0,-6.602351979E0,-7.293458955E0,1.031093521E1
3.156426958E0,1.113196424E0,-6.033353577E0,-7.293227406E0,9.530568065E0
3.166412958E0,-9.344552279E-1,-5.524938176E0,-7.079459049E0,9.028670380E0
3.176398958E0,-2.776027611E0,-5.066313570E0,-6.990040503E0,9.068325575E0
3.186383958E0,-3.817371696E0,-4.476990539E0,-7.128979118E0,9.243273998E0
3.196369958E0,-3.955937843E0,-3.801870435E0,-7.249241141E0,9.091488335E0
3.206355958E0,-3.778515778E0,-2.980535733E0,-7.360745789E0,8.794393289E0
3.216340958E0,-3.550898291E0,-2.379985463E0,-7.333597752E0,8.488513737E0
3.226326958E0,-3.360301280E0,-1.995542582E0,-6.851545692E0,7.887806619E0
3.236312958E0,-3.355756239E0,-1.727327876E0,-5.967236770E0,7.060642761E0
3.246297958E0,-3.214662341E0,-1.352222853E0,-5.317417569E0,6.359047901E0
3.256283958E0,-2.975384336E0,-9.551144640E-1,-5.033849829E0,5.924930353E0
3.266269958E0,-2.767203578E0,-7.098772694E-1,-4.819749935E0,5.602796696E0
3.276254958E0,-2.418474467E0,-5.362532638E-1,-4.410230831E0,5.058331968E0
3.286240958E0,-1.951835668E0,-4.358556940E-1,-3.802215713E0,4.296100207E0
3.296226958E0,-1.505582601E0,-4.059474783E-1,-3.025729448E0,3.403911135E0
3.306211958E0,-1.002710361E0,-4.605784526E-1,-2.132802315E0,2.401334273E0
3.316197958E0,-5.861295748E-1,-5.414533389E-1,-1.270805783E0,1.500555542E0
3.326183958E0,-1.993666649E-1,-5.948360789E-1,-5.807682627E-1,8.549086517E-1
3.336168958E0,1.157965046E-1,-7.091545536E-1,-3.681761462E-2,7.194890882E-1
3.346154958E0,1.636711675E-1,-7.729709190E-1,2.887097446E-1,8.412048558E-1
3.356140958E0,2.344943976E-1,-7.828603148E-1,1.803199081E-1,8.368830052E-1
3.366125958E0,4.827391076E-1,-6.326720957E-1,-1.088184375E-1,8.032138439E-1
3.376111958E0,6.819449741E-1,-4.608556107E-1,-3.923423596E-1,9.117945869E-1
3.386097958E0,9.874029350E-1,-4.566412300E-1,-5.757963753E-1,1.230864426E0
3.396082958E0,1.382641384E0,-4.752070168E-1,-5.264365196E-1,1.553915800E0
3.406068958E0,1.736838811E0,-5.158966210E-1,-5.103870821E-1,1.882353142E0
3.416054958E0,1.823959401E0,-4.537182069E-1,-4.210170686E-1,1.926121356E0
3.426039958E0,1.614234978E0,-4.975889888E-1,-2.018412066E-1,1.701202292E0
3.436025958E0,1.183875228E0,-6.362656483E-1,6.360370953E-2,1.345525906E0
3.446011958E0,6.449344379E-1,-6.900392747E-1,3.028238269E-1,9.918653638E-1
3.455996958E0,1.554792184E-1,-8.409136645E-1,4.862673541E-1,9.837507399E-1
3.465982958E0,-2.646028805E-1,-8.363809030E-1,6.338755258E-1,1.082287338E0
3.475968958E0,-6.396520633E-1,-7.841189280E-1,5.777960499E-1,1.165266292E0
3.485953958E0,-7.244372749E-1,-6.917389141E-1,4.141628893E-1,1.083901743E0
3.495939958E0,-6.228442419E-1,-4.726225474E-1,4.298032410E-1,8.922095314E-1
3.505925958E0,-6.403695166E-1,-3.373268943E-1,5.895314848E-1,9.334933974E-1
3.515910958E0,-6.598454225E-1,-4.827241972E-1,7.498552676E-1,1.109369891E0
3.525896958E0,-6.484936380E-1,-4.470727001E-1,9.225061503E-1,1.213027450E0
3.535882958E0,-5.366638845E-1,-2.401074323E-1,1.092595514E0,1.240735532E0
3.545867958E0,-6.297924882E-1,-7.136833683E-2,1.161232763E0,1.322948807E0
3.555853958E0,-8.514282739E-1,-1.821154784E-1,9.710215218E-1,1.304215837E0
3.565839958E0,-8.642482942E-1,-1.718524455E-1,6.282086237E-1,1.082175795E0
3.575824958E0,-4.486884320E-1,1.463110766E-1,5.913686800E-1,7.566010546E-1
3.585810958E0,-1.167168564E-1,4.579713254E-1,7.195010555E-1,8.608381545E-1
3.595796958E0,-5.879550755E-2,5.459286515E-1,7.579029366E-1,9.359016325E-1
3.605781958E0,-1.400782371E-1,3.846412477E-1,8.822068477E-1,9.725531985E-1
3.615767958E0,-1.423773623E-1,9.050071880E-2,1.131395006E0,1.143903996E0
3.625753958E0,7.087819397E-2,-4.419267118E-2,1.286857560E0,1.289565465E0
3.635738958E0,4.446357268E-1,-1.462765780E-1,1.356913635E0,1.435378828E0
3.645724958E0,9.542784584E-1,-4.301564129E-1,1.249849362E0,1.630277689E0
3.655710958E0,1.518980911E0,-4.460700488E-1,7.161950397E-1,1.737589374E0
3.665695958E0,2.058545015E0,-2.443194741E-1,9.820807993E-2,2.075317906E0
3.675681958E0,2.327975357E0,-2.577480434E-1,-5.315645278E-1,2.401762720E0
3.685667958E0,2.463480486E0,-4.769288756E-1,-1.128049521E0,2.751125766E0
3.695652958E0,2.405110656E0,-5.606399538E-1,-1.860755344E0,3.092132739E0
3.705638958E0,2.302159315E0,-6.098800877E-1,-2.731698115E0,3.624095173E0
3.715624958E0,2.347656500E0,-6.597328636E-1,-3.579276583E0,4.331045988E0
3.725609958E0,2.695182838E0,-6.486292934E-1,-4.160078759E0,4.999098496E0
3.735595958E0,2.968503917E0,-9.327218208E-1,-4.462426586E0,5.440150415E0
3.745581958E0,2.943926316E0,-1.079047954E0,-4.390106469E0,5.394819872E0
3.755566958E0,3.074032127E0,-1.458349817E0,-3.915183334E0,5.187014386E0
3.765552958E0,2.813046334E0,-2.013702426E0,-3.233135449E0,4.735123226E0
3.775538958E0,1.871311907E0,-2.275324103E0,-2.589628317E0,3.922382292E0
3.785523958E0,1.730033237E-1,-2.282509162E0,-2.418869154E0,3.330271192E0
3.795509958E0,-1.491738734E0,-1.802243865E0,-2.529253476E0,3.445357825E0
3.805495958E0,-2.487341219E0,-1.538158025E0,-2.603700811E0,3.915616728E0
3.815480958E0,-2.636648117E0,-1.191070008E0,-2.134227281E0,3.595203352E0
3.825466958E0,-2.829344863E0,-1.035394688E0,-1.232849168E0,3.255326648E0
3.835452958E0,-3.218140265E0,-1.237904378E0,-7.195934415E-2,3.448769659E0
3.845437958E0,-3.104111373E0,-1.378495123E0,1.269089625E0,3.625788838E0
3.855423958E0,-2.921301684E0,-2.018989917E0,1.964166276E0,4.058111996E0
3.865409958E0,-2.921295837E0,-1.670557406E0,2.277971722E0,4.063728163E0
3.875394958E0,-2.860663719E0,-1.153829311E0,2.253942590E0,3.820337183E0
3.885380958E0,-2.693160871E0,-1.101017551E0,1.708755804E0,3.374196426E0
3.895366958E0,-2.462490845E0,-1.125555830E0,7.318644083E-1,2.804703656E0
3.905351958E0,-2.247037905E0,-1.196785734E0,-5.974819440E-1,2.615044954E0
3.915337958E0,-2.252287535E0,-4.877897863E-1,-1.276936004E0,2.634635378E0
3.925323958E0,-2.097186339E0,1.839650989E-2,-7.069236946E-1,2.213203579E0
3.935308958E0,-1.305687641E0,8.452998072E-2,1.116435782E0,1.719998368E0
3.945294958E0,-2.188168430E-1,-2.896456280E-1,3.206765091E0,3.227246156E0
3.955280958E0,2.184797511E-1,-8.248249045E-1,4.445632213E0,4.526777585E0
3.965265958E0,-9.374402314E-2,-1.030408329E0,4.487803502E0,4.605530321E0
3.975251958E0,-9.334135464E-1,-1.081151928E0,3.512201418E0,3.791531239E0
3.985237958E0,-1.643902581E0,-9.762654510E-1,2.412008032E0,3.077871451E0
3.995222958E0,-2.176303260E0,-6.763757935E-1,1.520125796E0,2.739445661E0
4.005208958E0,-2.686538900E0,-3.502669287E-1,8.693324482E-1,2.845332509E0
4.015194958E0,-3.252641176E0,-1.482245779E-1,5.384964019E-1,3.300245979E0
4.025179958E0,-4.008273054E0,-3.783879429E-2,1.003089260E0,4.132054297E0
4.035165958E0,-5.030156143E0,-4.390001804E-2,1.887237968E0,5.372714880E0
4.045151958E0,-5.671319711E0,1.332697392E-2,2.732502692E0,6.295285207E0
4.055136958E0,-5.920429224E0,1.745098588E-1,3.458124613E0,6.858612231E0
4.065122958E0,-6.015065825E0,3.394720915E-1,3.925851579E0,7.190867041E0
4.075108958E0,-5.991890386E0,5.473373920E-1,4.314729427E0,7.404000179E0
4.085093958E0,-5.770103742E0,7.174440050E-1,4.943509762E0,7.631979551E0
4.095079958E0,-5.836385440E0,6.746268913E-1,6.018327402E0,8.410635003E0
4.105065958E0,-6.492402690E0,3.598049068E-1,7.237934965E0,9.729771571E0
4.115050958E0,-7.095362890E0,-1.502006444E-1,8.377352643E0,1.097937940E1
4.125036958E0,-6.912403513E0,-1.585791782E0,9.088436047E0,1.152804093E1
4.135022958E0,-5.872209576E0,-3.753576234E0,9.258661943E0,1.158857199E1
4.145007083E0,-4.926028342E0,-4.970580032E0,9.260694435E0,1.160744944E1
4.154993083E0,-4.734285861E0,-5.009441797E0,8.811476830E0,1.118705027E1
4.164979083E0,-4.679578727E0,-4.975665940E0,7.699479670E0,1.029260394E1
4.174964083E0,-4.163511075E0,-6.074332618E0,6.984337714E0,1.014954750E1
4.184950083E0,-3.445340261E0,-8.332804461E0,7.724264848E0,1.187309004E1
4.194936083E0,-4.667943352E-1,-1.101762779E1,8.317662511E0,1.381265828E1
4.204921083E0,4.370091450E0,-1.098124641E1,6.925200144E0,1.369831629E1
4.214907083E0,8.330505921E0,-9.084395621E0,4.642494516E0,1.317104127E1
4.224893083E0,1.140676818E1,-6.828793591E0,3.498873274E0,1.374732324E1
4.234878083E0,1.377589507E1,-7.421227049E0,3.663844278E0,1.607089452E1
4.244864083E0,1.476490482E1,-8.066240425E0,4.826881784E0,1.750329788E1
4.254850083E0,1.453191666E1,-8.685089264E0,5.419337461E0,1.777573053E1
4.264835083E0,1.394091519E1,-9.241610878E0,4.370438774E0,1.728748747E1
4.274821083E0,1.267820663E1,-8.707081227E0,3.090056129E0,1.568753115E1
4.284807083E0,1.066884371E1,-8.832307536E0,2.423061608E0,1.406076492E1
4.294792083E0,8.810382231E0,-9.189297009E0,2.011658824E0,1.288847492E1
4.304778083E0,7.654815713E0,-9.469028975E0,1.804551469E0,1.230914779E1
4.314764083E0,7.312853000E0,-9.742987400E0,9.806305437E-1,1.222150804E1
4.324749083E0,7.834066787E0,-9.632487304E0,-9.066354914E-1,1.244907233E1
4.334735083E0,8.322571249E0,-9.028536000E0,-3.413116840E0,1.274476446E1
4.344721083E0,7.886772419E0,-8.398530089E0,-5.267726176E0,1.266828425E1
4.354706083E0,6.899070107E0,-7.999684492E0,-5.841813995E0,1.207140883E1
4.364692083E0,4.418441491E0,-7.996716446E0,-5.604707646E0,1.071834161E1
4.374678083E0,1.584850965E0,-7.996602425E0,-4.794813899E0,9.457676419E0
4.384663083E0,-1.016799227E0,-7.796517137E0,-4.228101758E0,8.927284280E0
4.394649083E0,-2.875622066E0,-7.300774992E0,-4.448563423E0,9.019990813E0
4.404635083E0,-4.112863662E0,-6.479682072E0,-5.392027456E0,9.379546223E0
4.414620083E0,-4.672280232E0,-5.516259738E0,-6.511798489E0,9.729483215E0
4.424606083E0,-4.625433510E0,-4.500639602E0,-7.362313428E0,9.790508209E0
4.434592083E0,-4.168454311E0,-3.804013731E0,-7.695652083E0,9.543038970E0
4.444577083E0,-3.764988245E0,-3.465934154E0,-7.558029091E0,9.127521010E0
4.454563083E0,-3.425079659E0,-2.946589723E0,-7.301899411E0,8.586693000E0
4.464549083E0,-3.060067806E0,-2.375726936E0,-6.982401116E0,7.985112322E0
4.474534083E0,-2.926822041E0,-1.962870826E0,-6.373044646E0,7.282502812E0
4.484520083E0,-2.813125856E0,-1.760369030E0,-5.759714409E0,6.647321737E0
4.494506083E0,-2.716377826E0,-1.588152449E0,-4.992595384E0,5.901435873E0
4.504491083E0,-2.720298384E0,-1.273043220E0,-4.057627355E0,5.048267236E0
4.514477083E0,-2.649122567E0,-1.081701420E0,-3.275231894E0,4.349146157E0
4.524463083E0,-2.702168507E0,-9.961176252E-1,-2.518967639E0,3.826115907E0
4.534448083E0,-2.502142276E0,-8.975788853E-1,-2.017121000E0,3.336935863E0
4.544434083E0,-1.980850722E0,-6.963973908E-1,-1.749086974E0,2.732772246E0
4.554420083E0,-1.444371024E0,-5.386237250E-1,-1.471458251E0,2.131082485E0
4.564405083E0,-1.007103374E0,-4.969022334E-1,-1.217635297E0,1.656443405E0
4.574391083E0,-5.828001702E-1,-4.892362413E-1,-1.013379775E0,1.267259526E0
4.584377083E0,-1.261127472E-2,-5.714926784E-1,-8.664486015E-1,1.038025098E0
4.594362083E0,4.731204379E-1,-5.708890995E-1,-7.657051688E-1,1.065861960E0
4.604348083E0,8.346064192E-1,-4.656886268E-1,-5.205951512E-1,1.088325817E0
4.614334083E0,9.438540423E-1,-4.918929237E-1,-2.685895121E-1,1.097706440E0
4.624319083E0,8.807169771E-1,-4.854886146E-1,-1.860256577E-1,1.022725346E0
4.634305083E0,8.279669058E-1,-5.135456018E-1,-1.149586352E-1,9.810574754E-1
4.644291083E0,7.021909583E-1,-5.810597464E-1,2.568564892E-2,9.117907234E-1
4.654276083E0,4.632690489E-1,-4.763776293E-1,2.618990549E-1,7.142443366E-1
4.664262083E0,2.121445853E-1,-4.343155374E-1,4.785349596E-1,6.801698454E-1
4.674248083E0,1.728571433E-1,-4.616460080E-1,7.436255709E-1,8.921746569E-1
4.684233083E0,3.416709369E-1,-7.313808435E-1,8.523429246E-1,1.173944389E0
4.694219083E0,5.639212650E-1,-8.437004475E-1,5.909769166E-1,1.174347203E0
4.704205083E0,1.044888666E0,-4.919921802E-1,6.105229890E-1,1.306364019E0
4.714190083E0,1.311700040E0,-1.452767041E-1,1.328923599E0,1.872885540E0
4.724176083E0,1.190936911E0,-6.060390517E-2,2.403897066E0,2.683416603E0
4.734162083E0,5.598744071E-1,-3.853777045E-1,3.441706509E0,3.508178875E0
4.744148083E0,-2.021166104E-1,-9.546960957E-1,4.111272343E0,4.225500684E0
4.754133083E0,-3.007047594E-1,-1.078048226E0,4.101317458E0,4.251284067E0
4.764119083E0,1.765461516E-1,-7.729355434E-1,3.060170425E0,3.161208776E0
4.774105083E0,8.437736839E-1,-4.802923402E-1,1.535585542E0,1.816771235E0
4.784090083E0,1.470443759E0,-1.196670690E-1,4.183112696E-1,1.533463196E0
4.794076083E0,2.023289813E0,3.771122266E-1,-5.706324068E-1,2.135775419E0
4.804062083E0,2.092191648E0,4.504254936E-1,-1.331273887E0,2.520404566E0
4.814047083E0,2.050376455E0,9.318868384E-2,-1.643759909E0,2.629576843E0
4.824033083E0,1.919612832E0,-2.970683759E-1,-1.734926187E0,2.604444647E0
4.834019083E0,1.574079224E0,-4.757885224E-1,-1.973867392E0,2.569095678E0
4.844004083E0,1.193925422E0,-6.155811229E-1,-2.606518876E0,2.932292394E0
4.853990083E0,8.171700221E-1,-6.747764339E-1,-3.403718026E0,3.564882393E0
4.863976083E0,6.902386647E-1,-7.784958069E-1,-4.040436541E0,4.172243111E0
4.873961083E0,8.781114578E-1,-8.490971352E-1,-4.331655947E0,4.500587619E0
4.883947083E0,9.540539253E-1,-8.568664768E-1,-4.383006780E0,4.566748020E0
4.893933083E0,7.966954118E-1,-1.028687713E0,-4.336843597E0,4.527817838E0
4.903918083E0,7.751302958E-1,-1.468973769E0,-4.459398898E0,4.758670974E0
4.913904083E0,6.361302853E-1,-1.699894933E0,-4.823436604E0,5.153624472E0
4.923890083E0,3.664233702E-1,-2.181955618E0,-5.754418001E0,6.165105266E0
4.933875083E0,1.515148062E-1,-2.278642106E0,-6.838598787E0,7.209826624E0
4.943861083E0,3.498915374E-2,-2.032739937E0,-7.120468495E0,7.405020424E0
4.953847083E0,-1.482924056E-1,-2.396387487E0,-6.545815251E0,6.972256516E0
4.963832083E0,-7.606473273E-1,-3.295820817E0,-5.340506469E0,6.321552702E0
4.973818083E0,-1.343683140E0,-3.918874682E0,-3.343251969E0,5.323569937E0
4.983804083E0,-2.051280434E0,-4.160492157E0,-7.486213589E-1,4.698710499E0
4.993789083E0,-3.110633358E0,-4.272369273E0,1.747533368E0,5.566242177E0
5.003775083E0,-4.038710443E0,-4.465812709E0,3.311137891E0,6.871557271E0
5.013761083E0,-4.738292373E0,-4.449360398E0,3.800356298E0,7.529337990E0
5.023746083E0,-5.459065783E0,-3.856565582E0,3.694066781E0,7.636794268E0
5.033732083E0,-5.828391711E0,-2.984291400E0,3.183235311E0,7.280737060E0
5.043718083E0,-5.527146084E0,-1.945587333E0,2.523395736E0,6.379826012E0
5.053703083E0,-5.207532014E0,-1.509257869E0,1.659999965E0,5.670260036E0
5.063689083E0,-4.860133145E0,-1.312430650E0,9.059541446E-1,5.115087615E0
5.073675083E0,-4.357528122E0,-1.020143250E0,4.263830584E-1,4.495614096E0
5.083660083E0,-3.766375789E0,-6.882114351E-1,1.731711388E-1,3.832650494E0
5.093646083E0,-2.881910747E0,-4.538611713E-1,4.715872979E-1,2.955299324E0
5.103632083E0,-2.233587263E0,-4.531098041E-1,1.315323560E0,2.631405826E0
5.113617083E0,-2.356697465E0,-7.430682582E-1,2.458681092E0,3.485869488E0
5.123603083E0,-2.636802483E0,-1.033391578E0,3.533514519E0,4.528393793E0
5.133589083E0,-2.620931970E0,-9.609799522E-1,4.458326519E0,5.260175112E0
5.143574500E0,-2.889686959E0,-6.402028710E-1,5.311717703E0,6.080665703E0
5.153560500E0,-3.367714380E0,-4.905995196E-1,5.747289661E0,6.679335781E0
5.163546500E0,-3.648407629E0,-4.765615243E-1,5.893721482E0,6.947945165E0
5.173531500E0,-3.662907554E0,-4.696612251E-1,5.951090854E0,7.003781533E0
5.183517500E0,-3.524475893E0,-5.155256152E-1,5.949800958E0,6.934538804E0
5.193503500E0,-3.717949734E0,-6.850033602E-1,5.761894836E0,6.891430325E0
5.203488500E0,-3.394489365E0,-1.089605394E0,5.217647697E0,6.319307356E0
5.213474500E0,-2.571506041E0,-1.541569144E0,4.870328935E0,5.719194233E0
5.223460500E0,-2.349038782E0,-1.671850225E0,5.026940174E0,5.795100852E0
5.233445500E0,-2.529445265E0,-2.084663358E0,5.242581394E0,6.182926034E0
5.243431500E0,-2.360545517E0,-2.823967763E0,5.390354567E0,6.527089047E0
5.253417500E0,-1.796137764E0,-3.232454833E0,5.725967789E0,6.816273339E0
5.263402500E0,-8.982510227E-1,-3.700453987E0,6.090348142E0,7.182795772E0
5.273388500E0,2.675551397E-1,-3.557283450E0,6.314719255E0,7.252691264E0
5.283374500E0,1.559008611E0,-3.326012038E0,6.509937320E0,7.474767410E0
5.293359500E0,2.583902723E0,-3.446845919E0,6.653090023E0,7.925964101E0
5.303345500E0,3.493019627E0,-4.133015799E0,6.784208572E0,8.678046534E0
5.313331500E0,4.387345414E0,-4.846721679E0,6.632089164E0,9.312578455E0
5.323316500E0,6.021891280E0,-5.484433928E0,6.078168392E0,1.016298780E1
5.333302500E0,8.360216208E0,-6.223616711E0,4.691139257E0,1.142949726E1
5.343288500E0,9.818635168E0,-5.430626680E0,3.223912051E0,1.167436986E1
5.353274500E0,1.053323509E1,-5.030706950E0,1.817908994E0,1.181362971E1
5.363259500E0,1.070262425E1,-4.759015198E0,1.355246886E0,1.179114437E1
5.373245500E0,1.014116992E1,-4.952194047E0,2.132739457E0,1.148547478E1
5.383231500E0,8.641366709E0,-5.577118143E0,3.622284316E0,1.090405471E1
5.393216500E0,7.108644841E0,-6.406895932E0,4.860412642E0,1.073334794E1
5.403202500E0,5.837160780E0,-7.234413772E0,4.809705588E0,1.046625322E1
5.413188500E0,5.242876679E0,-7.509753309E0,3.216269156E0,9.707138503E0
5.423173500E0,5.274889600E0,-7.350546491E0,6.151224820E-1,9.068261668E0
5.433159500E0,5.540912184E0,-6.790925853E0,-2.315456468E0,9.065303108E0
5.443145500E0,5.583089320E0,-5.836439234E0,-4.797187868E0,9.394036445E0
5.453130500E0,5.436772689E0,-4.869512663E0,-6.489313606E0,9.766362779E0
5.463116500E0,4.994764701E0,-4.479014845E0,-7.372250186E0,9.967914586E0
5.473102500E0,3.849440750E0,-4.411192698E0,-7.519811690E0,9.530182735E0
5.483087500E0,2.237162250E0,-4.517809951E0,-7.347081431E0,8.910393215E0
5.493073500E0,7.396154773E-1,-4.537738431E0,-7.278431026E0,8.608929047E0
5.503059500E0,-6.592256176E-1,-4.168123358E0,-7.123948174E0,8.280004126E0
5.513044500E0,-1.876617086E0,-3.757903174E0,-6.692112002E0,7.901132260E0
5.523030500E0,-2.843268837E0,-3.377227508E0,-6.056022062E0,7.494347639E0
5.533016500E0,-3.435018756E0,-2.954338160E0,-5.478172145E0,7.108996966E0
5.543001500E0,-3.734597341E0,-2.504974667E0,-5.046037765E0,6.759039319E0
5.552987500E0,-3.588368418E0,-2.141852343E0,-4.753739548E0,6.329451718E0
5.562973500E0,-3.139903350E0,-1.809570572E0,-4.577672868E0,5.838546702E0
5.572958500E0,-2.773576459E0,-1.480137858E0,-4.275561853E0,5.306973112E0
5.582944500E0,-2.395928189E0,-1.321648931E0,-3.838440968E0,4.713900386E0
5.592930500E0,-2.146000065E0,-1.293145217E0,-3.310604040E0,4.151823689E0
5.602915500E0,-2.046101555E0,-1.259052295E0,-2.738068072E0,3.642631058E0
5.612901500E0,-1.862569150E0,-1.141871389E0,-2.194541311E0,3.096618426E0
5.622887500E0,-1.605362413E0,-1.023612403E0,-1.785968286E0,2.610489140E0
5.632872500E0,-1.399827520E0,-1.094282143E0,-1.494571125E0,2.321790978E0
5.642858500E0,-1.097805383E0,-1.001577828E0,-1.401680503E0,2.042802741E0
5.652844500E0,-6.641051191E-1,-8.225168623E-1,-1.357922280E0,1.720907469E0
5.662829500E0,-4.757978779E-1,-7.584105480E-1,-1.204867902E0,1.501091883E0
5.672815500E0,-4.641221577E-1,-8.127345436E-1,-9.994750965E-1,1.369268887E0
5.682801500E0,-4.666575104E-1,-8.176853811E-1,-9.630294013E-1,1.346775498E0
5.692786500E0,-5.750122637E-1,-7.953461668E-1,-1.127399311E0,1.494738718E0
5.702772500E0,-6.303602529E-1,-7.859989540E-1,-1.563443724E0,1.859974377E0
5.712758500E0,-4.567032105E-1,-5.978675678E-1,-2.044358500E0,2.178399671E0
5.722743500E0,-3.500453192E-1,-3.921970928E-1,-2.214850445E0,2.276381510E0
5.732729500E0,-3.194287133E-1,-3.719723779E-1,-1.892161909E0,1.954654660E0
5.742715500E0,-4.239728361E-1,-4.957740862E-1,-1.331084145E0,1.482339337E0
5.752700500E0,-7.565332264E-1,-5.749782767E-1,-8.502143919E-1,1.275071392E0
5.762686500E0,-1.133738278E0,-5.577515023E-1,-4.170403773E-1,1.330553230E0
5.772672500E0,-1.544694627E0,-5.633128622E-1,-1.566363823E-1,1.651647004E0
5.782657500E0,-1.911694533E0,-5.148660493E-1,-1.166846967E-1,1.983249443E0
5.792643500E0,-1.963716041E0,-3.702462067E-1,-2.032842994E-1,2.008628251E0
5.802629500E0,-1.617220566E0,-3.028006938E-1,-2.081819272E-1,1.658442141E0
5.812614500E0,-1.259810094E0,-2.666923830E-1,-1.730612111E-1,1.299306155E0
5.822600500E0,-7.864896816E-1,-3.205286477E-1,-1.257817948E-1,8.585602443E-1
5.832586500E0,-1.734810412E-1,-4.240777937E-1,-6.758562684E-2,4.631473455E-1
5.842572500E0,5.885702026E-1,-5.035079791E-1,7.621026993E-2,7.782950428E-1
5.852557500E0,1.364263585E0,-6.145147370E-1,1.808731095E-1,1.507169059E0
5.862543500E0,1.785740245E0,-6.640446004E-1,3.455307205E-1,1.936288959E0
5.872529500E0,1.966687596E0,-6.207212640E-1,5.460913138E-1,2.133394176E0
5.882514500E0,2.093366354E0,-6.156265850E-1,8.148748438E-1,2.329205829E0
5.892500500E0,2.270698371E0,-7.003897235E-1,1.007010988E0,2.580830871E0
5.902486500E0,2.500785137E0,-6.902556217E-1,1.151307187E0,2.838289514E0
5.912471500E0,2.725744480E0,-6.953643340E-1,1.119744209E0,3.027712276E0
5.922457500E0,3.026355100E0,-7.544431391E-1,8.648327234E-1,3.236656497E0
5.932443500E0,3.418265898E0,-6.192382640E-1,6.480572896E-1,3.533833051E0
5.942428500E0,4.052481220E0,-3.273724481E-1,5.838655329E-1,4.107392813E0
5.952414500E0,4.766487647E0,5.110115647E-2,7.303628433E-1,4.822390041E0
5.962400500E0,5.380876815E0,4.013330019E-1,1.324292311E0,5.555956588E0
5.972385500E0,5.413290855E0,2.716082834E-1,2.086770402E0,5.807934198E0
5.982371500E0,4.721370531E0,-1.032708916E-1,2.568639736E0,5.375864085E0
5.992357500E0,3.782748578E0,-9.499152660E-1,2.319058645E0,4.537571907E0
6.002342500E0,3.262572087E0,-1.586959910E0,1.244993834E0,3.835730442E0
6.012328500E0,2.959529026E0,-1.508390288E0,-1.347052306E-1,3.324484745E0
6.022314500E0,2.451649230E0,-1.467449985E0,-1.830490156E0,3.393329871E0
6.032299500E0,1.970393561E0,-1.407399372E0,-3.441656515E0,4.208113989E0
6.042285500E0,1.328494413E0,-1.477690506E0,-4.713767397E0,5.115473556E0
6.052271500E0,5.990618616E-1,-1.480115931E0,-5.387254958E0,5.618908637E0
6.062256500E0,-5.471941352E-2,-1.556531584E0,-5.399272740E0,5.619424429E0
6.072242500E0,-1.094250276E0,-1.768771333E0,-4.736485584E0,5.173029227E0
6.082228500E0,-2.008845436E0,-2.309236054E0,-3.916715890E0,4.970784093E0
6.092213500E0,-2.913457645E0,-2.882653928E0,-3.420632266E0,5.338413080E0
6.102199500E0,-3.665566283E0,-3.148309307E0,-3.112280518E0,5.747566241E0
6.112185500E0,-3.630480650E0,-2.910582569E0,-2.417788589E0,5.243813717E0
6.122170500E0,-3.361426284E0,-2.781688886E0,-1.225367655E0,4.531942808E0
6.132156500E0,-3.250618039E0,-3.189005928E0,-4.737940371E-2,4.553956659E0
6.142142333E0,-3.510349020E0,-3.473248436E0,5.185568118E-1,4.965370692E0
6.152127333E0,-3.820832078E0,-3.251976932E0,7.522431242E-1,5.073458530E0
6.162113333E0,-3.949731023E0,-3.392272686E0,2.552344716E-1,5.212776013E0
6.172099333E0,-3.800287301E0,-2.913365843E0,-7.409503967E-1,4.845502203E0
6.182085333E0,-3.826125562E0,-1.750436511E0,-1.059351169E0,4.338835062E0
6.192070333E0,-4.002215046E0,-1.356016088E0,-6.673205030E-1,4.278062828E0
6.202056333E0,-4.041829348E0,-1.814193966E0,2.273584557E-1,4.436144282E0
6.212042333E0,-3.982906663E0,-2.532907109E0,9.132614100E-1,4.807620026E0
6.222027333E0,-3.859676301E0,-2.362605784E0,1.105971605E0,4.658559909E0
6.232013333E0,-3.832438801E0,-1.815695238E0,9.843904495E-1,4.353545787E0
6.241999333E0,-3.548106538E0,-1.499250652E0,1.425781556E0,4.107269843E0
6.251984333E0,-2.930979996E0,-1.297453884E0,2.313482448E0,3.953002827E0
6.261970333E0,-2.530691599E0,-1.320756208E0,2.974599055E0,4.122746229E0
6.271956333E0,-2.244978808E0,-1.263673934E0,3.429912967E0,4.289650874E0
6.281941333E0,-2.162379870E0,-1.142719308E0,3.750630991E0,4.477602814E0
6.291927333E0,-2.545185092E0,-1.158748573E0,3.493026643E0,4.474583840E0
6.301913333E0,-2.805219543E0,-1.166981745E0,3.002507815E0,4.271551973E0
6.311898333E0,-2.623898263E0,-9.778225645E-1,2.621746488E0,3.835952777E0
6.321884333E0,-1.780031608E0,-8.868024668E-1,2.422906072E0,3.134550203E0
6.331870333E0,-8.336711571E-1,-8.471039656E-1,2.481610363E0,2.751541881E0
6.341855333E0,-1.605060697E-1,-7.626409355E-1,2.927030202E0,3.029007956E0
6.351841333E0,-8.955127716E-2,-6.958645633E-1,3.539561124E0,3.608426232E0
6.361827333E0,-5.666954765E-1,-6.965846479E-1,4.162825196E0,4.258578114E0
6.371812333E0,-1.062946622E0,-6.488014939E-1,4.647308528E0,4.811265474E0
6.381798333E0,-1.410936353E0,-5.113471949E-1,5.068218008E0,5.285740357E0
6.391784333E0,-1.944499459E0,-3.150830626E-1,5.538078039E0,5.877981273E0
6.401769333E0,-2.365853620E0,-1.152456969E-2,5.903023818E0,6.359487900E0
6.411755333E0,-2.527344360E0,3.376685178E-1,6.374938560E0,6.865954499E0
6.421741333E0,-2.613279719E0,4.665598619E-1,7.047799884E0,7.531161411E0
6.431726333E0,-2.320378654E0,7.472624660E-2,7.619230143E0,7.965074330E0
6.441712333E0,-1.134574429E0,-1.403930804E0,7.655910897E0,7.865828151E0
6.451698333E0,4.947586441E-1,-2.980386921E0,6.929952761E0,7.559876823E0
6.461683333E0,1.794239758E0,-3.715271709E0,5.769200347E0,7.092687278E0
6.471669333E0,2.380011483E0,-3.402769607E0,4.703024892E0,6.273893432E0
6.481655333E0,2.140960350E0,-2.470091056E0,4.273653322E0,5.380443640E0
6.491640333E0,1.373988090E0,-1.628574543E0,5.002279542E0,5.437177478E0
6.501626333E0,1.622923940E-1,-1.847195797E0,6.828567889E0,7.075861117E0
6.511612333E0,-5.478396678E-1,-4.085263343E0,8.518117343E0,9.462971412E0
6.521597333E0,-2.000466961E-1,-6.633657972E0,9.205066364E0,1.134806960E1
6.531583333E0,1.287216579E0,-8.180079281E0,8.717873433E0,1.202380725E1
6.541569333E0,4.428962386E0,-8.029986518E0,7.058696170E0,1.157244931E1
6.551555333E0,8.162489102E0,-7.568351766E0,4.768596738E0,1.210973541E1
6.561540333E0,1.103938177E1,-6.432954633E0,2.926780233E0,1.310789448E1
6.571526333E0,1.215773895E1,-5.477927731E0,2.188478625E0,1.351324340E1
6.581512333E0,1.142121665E1,-6.005285772E0,2.118776014E0,1.307657672E1
6.591497333E0,1.022270584E1,-7.526174630E0,1.928374592E0,1.284000186E1
6.601483333E0,1.023179826E1,-8.448128511E0,6.324186189E-1,1.328384448E1
6.611469333E0,1.061010492E1,-7.527850442E0,-1.900536876E0,1.314742938E1
6.621454333E0,1.023858220E1,-6.300667811E0,-4.714087240E0,1.291315603E1
6.631440333E0,8.812977811E0,-5.358138163E0,-6.647234037E0,1.227044998E1
6.641426333E0,6.588005835E0,-4.997663750E0,-7.514249818E0,1.117329021E1
6.651411333E0,4.502962993E0,-4.958346487E0,-7.292572517E0,9.901691246E0
6.661397333E0,2.815039065E0,-5.208006223E0,-6.682176998E0,8.927444382E0
6.671383333E0,1.505900690E0,-5.126240514E0,-6.602992834E0,8.493856195E0
6.681368333E0,7.085948288E-1,-4.496750911E0,-7.163020438E0,8.487151300E0
6.691354333E0,3.383754462E-1,-3.669591214E0,-7.621397706E0,8.465583300E0
6.701340333E0,-7.019231558E-2,-3.207579316E0,-7.781930673E0,8.417359267E0
6.711325333E0,-5.393009788E-1,-3.006622209E0,-7.419529603E0,8.023717478E0
6.721311333E0,-1.119878622E0,-2.799243689E0,-6.382637004E0,7.058891448E0
6.731297333E0,-1.811574998E0,-2.644490110E0,-5.325928191E0,6.216159828E0
6.741282333E0,-2.279922938E0,-2.463874589E0,-4.705211166E0,5.779942795E0
6.751268333E0,-2.605768971E0,-1.989450368E0,-4.383057066E0,5.473493760E0
6.761254333E0,-2.655140521E0,-1.568694231E0,-4.019770727E0,5.066471106E0
6.771239333E0,-2.280164428E0,-1.404731726E0,-3.536596001E0,4.436206974E0
6.781225333E0,-2.025877206E0,-1.323485834E0,-3.010512654E0,3.862509501E0
6.791211333E0,-1.861941744E0,-1.214743703E0,-2.452391827E0,3.310083835E0
6.801196333E0,-1.814431363E0,-1.145912911E0,-2.045114545E0,2.964417493E0
6.811182333E0,-1.785607513E0,-1.059862289E0,-1.989654289E0,2.875834914E0
6.821168333E0,-1.448745911E0,-1.015867327E0,-2.106897980E0,2.751339717E0
6.831154333E0,-1.034975882E0,-9.225945894E-1,-2.186452857E0,2.589002115E0
6.841139333E0,-9.143478227E-1,-7.391190487E-1,-2.116112022E0,2.420797183E0
6.851125333E0,-9.536305869E-1,-7.318035972E-1,-1.877247416E0,2.229126659E0
6.861111333E0,-4.755903018E-1,-7.469607496E-1,-1.446543850E0,1.696061793E0
6.871096333E0,2.385014945E-1,-7.693372399E-1,-1.056290152E0,1.328349215E0
6.881082333E0,4.335575920E-1,-7.745734216E-1,-7.770890399E-1,1.179747239E0
6.891068333E0,3.042037332E-1,-7.824454549E-1,-4.969466722E-1,9.755597348E-1
6.901053333E0,9.977688789E-3,-7.761687613E-1,-4.784897167E-2,7.777062584E-1
6.911039333E0,-2.570909625E-1,-7.397447739E-1,5.131762040E-1,9.363054575E-1
6.921025333E0,-4.006921470E-1,-6.294387317E-1,8.637226295E-1,1.141386917E0
6.931010333E0,-4.919929111E-1,-5.195254031E-1,9.571178663E-1,1.195005556E0
6.940996333E0,-5.482507271E-1,-4.386148489E-1,8.813848022E-1,1.126854478E0
6.950982333E0,-4.379190302E-1,-4.115094960E-1,6.891107368E-1,9.143231102E-1
6.960967333E0,-2.768568903E-1,-4.008876633E-1,4.518693173E-1,6.644896810E-1
6.970953333E0,-1.780559027E-1,-3.556908059E-1,1.748563429E-1,4.345049994E-1
6.980939333E0,-1.480070615E-1,-3.889534596E-1,-2.425857747E-1,4.817039984E-1
6.990924333E0,-2.095033979E-1,-4.790014943E-1,-6.898533332E-1,8.655817273E-1
7.000910333E0,-1.494016224E-1,-4.692416143E-1,-1.223117062E0,1.318530957E0
7.010896333E0,7.356791317E-2,-3.026339933E-1,-1.636758453E0,1.666126587E0
7.020881333E0,1.987515378E-1,-1.336742203E-1,-1.810453502E0,1.826229135E0
7.030867333E0,2.260147655E-1,-1.672955093E-1,-1.871280917E0,1.892290340E0
7.040853333E0,2.937237686E-1,-2.661482996E-1,-1.899135883E0,1.940058162E0
7.050838333E0,5.705216020E-1,-1.465949589E-1,-1.823824915E0,1.916591323E0
7.060824333E0,9.185262430E-1,-9.090490758E-2,-1.611971959E0,1.857527324E0
7.070810333E0,1.225771113E0,-2.924189624E-1,-1.420188110E0,1.898672678E0
7.080795333E0,1.590771856E0,-4.806414921E-1,-1.351350009E0,2.141895933E0
7.090781333E0,2.044553797E0,-3.509164082E-1,-1.439096836E0,2.524745979E0
7.100767333E0,2.374484110E0,7.339183889E-2,-1.213871298E0,2.667778979E0
7.110752333E0,2.288854560E0,9.550608158E-2,-5.756022477E-1,2.362053039E0
7.120738333E0,1.953995045E0,-1.738844260E-1,2.724501362E-1,1.980545760E0
7.130724333E0,1.495205548E0,-2.795551611E-1,1.040234867E0,1.842791170E0
7.140710333E0,1.048226842E0,-3.133541872E-1,1.503115954E0,1.859120203E0
7.150695250E0,7.857541019E-1,-3.340735035E-1,1.889342089E0,2.073313325E0
7.160681250E0,5.695468712E-1,-2.726065493E-1,2.094452181E0,2.187562093E0
7.170667250E0,4.461507404E-1,-2.255386560E-1,1.733315571E0,1.803968137E0
7.180652250E0,5.687013638E-1,-5.561506078E-2,9.418718362E-1,1.101651865E0
7.190638250E0,8.194048280E-1,7.872866571E-2,1.157047033E-1,8.312701446E-1
7.200624250E0,1.346149496E0,-1.492348306E-1,-6.576269889E-1,1.505610426E0
7.210609250E0,2.054961256E0,-4.229817331E-1,-1.336448380E0,2.487543685E0
7.220595250E0,2.743433477E0,-6.063303892E-1,-1.978172112E0,3.436164823E0
7.230581250E0,3.496471238E0,-3.349590643E-1,-2.386525281E0,4.246529361E0
7.240566250E0,3.902162170E0,-1.895772564E-1,-2.607757024E0,4.697148692E0
7.250552250E0,4.638931223E0,-4.564785312E-1,-2.774044821E0,5.424332236E0
7.260538250E0,4.528376162E0,-4.718970542E-1,-2.078591024E0,5.004939374E0
7.270523250E0,3.814307755E0,-7.213537458E-1,-8.406424999E-1,3.971898121E0
7.280509250E0,3.559803600E0,-1.268565861E0,7.011758816E-1,3.843580184E0
7.290495250E0,2.590352787E0,-1.562285390E0,1.351536536E0,3.313203013E0
7.300480250E0,1.653021314E0,-1.699620991E0,1.315078561E0,2.711203164E0
7.310466250E0,7.738251972E-1,-1.498726449E0,8.583291578E-1,1.892542033E0
7.320452250E0,-4.349936682E-1,-1.316947039E0,1.304513812E-1,1.393049374E0
7.330437250E0,-1.734090620E0,-9.911555319E-1,-3.135224408E-1,2.021819944E0
7.340423250E0,-2.751433638E0,-7.196600267E-1,-1.775881255E-1,2.849532446E0
7.350409250E0,-3.488376353E0,-8.419940107E-1,2.100635612E-1,3.594697511E0
7.360395250E0,-4.273457440E0,-9.626866814E-1,4.220356536E-1,4.400831539E0
7.370380250E0,-4.979592345E0,-1.010520706E0,2.752588463E-1,5.088541977E0
7.380366250E0,-5.306049997E0,-7.997421035E-1,2.394434810E-2,5.366034600E0
7.390352250E0,-5.442692410E0,-8.917654373E-1,-6.374786532E-1,5.551983906E0
7.400337250E0,-5.340778365E0,-7.748589119E-1,-1.411036633E0,5.578112965E0
7.410323250E0,-5.341644337E0,-4.284459561E-1,-1.863894714E0,5.673696649E0
7.420309250E0,-5.536785219E0,-5.641034058E-1,-2.166762943E0,5.972358401E0
7.430294250E0,-5.617233551E0,-6.716510240E-1,-2.275728146E0,6.097816532E0
7.440280250E0,-5.520066276E0,-7.840998515E-1,-2.296766428E0,6.030014949E0
7.450266250E0,-5.227980897E0,-7.264987108E-1,-2.158248813E0,5.702422518E0
7.460251250E0,-4.711006342E0,-4.657661024E-1,-1.458015502E0,4.953415793E0
7.470237250E0,-4.160918419E0,-7.205004908E-1,-5.426327223E-1,4.257559550E0
7.480223250E0,-3.663933448E0,-1.053642387E0,4.049547672E-1,3.833869971E0
7.490208250E0,-3.237118865E0,-1.057492486E0,1.329298990E0,3.655716716E0
7.500194250E0,-2.823309367E0,-1.118108524E0,1.875433609E0,3.569102643E0
7.510180250E0,-2.580966836E0,-1.143321572E0,1.953690405E0,3.432998722E0
7.520165250E0,-2.517909586E0,-1.429644519E0,1.619669380E0,3.317692125E0
7.530151250E0,-2.440681023E0,-1.141197717E0,1.357562676E0,3.016990637E0
7.540137250E0,-2.242636414E0,-7.802906097E-1,1.446269031E0,2.780281573E0
7.550122250E0,-2.104437472E0,-7.954046389E-1,1.830099562E0,2.900101725E0
7.560108250E0,-2.205593133E0,-7.765821594E-1,2.300985779E0,3.280587824E0
7.570094250E0,-2.321511260E0,-8.162408996E-1,2.771810600E0,3.706561444E0
7.580079250E0,-2.593313524E0,-7.437944824E-1,3.380395821E0,4.324994934E0
7.590065250E0,-3.029390682E0,-4.321659547E-1,3.869743452E0,4.933446027E0
7.600051250E0,-3.118788177E0,1.400700510E-2,4.354274731E0,5.356000777E0
7.610037250E0,-3.303575687E0,1.046020103E-1,4.969535134E0,5.968319140E0
7.620022250E0,-4.029977334E0,-5.010800689E-2,5.486937121E0,6.808061919E0
7.630008250E0,-4.841537537E0,-8.326800540E-2,5.835249910E0,7.582714606E0
7.639994250E0,-4.843781991E0,-5.081318110E-2,6.372487407E0,8.004586292E0
7.649979250E0,-4.631424275E0,-2.965204918E-1,7.099567623E0,8.481855673E0
7.659965250E0,-4.236511808E0,-1.018078305E0,7.718039317E0,8.862993097E0
7.669951250E0,-3.945410516E0,-2.028217846E0,8.164541475E0,9.291914188E0
7.679936250E0,-3.860085606E0,-2.799447172E0,8.473506011E0,9.723038079E0
7.689922250E0,-3.287266633E0,-3.337897673E0,8.622395418E0,9.812919318E0
7.699908250E0,-2.357123727E0,-3.659536342E0,8.927738773E0,9.932409481E0
7.709893250E0,-1.310607195E0,-3.903050654E0,9.248739803E0,1.012376825E1
7.719879250E0,-5.271282452E-1,-3.782356229E0,9.805289483E0,1.052272706E1
7.729865250E0,8.779009581E-1,-4.413438029E0,1.078174643E1,1.168311608E1
7.739850250E0,2.772636811E0,-6.270499687E0,1.125565390E1,1.317939399E1
7.749836250E0,3.832672105E0,-8.094283086E0,1.061594863E1,1.388903018E1
7.759822250E0,4.885691324E0,-9.158954637E0,9.924226527E0,1.436129179E1
7.769807250E0,6.669535902E0,-9.710094473E0,8.644571568E0,1.461154548E1
7.779793250E0,9.303276783E0,-1.018015682E1,5.976919175E0,1.503030654E1
7.789779250E0,1.160825036E1,-1.049578718E1,2.388374755E0,1.583089887E1
7.799764250E0,1.379233510E1,-9.835699682E0,-1.171215714E0,1.698061371E1
7.809750250E0,1.493552189E1,-8.141764816E0,-3.608648024E0,1.738909109E1
7.819736250E0,1.460381402E1,-7.262090982E0,-5.274211907E0,1.714137278E1
7.829722250E0,1.332597989E1,-6.853396921E0,-5.746213188E0,1.604897988E1
7.839707250E0,1.132038024E1,-6.291026922E0,-5.283738191E0,1.398734849E1
7.849693250E0,9.083641915E0,-5.849708320E0,-4.462296778E0,1.168947092E1
7.859679250E0,6.954916279E0,-5.714216055E0,-3.926943254E0,9.820591066E0
7.869664250E0,5.122511160E0,-5.507171411E0,-3.568976128E0,8.325061449E0
7.879650250E0,3.340610197E0,-4.999703259E0,-3.065856550E0,6.749532246E0
7.889636250E0,1.912461103E0,-4.592679747E0,-2.693380142E0,5.657252983E0
7.899621250E0,8.545904481E-1,-4.355500015E0,-2.530141668E0,5.109043167E0
7.909607250E0,-1.112023473E-1,-4.158325764E0,-2.726670095E0,4.973808292E0
7.919593250E0,-6.459214479E-1,-3.935477558E0,-3.311010422E0,5.183434010E0
7.929578250E0,-6.820396990E-1,-3.465868958E0,-4.008149093E0,5.342535441E0
7.939564250E0,-7.326853573E-1,-2.959723154E0,-4.660289932E0,5.569119430E0
7.949550250E0,-8.005943352E-1,-2.733953971E0,-5.072594064E0,5.817788768E0
7.959535250E0,-9.805330414E-1,-2.501046508E0,-5.194153000E0,5.847726402E0
7.969521250E0,-1.023110127E0,-2.253104976E0,-5.318736700E0,5.866190966E0
7.979507250E0,-8.713626015E-1,-1.891062047E0,-5.333719021E0,5.725726770E0
7.989492250E0,-7.061389983E-1,-1.553406686E0,-5.002747904E0,5.285753608E0
7.999478250E0,-6.683922976E-1,-1.426763596E0,-4.284526219E0,4.565037519E0
8.009464250E0,-9.543269902E-1,-1.394572189E0,-3.435556700E0,3.828657915E0
8.019449250E0,-1.242968359E0,-1.389263648E0,-2.781126968E0,3.348087669E0
8.029435250E0,-1.495926509E0,-1.278302352E0,-2.355459609E0,3.069208855E0
8.039421250E0,-1.482917039E0,-1.266670048E0,-2.031436300E0,2.816066298E0
8.049406250E0,-1.280830250E0,-1.169409217E0,-1.619183477E0,2.372719784E0
8.059392250E0,-1.158364996E0,-9.232206801E-1,-1.490283946E0,2.101212062E0
8.069378250E0,-8.608919924E-1,-8.137374142E-1,-1.525320609E0,1.931296601E0
8.079364250E0,-3.131610829E-1,-7.367423017E-1,-1.484918541E0,1.686962405E0
8.089349250E0,3.769875348E-2,-5.855767205E-1,-1.442115022E0,1.556925505E0
8.099335250E0,2.103898358E-1,-5.349142514E-1,-1.232570255E0,1.360009770E0
8.109321250E0,3.786574996E-1,-5.576926647E-1,-8.994814231E-1,1.124041565E0
8.119306250E0,4.271461201E-1,-5.968339263E-1,-6.585954340E-1,9.861097754E-1
8.129292250E0,5.668969131E-1,-6.350071813E-1,-4.141139920E-1,9.466238053E-1
8.139278250E0,4.857843375E-1,-6.354692575E-1,1.617585433E-1,8.160719491E-1
8.149263500E0,7.735340059E-2,-7.370979586E-1,4.596390975E-1,8.721038064E-1
8.159249500E0,-1.109000462E-1,-8.208673628E-1,1.234347224E-1,8.374712999E-1
8.169235500E0,-6.113322437E-2,-7.662065676E-1,-4.175134170E-1,8.747155130E-1
8.179220500E0,2.428144008E-1,-7.335823933E-1,-7.466287740E-1,1.074502902E0
8.189206500E0,3.013584781E-1,-6.928370943E-1,-9.153804410E-1,1.186912601E0
8.199192500E0,2.481991017E-1,-8.102610252E-1,-1.083979642E0,1.375913365E0
8.209177500E0,2.885969299E-1,-9.764303425E-1,-1.364034374E0,1.702143994E0
8.219163500E0,4.291049373E-1,-9.204293655E-1,-1.751638699E0,2.024736870E0
8.229149500E0,4.055786651E-1,-8.526778239E-1,-2.149649897E0,2.347881642E0
8.239134500E0,3.930866736E-1,-8.935430639E-1,-2.526378985E0,2.708417825E0
8.249120500E0,5.413936973E-1,-7.979578988E-1,-2.640193284E0,2.810776497E0
8.259106500E0,5.884824944E-1,-6.038971435E-1,-2.411902782E0,2.555049595E0
8.269092500E0,4.298925573E-1,-6.584200906E-1,-1.811117746E0,1.974454891E0
8.279077500E0,5.398061782E-1,-8.505396433E-1,-1.009467988E0,1.426125525E0
8.289063500E0,1.049862308E0,-6.374351645E-1,5.971765000E-2,1.229675019E0
8.299049500E0,1.755473303E0,-4.396020781E-1,1.154485953E0,2.146572691E0
8.309034500E0,2.281301127E0,-3.974487696E-1,2.198181202E0,3.192851540E0
8.319020500E0,2.798119562E0,-4.530916046E-1,3.022138088E0,4.143438633E0
8.329006500E0,3.189143338E0,-2.492214873E-1,3.309064468E0,4.602461758E0
8.338991500E0,3.022218779E0,-1.435182271E-1,3.202531415E0,4.405747530E0
8.348977500E0,2.553160402E0,-7.404183000E-3,3.018587658E0,3.953549584E0
8.358963500E0,2.002835668E0,-1.448779240E-1,2.483007848E0,3.193378821E0
8.368948500E0,1.777285171E0,-3.389535166E-1,1.461530263E0,2.325876776E0
8.378934500E0,1.883945986E0,-2.592912698E-1,6.205000931E-1,2.000376166E0
8.388920500E0,2.394582744E0,3.171358008E-1,3.375790554E-1,2.438967251E0
8.398905500E0,3.012615312E0,1.235197263E-1,-9.221000612E-2,3.016556121E0
8.408891500E0,2.309773559E0,-6.353321403E-1,-4.522604960E-1,2.437876202E0
8.418877500E0,1.514734079E0,-8.883202578E-1,-3.229633552E-1,1.785451634E0
8.428862500E0,1.722825959E0,-1.170025221E0,-3.240257943E-1,2.107624496E0
8.438848500E0,1.579124202E0,-1.488847139E0,-8.310852259E-1,2.324005530E0
8.448834500E0,5.357464564E-1,-1.605791014E0,-1.404508801E0,2.199598604E0
8.458819500E0,-9.723048395E-1,-1.576446762E0,-2.001234115E0,2.726811156E0
8.468805500E0,-2.328177670E0,-1.677020772E0,-2.912100506E0,4.088170653E0
8.478791500E0,-3.116556587E0,-1.452249270E0,-3.723128613E0,5.067902877E0
8.488777500E0,-3.756648946E0,-1.489588712E0,-4.141673478E0,5.786600473E0
8.498762500E0,-4.567862409E0,-1.534049771E0,-4.430062832E0,6.545542941E0
8.508748500E0,-4.951823334E0,-1.428719928E0,-4.077735345E0,6.571888656E0
8.518734500E0,-4.967270508E0,-1.467665454E0,-3.282276034E0,6.131977997E0
8.528719500E0,-4.937373694E0,-1.707586068E0,-2.452285992E0,5.771240401E0
8.538705500E0,-4.903130645E0,-1.945508835E0,-1.713637644E0,5.546372573E0
8.548691500E0,-4.725162451E0,-2.008156926E0,-1.108153785E0,5.252414610E0
8.558676500E0,-4.872329267E0,-1.987728948E0,-9.677340710E-1,5.350436252E0
8.568662500E0,-5.057955560E0,-1.778381086E0,-1.130076751E0,5.479290757E0
8.578648500E0,-4.808139119E0,-1.886011223E0,-1.468138787E0,5.369420044E0
8.588633500E0,-3.404938340E0,-1.908711868E0,-1.751978422E0,4.278576221E0
8.598619500E0,-1.897425572E0,-1.553188292E0,-1.691732220E0,2.979022588E0
8.608605500E0,-1.199639906E0,-1.525659601E0,-1.583511368E0,2.504851568E0
8.618590500E0,-1.268610154E0,-1.688026839E0,-1.252009909E0,2.454859496E0
8.628576500E0,-2.113280216E0,-1.947488994E0,-5.779376256E-1,2.931327097E0
8.638562500E0,-3.669596184E0,-2.175541222E0,9.096221030E-2,4.266988386E0
8.648547500E0,-5.002418121E0,-2.276700684E0,2.645485014E-1,5.502502973E0
8.658533500E0,-4.962679859E0,-2.091785266E0,9.159195542E-2,5.386292423E0
8.668519500E0,-4.583706025E0,-1.798412038E0,7.010343790E-2,4.924384355E0
8.678504500E0,-4.316881787E0,-1.292956790E0,4.557787657E-2,4.506582183E0
8.688490500E0,-3.643815810E0,-1.029114048E0,3.035114229E-1,3.798498199E0
8.698476500E0,-2.654424822E0,-1.075136605E0,7.592545205E-1,2.962829270E0
8.708462500E0,-1.692832374E0,-1.219391801E0,1.292649812E0,2.454290395E0
8.718447500E0,-1.207421381E0,-1.753989572E0,1.444338280E0,2.573025238E0
8.728433500E0,-1.019570222E0,-1.742597441E0,1.304478729E0,2.403712553E0
8.738419500E0,-1.176779340E0,-1.468835190E0,1.114779850E0,2.187468981E0
8.748404500E0,-1.715444434E0,-1.524711183E0,7.083188403E-1,2.401917854E0
8.758390500E0,-2.006596304E0,-1.523526537E0,5.348886698E-1,2.575590753E0
8.768376500E0,-2.035390041E0,-1.424624685E0,1.041452258E0,2.693880271E0
8.778361500E0,-2.023275195E0,-1.319394391E0,2.152279390E0,3.235235795E0
8.788347500E0,-1.883054870E0,-1.329417981E0,3.706361137E0,4.364671888E0
8.798333500E0,-2.080654507E0,-1.304375233E0,5.117432853E0,5.676146310E0
8.808318500E0,-2.602317652E0,-1.052799072E0,5.815835985E0,6.457893716E0
8.818304500E0,-3.479492093E0,-3.995478469E-1,6.324510418E0,7.229518361E0
8.828290500E0,-3.821101050E0,1.331542566E-1,6.449316312E0,7.497481189E0
8.838275500E0,-3.440152903E0,3.834884691E-1,6.602706320E0,7.455028247E0
8.848261500E0,-2.676344571E0,1.892981981E-1,7.175131776E0,7.660363573E0
8.858247500E0,-2.112646378E0,-8.760073373E-1,7.593169688E0,7.930125439E0
8.868232500E0,-1.974845631E0,-2.041975468E0,7.736896588E0,8.241920158E0
8.878218500E0,-1.884947614E0,-3.171870078E0,7.441045017E0,8.305596803E0
8.888204500E0,-1.273826455E0,-3.831515526E0,6.492244231E0,7.645415633E0
8.898190500E0,-5.582348478E-1,-3.385329410E0,5.457798691E0,6.446677277E0
8.908175500E0,-5.777633786E-3,-2.784257860E0,4.955857912E0,5.684421946E0
8.918161500E0,1.151596259E0,-3.045464678E0,5.038192556E0,5.998700966E0
8.928147500E0,3.296735029E0,-4.289025652E0,5.147871704E0,7.467582338E0
8.938132500E0,5.019381478E0,-4.101981409E0,5.227810743E0,8.327691581E0
8.948118500E0,5.401528596E0,-3.373034762E0,5.208381615E0,8.226853209E0
8.958104500E0,5.084362755E0,-3.371860348E0,5.214474998E0,8.025642426E0
8.968089500E0,4.788566734E0,-3.634013245E0,5.573711556E0,8.197724327E0
8.978075500E0,4.677370234E0,-4.198436786E0,5.862186279E0,8.594759550E0
8.988061500E0,4.252769406E0,-4.406444759E0,5.989139856E0,8.565780714E0
8.998046500E0,3.511192188E0,-4.524668735E0,5.940596856E0,8.251774885E0
9.008032500E0,3.602766602E0,-5.640229481E0,5.350000008E0,8.568232949E0
9.018018500E0,4.943087593E0,-6.430573647E0,4.195288645E0,9.131639459E0
9.028003500E0,6.548686818E0,-6.372569852E0,2.401151214E0,9.447776073E0
9.037989500E0,8.098405958E0,-6.088716184E0,3.127272195E-1,1.013678658E1
9.047975500E0,9.591365590E0,-5.703513311E0,-1.368255772E0,1.124261899E1
9.057960500E0,9.830867543E0,-5.254093977E0,-2.239499675E0,1.136955667E1
9.067946500E0,9.543747035E0,-5.524833511E0,-2.807059662E0,1.137921248E1
9.077932500E0,9.540101881E0,-5.993736352E0,-3.406966739E0,1.177054976E1
9.087918500E0,9.821918964E0,-5.538826482E0,-3.675902406E0,1.186005689E1
9.097903500E0,9.481491730E0,-5.511224116E0,-3.576732459E0,1.153539300E1
9.107889500E0,8.195315371E0,-6.083271841E0,-3.008944430E0,1.064063611E1
9.117875500E0,6.212649089E0,-6.867220323E0,-2.216573035E0,9.522022878E0
9.127860500E0,4.555189739E0,-7.459021697E0,-1.685604338E0,8.901012314E0
9.137846500E0,2.949654248E0,-7.759520634E0,-1.634321918E0,8.460592697E0
9.147832375E0,1.528424165E0,-8.073054185E0,-2.399469262E0,8.559657531E0
9.157817375E0,9.649028492E-1,-8.008169972E0,-3.757671624E0,8.898422323E0
9.167803375E0,5.531641424E-1,-7.626516944E0,-5.189530776E0,9.241265116E0
9.177789375E0,-3.974884576E-1,-7.230925323E0,-6.361964757E0,9.639443639E0
9.187774375E0,-1.390981268E0,-6.767630546E0,-7.295804858E0,1.004810533E1
9.197760375E0,-2.265917103E0,-6.166707516E0,-7.993420370E0,1.034685610E1
9.207746375E0,-3.040401866E0,-5.338730670E0,-8.428744406E0,1.043023590E1
9.217731375E0,-3.531054595E0,-4.460566587E0,-8.643133153E0,1.034740313E1
9.227717375E0,-3.816585830E0,-3.626432038E0,-8.507035115E0,1.000434821E1
9.237703375E0,-3.850994940E0,-2.906032558E0,-8.055064057E0,9.389315428E0
9.247688375E0,-3.554078007E0,-2.286720180E0,-7.300004328E0,8.435082860E0
9.257674375E0,-3.386780396E0,-1.841151092E0,-6.406835121E0,7.477142172E0
9.267660375E0,-3.363944095E0,-1.494226724E0,-5.436817127E0,6.565654107E0
9.277646375E0,-3.316250111E0,-1.108566964E0,-4.440412989E0,5.651876063E0
9.287631375E0,-3.401073330E0,-7.573316637E-1,-3.501518555E0,4.939785748E0
9.297617375E0,-3.288824916E0,-4.222133359E-1,-2.590470901E0,4.207751527E0
9.307603375E0,-2.956309549E0,-2.234006216E-1,-1.529960228E0,3.336233248E0
9.317588375E0,-2.587091210E0,-1.345385849E-1,-5.664683121E-1,2.651797109E0
9.327574375E0,-2.268085250E0,-1.165966778E-1,6.923048515E-2,2.272135196E0
9.337560375E0,-2.097061209E0,-6.976188742E-2,2.928958029E-1,2.118565644E0
9.347545375E0,-1.806816534E0,7.417467143E-4,1.524310283E-1,1.813235163E0
9.357531375E0,-1.187050266E0,8.094783937E-2,-4.438504457E-2,1.190634671E0
9.367517375E0,-2.672785664E-1,2.874393822E-1,-2.248002988E-1,4.523211302E-1
9.377502375E0,6.276190782E-1,4.481356874E-1,-7.791709045E-2,7.751144267E-1
9.387488375E0,9.807166439E-1,3.783951057E-1,3.619759780E-1,1.111761935E0
9.397474375E0,8.540577668E-1,1.117260568E-1,8.179319143E-1,1.187817325E0
9.407459375E0,5.903366464E-1,5.101575058E-2,9.341301227E-1,1.106209315E0
9.417445375E0,2.320444143E-1,1.892089549E-2,7.984811515E-1,8.317299801E-1
9.427431375E0,3.584927917E-2,1.556159701E-2,6.146107775E-1,6.158520455E-1
9.437416375E0,-2.641046977E-1,-6.875075765E-2,4.712393886E-1,5.445590137E-1
9.447402375E0,-6.160269731E-1,-1.560500162E-1,2.654004407E-1,6.886786138E-1
9.457388375E0,-6.427107418E-1,-2.440310236E-1,1.069531665E-1,6.957493930E-1
9.467374375E0,-5.781001782E-1,-2.173899031E-1,-1.812111060E-2,6.178887932E-1
9.477359375E0,-5.513620305E-1,-3.503789759E-1,-2.761739355E-1,7.092514069E-1
9.487345375E0,-4.130011207E-1,-4.358237536E-1,-6.651815915E-1,8.960908545E-1
9.497331375E0,-1.126115263E-1,-3.745711729E-1,-9.599081576E-1,1.036536825E0
9.507316375E0,6.700733721E-2,-3.621540988E-1,-1.059426599E0,1.121619495E0
9.517302375E0,5.540587664E-2,-4.850473691E-1,-1.152171625E0,1.251335373E0
9.527288375E0,3.117741233E-1,-6.242053275E-1,-1.322943066E0,1.495664986E0
9.537273375E0,9.357164723E-1,-4.970829123E-1,-1.461175922E0,1.804907702E0
9.547259375E0,1.513723095E0,-3.452139111E-1,-1.403192593E0,2.092720647E0
9.557245375E0,1.622587141E0,-3.751525323E-1,-1.133584423E0,2.014582363E0
9.567230375E0,1.407323066E0,-5.300765575E-1,-8.410119709E-1,1.723032357E0
9.577216375E0,1.036879735E0,-7.350259978E-1,-5.038322072E-1,1.367197753E0
9.587202375E0,6.450478739E-1,-9.650436209E-1,-1.632963610E-1,1.172203758E0
9.597187375E0,3.526707190E-1,-1.126526029E0,2.531948166E-1,1.207288344E0
9.607173375E0,3.617795116E-1,-1.380304106E0,5.975538647E-1,1.546995301E0
9.617159375E0,7.258739358E-1,-1.604276146E0,6.648181871E-1,1.882173782E0
9.627144375E0,1.558315716E0,-1.416623501E0,5.110478175E-1,2.167104032E0
9.637130375E0,2.530170904E0,-1.046892507E0,4.174584532E-1,2.769841202E0
9.647116375E0,3.495488321E0,-1.148208821E0,3.543485776E-1,3.696266361E0
9.657102375E0,4.167232243E0,-1.313269140E0,2.074042475E-1,4.374187573E0
9.667087375E0,4.140564262E0,-1.691390889E0,-1.486028928E-1,4.475171322E0
9.677073375E0,4.222969072E0,-1.854425587E0,-9.919158161E-1,4.717653975E0
9.687059375E0,4.214163750E0,-1.781727886E0,-1.985511537E0,4.987583226E0
9.697044375E0,3.946237312E0,-1.605843054E0,-2.776532226E0,5.085336964E0
9.707030375E0,3.750645609E0,-1.572882738E0,-3.228377570E0,5.192660621E0
9.717016375E0,3.315110489E0,-1.647332850E0,-3.395027894E0,5.022935145E0
9.727001375E0,2.371922445E0,-1.894654284E0,-3.190747814E0,4.404157417E0
9.736987375E0,1.098491846E0,-2.390225107E0,-2.735407589E0,3.795038218E0
9.746973375E0,1.365313160E-1,-2.889465349E0,-2.349120643E0,3.726394853E0
9.756958375E0,-4.922946274E-1,-2.955729798E0,-2.298755943E0,3.776634947E0
9.766944375E0,-6.642524689E-1,-2.846964278E0,-2.444610937E0,3.810847619E0
9.776930375E0,-5.705075687E-1,-2.621940323E0,-2.655138767E0,3.774892292E0
9.786915375E0,-5.419222856E-1,-2.329631873E0,-2.991644858E0,3.830248475E0
9.796901375E0,-8.970517588E-1,-2.317806756E0,-3.316706779E0,4.144571615E0
9.806887375E0,-1.201653103E0,-2.693959601E0,-3.476844474E0,4.559587263E0
9.816873375E0,-1.339070857E0,-2.904438314E0,-3.479454671E0,4.726042477E0
9.826858375E0,-1.564592702E0,-3.220089434E0,-3.742874660E0,5.179385775E0
9.836844375E0,-1.705718760E0,-3.426617769E0,-4.458773831E0,5.876380680E0
9.846830375E0,-2.037638880E0,-3.195064521E0,-5.181129497E0,6.419074104E0
9.856815375E0,-2.663682134E0,-3.259856348E0,-5.246301393E0,6.726480820E0
9.866801375E0,-3.416243931E0,-3.662407032E0,-4.617426333E0,6.812090267E0
9.876787375E0,-4.177627423E0,-4.003833848E0,-3.388099236E0,6.705406236E0
9.886772375E0,-5.111189781E0,-4.243372346E0,-1.974662613E0,6.930350805E0
9.896758375E0,-6.071449941E0,-4.155100440E0,-1.045445321E0,7.431037610E0
9.906744375E0,-6.905635360E0,-3.982610794E0,-1.160760015E0,8.055827225E0
9.916729375E0,-7.300520638E0,-3.363405859E0,-7.722704226E-1,8.075054313E0
9.926715375E0,-7.079795263E0,-2.565875757E0,3.208098257E-1,7.537250050E0
9.936701375E0,-6.291012304E0,-2.180016242E0,1.810981506E0,6.899924683E0
9.946686375E0,-5.319789199E0,-2.059237910E0,3.342024930E0,6.611334852E0
9.956672375E0,-4.297168484E0,-2.204580395E0,4.361864417E0,6.507817829E0
9.966658375E0,-3.090618923E0,-2.270604815E0,4.804953555E0,6.147776039E0
9.976644375E0,-1.919680660E0,-1.944853508E0,4.728402393E0,5.461265256E0
9.986629375E0,-1.329531709E0,-1.548726282E0,4.102826917E0,4.582509833E0
9.996615375E0,-1.041844606E0,-1.051843637E0,3.370073147E0,3.680924916E0
1.000660138E1,-7.140204602E-1,-5.224112964E-1,3.093788699E0,3.217804732E0
1.001658638E1,-3.619724697E-1,-1.649142855E-1,3.380125095E0,3.403449199E0
1.002657237E1,-3.121904451E-1,-2.605735642E-1,4.031860430E0,4.052315385E0
1.003655837E1,-1.295697965E0,-5.364209327E-1,4.757765356E0,4.960132238E0
1.004654338E1,-2.720693071E0,-6.451066384E-1,5.241401426E0,5.940591071E0
1.005652937E1,-3.443190240E0,-4.970028055E-1,5.129786850E0,6.198167789E0
1.006651537E1,-3.540320093E0,-1.485236630E-1,4.718535216E0,5.900889783E0
1.007650037E1,-3.433259329E0,3.347706378E-1,4.625593139E0,5.770221216E0
1.008648637E1,-3.277581305E0,4.449641941E-1,4.877420438E0,5.893196287E0
1.009647237E1,-2.837977107E0,-7.928532064E-2,5.275583079E0,5.991008016E0
1.010645737E1,-2.247953287E0,-7.938098109E-1,5.599509471E0,6.085879913E0
1.011644338E1,-1.527790911E0,-1.405555599E0,5.507619308E0,5.885881586E0
1.012642937E1,-8.327610379E-1,-1.855760360E0,5.051517776E0,5.445656003E0
1.013641437E1,-3.798117399E-1,-1.968142968E0,4.312111044E0,4.755222955E0
1.014640012E1,-2.369332713E-1,-1.632844326E0,3.494945700E0,3.864836790E0
1.015638612E1,1.605271196E-1,-1.675507658E0,2.764361247E0,3.236477711E0
1.016637212E1,1.079461498E0,-2.000071835E0,2.185920761E0,3.153375024E0
1.017635712E1,1.691100721E0,-1.513624277E0,1.990622004E0,3.018850122E0
1.018634313E1,2.246402605E0,-1.346404727E0,2.257589498E0,3.457721894E0
1.019632912E1,2.703297604E0,-1.532578611E0,2.930373639E0,4.271265012E0
1.020631412E1,2.766260422E0,-2.234007093E0,3.359146455E0,4.891507878E0
1.021630013E1,3.632264051E0,-3.489278286E0,3.012151628E0,5.868684906E0
1.022628612E1,5.011725719E0,-4.178596014E0,1.660180060E0,6.733071896E0
1.023627112E1,6.156145105E0,-3.823693998E0,-3.175792390E-1,7.253937890E0
1.024625712E1,6.521038844E0,-2.598319910E0,-1.737210109E0,7.231397716E0
1.025624313E1,5.798233527E0,-2.081676015E0,-2.185860534E0,6.536885599E0
1.026622812E1,4.711274144E0,-2.241284830E0,-1.287479703E0,5.373738525E0
1.027621412E1,3.538046696E0,-2.644966950E0,6.554836920E-1,4.465790351E0
1.028620013E1,2.411164863E0,-2.930685296E0,2.386058089E0,4.482845693E0
1.029618513E1,1.656315635E0,-3.182329577E0,3.561834923E0,5.055419967E0
1.030617112E1,1.536423740E0,-3.788905111E0,3.918786973E0,5.663328632E0
1.031615712E1,2.393230283E0,-4.275257798E0,3.062628594E0,5.777981856E0
1.032614313E1,3.697686208E0,-3.656667990E0,1.742767595E0,5.484646112E0
1.033612812E1,5.351616179E0,-3.396335331E0,4.783574966E-1,6.356391689E0
1.034611412E1,7.113982179E0,-4.190398327E0,-6.278446345E-1,8.280239699E0
1.035610013E1,9.268626183E0,-4.683959461E0,-1.588570671E0,1.050573483E1
1.036608512E1,1.049054924E1,-4.916592690E0,-2.610031006E0,1.187589024E1
1.037607112E1,1.034397475E1,-4.963928239E0,-3.511240135E0,1.199863344E1
1.038605712E1,9.046745399E0,-5.271914536E0,-3.945663700E0,1.118950165E1
1.039604213E1,6.701609049E0,-5.939943722E0,-3.982609917E0,9.800799815E0
1.040602812E1,3.972971951E0,-6.518661951E0,-3.986649173E0,8.612248916E0
1.041601412E1,1.445147535E0,-6.741512203E0,-4.233259002E0,8.090545097E0
1.042599913E1,-6.268788207E-1,-6.529289850E0,-4.523997767E0,7.968133960E0
1.043598512E1,-1.849763163E0,-6.049334602E0,-4.716932495E0,7.890850717E0
1.044597112E1,-2.857144865E0,-5.751554035E0,-4.626907593E0,7.915296866E0
1.045595612E1,-4.175345255E0,-5.629809743E0,-4.558781683E0,8.361265225E0
1.046594213E1,-5.069231915E0,-5.374386406E0,-4.982967943E0,8.911291207E0
1.047592812E1,-5.439373530E0,-4.785913852E0,-5.817559744E0,9.291703674E0
1.048591412E1,-5.351017424E0,-3.976465078E0,-6.754909928E0,9.490757089E0
1.049589913E1,-5.145493056E0,-3.124828643E0,-7.447565832E0,9.576371425E0
1.050588512E1,-4.860238395E0,-2.482270221E0,-7.661656955E0,9.406623731E0
1.051587112E1,-4.620076291E0,-1.999880046E0,-7.491313530E0,9.025763322E0
1.052585612E1,-4.454703584E0,-1.638668446E0,-6.859079829E0,8.341258562E0
1.053584213E1,-4.276176980E0,-1.461016293E0,-5.868776675E0,7.406942543E0
1.054582812E1,-4.060393673E0,-1.320467940E0,-4.651426138E0,6.313968441E0
1.055581312E1,-3.665113124E0,-1.250760212E0,-3.397204227E0,5.151548494E0
1.056579913E1,-3.272914642E0,-1.273138530E0,-2.343042462E0,4.221693967E0
1.057578512E1,-2.754064885E0,-1.304165026E0,-1.568439585E0,3.427203311E0
1.058577012E1,-1.875569850E0,-1.164899552E0,-1.033712883E0,2.437891620E0
1.059575612E1,-1.115804867E0,-9.853091933E-1,-7.679545927E-1,1.674995213E0
1.060574213E1,-7.017500782E-1,-8.908686206E-1,-7.535201561E-1,1.361577283E0
1.061572712E1,-4.826812202E-1,-8.156858526E-1,-8.483911570E-1,1.272042502E0
1.062571312E1,-2.414672023E-1,-7.032455036E-1,-8.472111889E-1,1.127221117E0
1.063569913E1,-7.580739677E-2,-6.185538474E-1,-7.334244454E-1,9.624276807E-1
1.064568512E1,1.068660522E-1,-5.933473778E-1,-6.698606066E-1,9.012184508E-1
1.065567012E1,2.617932934E-1,-6.041145869E-1,-6.076121720E-1,8.959256186E-1
1.066565612E1,1.886867255E-1,-6.761158848E-1,-5.169453923E-1,8.717613828E-1
1.067564212E1,-8.921915531E-2,-6.750160235E-1,-4.012604964E-1,7.903269422E-1
1.068562712E1,-3.589564759E-1,-6.312443519E-1,-2.838310106E-1,7.796660990E-1
1.069561312E1,-3.120284772E-1,-7.031890780E-1,-1.757557543E-1,7.891303664E-1
1.070559913E1,-2.073428518E-1,-8.751283546E-1,-1.796709037E-1,9.171272152E-1
1.071558412E1,-1.551032424E-2,-8.945194758E-1,-2.542698272E-1,9.300853766E-1
1.072557012E1,3.504435146E-1,-7.153216119E-1,-2.527191456E-1,8.356809391E-1
1.073555613E1,7.273018259E-1,-6.323711103E-1,-4.162866712E-2,9.646730602E-1
1.074554113E1,1.071781765E0,-5.472796507E-1,3.585853238E-1,1.255712787E0
1.075552712E1,1.227724668E0,-4.655202270E-1,8.272060369E-1,1.551865577E0
1.076551312E1,1.210802241E0,-3.968521343E-1,1.116314452E0,1.694016422E0
1.077549813E1,9.916228706E-1,-5.401324528E-1,1.298566317E0,1.720852540E0
1.078548412E1,8.041699076E-1,-7.099529909E-1,1.298889960E0,1.684588264E0
1.079547012E1,7.843191952E-1,-8.399498972E-1,1.091739482E0,1.585108049E0
1.080545613E1,7.357200623E-1,-5.879349026E-1,8.955534098E-1,1.299602774E0
1.081544113E1,6.032087070E-1,-6.143239716E-1,4.878674081E-1,9.895803626E-1
1.082542712E1,4.413817513E-1,-8.004542944E-1,-1.451018724E-1,9.255265967E-1
1.083541312E1,3.505423325E-1,-8.211774114E-1,-8.985960084E-1,1.266762430E0
1.084539813E1,4.100289810E-1,-5.273814297E-1,-1.813680580E0,1.932793881E0
1.085538412E1,2.254294592E-1,-2.278721336E-1,-2.938449814E0,2.955880826E0
1.086537012E1,1.210268390E-1,-3.446021461E-1,-4.061552006E0,4.077941004E0
1.087535512E1,3.065817958E-1,-4.056479546E-1,-5.087007451E0,5.112356352E0
1.088534112E1,6.990539271E-1,-5.413413647E-1,-5.697099500E0,5.765298742E0
1.089532712E1,1.108646121E0,-6.707621741E-1,-5.658961036E0,5.805416275E0
1.090531212E1,1.268333580E0,-8.702682951E-1,-4.969180208E0,5.201806313E0
1.091529813E1,1.118861791E0,-1.384526526E0,-4.085568860E0,4.456527608E0
1.092528412E1,5.968463516E-1,-1.778740397E0,-3.461475652E0,3.937252425E0
1.093526912E1,6.765930176E-2,-1.908089870E0,-3.396568635E0,3.896416716E0
1.094525512E1,-3.831276959E-1,-1.946122354E0,-3.504540980E0,4.026907813E0
1.095524112E1,-7.166604781E-1,-1.850840659E0,-3.223038477E0,3.785127529E0
1.096522712E1,-1.016105163E0,-2.031249627E0,-2.799790111E0,3.605172592E0
1.097521212E1,-1.575246329E0,-2.102560223E0,-2.826836992E0,3.859166732E0
1.098519813E1,-1.884359969E0,-1.898153551E0,-2.237783809E0,3.487330752E0
1.099518412E1,-2.082093506E0,-2.294848249E0,-1.544687026E0,3.462296905E0
1.100516912E1,-2.428244580E0,-2.754258720E0,-1.522695063E0,3.975036238E0
1.101515513E1,-2.473028405E0,-2.676393396E0,-1.727901927E0,4.032938899E0
1.102514112E1,-2.039000697E0,-2.423106339E0,-2.000641792E0,3.745869159E0
1.103512612E1,-1.697142064E0,-1.932353623E0,-1.252192342E0,2.860466285E0
1.104511212E1,-1.765954437E0,-1.728940392E0,7.189040548E-1,2.573840126E0
1.105509813E1,-1.905970693E0,-2.010348024E0,2.746918418E0,3.901254190E0
1.106508312E1,-2.102867494E0,-2.017071299E0,4.251685917E0,5.154363342E0
1.107506912E1,-2.403589211E0,-2.102489618E0,4.748306315E0,5.722247508E0
1.108505513E1,-2.711158016E0,-1.670859999E0,4.168094707E0,5.245489912E0
1.109504013E1,-3.134632085E0,-6.943580282E-1,3.090747562E0,4.456542592E0
1.110502612E1,-3.391633585E0,-1.371043432E-1,1.760524127E0,3.823796697E0
1.111501212E1,-3.016716549E0,1.319447601E-1,5.014618921E-1,3.060956091E0
1.112499713E1,-2.456211228E0,1.569645573E-1,-3.679243505E-1,2.488569829E0
1.113498312E1,-2.323380030E0,6.860538125E-2,-8.054755908E-1,2.459998453E0
1.114496912E1,-2.511223002E0,-1.448507345E-1,-9.459321427E-1,2.687379824E0
1.115495488E1,-2.965490847E0,-4.516950703E-1,-1.151704432E0,3.213189615E0
1.116493987E1,-3.128114778E0,-4.493080907E-1,-1.289153761E0,3.413048087E0
1.117492587E1,-2.686431311E0,-5.533992004E-1,-1.149727489E0,2.974060719E0
1.118491187E1,-2.219332920E0,-6.527555273E-1,-5.516263247E-1,2.378196794E0
1.119489688E1,-1.979378393E0,-5.863981082E-1,7.295196748E-1,2.189520614E0
1.120488287E1,-1.908414829E0,-7.321564767E-1,2.127779557E0,2.950516244E0
1.121486887E1,-1.923840369E0,-8.464058080E-1,3.305322250E0,3.916978393E0
1.122485387E1,-1.947604623E0,-5.890297937E-1,4.141861174E0,4.614665085E0
1.123483987E1,-2.071654472E0,-2.998086736E-1,4.669527948E0,5.117238391E0
1.124482587E1,-2.339975013E0,-2.403272876E-1,4.643189750E0,5.205040952E0
1.125481087E1,-2.372822331E0,-3.878186247E-1,4.164589301E0,4.808793315E0
1.126479688E1,-2.052752178E0,-3.839382662E-1,3.593305807E0,4.156085505E0
1.127478287E1,-1.717694442E0,-4.266787814E-1,2.914183869E0,3.409544926E0
1.128476887E1,-1.516581214E0,-3.709210485E-1,2.258337942E0,2.745485615E0
1.129475388E1,-1.863826886E0,-1.681437027E-1,2.041526109E0,2.769467787E0
1.130473987E1,-2.385761050E0,5.808755592E-2,2.161701009E0,3.219966025E0
1.131472587E1,-2.496778041E0,1.831301165E-1,2.528146014E0,3.557943154E0
1.132471087E1,-2.271604689E0,2.989429202E-1,3.085905483E0,3.843483756E0
1.133469688E1,-1.977192119E0,4.396236397E-2,3.801943232E0,4.285556406E0
1.134468287E1,-1.989632655E0,-3.433052337E-1,4.518661598E0,4.949222082E0
1.135466787E1,-2.925740891E0,-5.126926758E-1,5.310586267E0,6.084828677E0
1.136465388E1,-3.951939517E0,-6.512881686E-1,5.949843058E0,7.172352099E0
1.137463987E1,-3.746088290E0,-1.497782562E0,5.922816058E0,7.166329614E0
1.138462487E1,-2.834611450E0,-2.475798523E0,5.310980369E0,6.509309708E0
1.139461087E1,-1.619472914E0,-3.111784675E0,4.061800513E0,5.366946970E0
1.140459688E1,-3.304261565E-2,-3.124611712E0,2.429858412E0,3.958345875E0
1.141458287E1,1.874025015E0,-3.552426461E0,4.148160964E-1,4.037793446E0
1.142456787E1,3.397731646E0,-3.511331644E0,-1.647540134E0,5.156395907E0
1.143455388E1,4.310113050E0,-3.159237168E0,-3.561091742E0,6.421777666E0
1.144453987E1,5.197482989E0,-2.806922252E0,-4.914567799E0,7.684114693E0
1.145452487E1,5.187556756E0,-1.964432909E0,-4.856642357E0,7.372700776E0
1.146451087E1,4.293426851E0,-1.397401218E0,-3.321649430E0,5.605318834E0
1.147449687E1,2.750271211E0,-1.310362782E0,-9.488101423E-1,3.190812286E0
1.148448187E1,1.079670244E0,-1.419984627E0,1.958645335E0,2.649214171E0
1.149446787E1,-1.622491246E-1,-1.652915479E0,4.903857454E0,5.177477406E0
1.150445388E1,-2.608513069E-1,-2.071571734E0,6.815626831E0,7.128269212E0
1.151443887E1,8.742253983E-1,-2.311772722E0,7.026402583E0,7.448415699E0
1.152442487E1,2.978328994E0,-2.047726496E0,5.924895912E0,6.940318363E0
1.153441087E1,5.355982295E0,-1.399802377E0,4.890019433E0,7.386357905E0
1.154439588E1,7.575781823E0,-2.181751696E0,4.233320982E0,8.948380704E0
1.155438187E1,9.473628395E0,-3.256205054E0,3.727154128E0,1.068850711E1
1.156436787E1,1.037206127E1,-3.971483835E0,3.069873587E0,1.152286694E1
1.157435388E1,1.045302532E1,-5.007899301E0,2.083428133E0,1.177647938E1
1.158433887E1,9.588549571E0,-5.686668652E0,8.917392710E-1,1.118363457E1
1.159432487E1,8.175867532E0,-6.274350663E0,-9.936743662E-2,1.030641354E1
1.160431088E1,6.268670093E0,-6.905681553E0,-1.102746134E0,9.391523385E0
1.161429588E1,4.528021236E0,-7.172837913E0,-2.301545942E0,8.789180494E0
1.162428187E1,2.489957848E0,-7.173316215E0,-3.507370448E0,8.364090092E0
1.163426787E1,4.131250817E-1,-6.944488354E0,-4.912485021E0,8.516401817E0
1.164425288E1,-8.649142921E-1,-6.359615346E0,-6.091195403E0,8.848471367E0
1.165423887E1,-9.834782839E-1,-5.836238090E0,-6.702788433E0,8.941827406E0
1.166422487E1,-1.152244130E0,-5.652467119E0,-7.273577253E0,9.283478718E0
1.167420987E1,-1.253361785E0,-5.371979107E0,-8.014061041E0,9.729041560E0
1.168419588E1,-1.258371679E0,-4.893677159E0,-8.815392711E0,1.016084268E1
1.169418187E1,-1.591241972E0,-4.152953342E0,-9.538904956E0,1.052472234E1
1.170416687E1,-1.988946776E0,-3.455194573E0,-9.792674115E0,1.057311426E1
1.171415288E1,-2.525178552E0,-2.880488996E0,-9.482300400E0,1.022681595E1
1.172413887E1,-3.115301775E0,-2.357561683E0,-8.689740139E0,9.527580276E0
1.173412487E1,-3.212278431E0,-1.891998771E0,-7.488772915E0,8.365411636E0
1.174410987E1,-2.763034514E0,-1.617454016E0,-5.603518907E0,6.453676577E0
1.175409587E1,-2.730432193E0,-1.553356838E0,-3.474482784E0,4.684037579E0
1.176408187E1,-2.682735870E0,-1.506519033E0,-2.270074327E0,3.823598933E0
1.177406687E1,-2.263951854E0,-1.191255145E0,-1.921997327E0,3.199787577E0
1.178405288E1,-1.975120450E0,-7.147984323E-1,-1.936665067E0,2.857045532E0
1.179403887E1,-1.889738823E0,-4.504632081E-1,-2.026343083E0,2.807150906E0
1.180402387E1,-1.718823540E0,-3.301275100E-1,-2.035532128E0,2.684535263E0
1.181400988E1,-1.422037584E0,-3.035839283E-1,-2.110422097E0,2.562856906E0
1.182399587E1,-8.789557958E-1,-2.307619737E-1,-2.271257949E0,2.446308863E0
1.183398087E1,-4.744746530E-1,-1.114740966E-1,-2.286915770E0,2.338276376E0
1.184396687E1,1.258233100E-1,-1.274488360E-1,-1.999545439E0,2.007549919E0
1.185395288E1,4.095881009E-1,-3.919353569E-1,-1.529096594E0,1.630801070E0
1.186393887E1,3.274785751E-1,-5.554464568E-1,-1.245327711E0,1.402356620E0
1.187392387E1,1.460809886E-1,-5.107399616E-1,-1.151639601E0,1.268254208E0
1.188390988E1,-3.876119256E-2,-3.967613563E-1,-1.200260296E0,1.264731901E0
1.189389587E1,-2.117317718E-1,-4.002160375E-1,-9.111394554E-1,1.017437137E0
1.190388087E1,-5.819733739E-1,-5.844651648E-1,-4.796558708E-1,9.541290747E-1
1.191386687E1,-7.959674335E-1,-5.076400602E-1,-3.581239054E-1,1.009710512E0
1.192385288E1,-9.189542592E-1,-3.340091841E-1,-6.402386121E-1,1.168736303E0
1.193383787E1,-9.629592347E-1,-1.295745912E-1,-8.805820526E-1,1.311298903E0
1.194382387E1,-9.526014769E-1,-6.794333026E-2,-9.333530277E-1,1.335370265E0
1.195380988E1,-6.774601597E-1,-1.206746905E-1,-6.546332145E-1,9.497680213E-1
1.196379487E1,-3.318160397E-1,-1.992867042E-1,-4.739758124E-1,6.119396583E-1
1.197378087E1,-4.771211028E-2,-1.635118309E-1,-4.197751200E-1,4.530162422E-1
1.198376687E1,1.973657477E-1,-1.635974926E-1,-3.594424160E-1,4.414931804E-1
1.199375287E1,3.398980612E-1,-2.925794685E-1,-3.345882412E-1,5.595379598E-1
1.200373787E1,3.215307873E-1,-4.533868159E-1,-2.055454177E-1,5.926133400E-1
1.201372387E1,3.223757100E-1,-6.542519760E-1,-5.837922234E-2,7.316965765E-1
1.202370988E1,4.237325156E-1,-8.449447350E-1,-5.823881608E-2,9.470335842E-1
1.203369487E1,5.307096648E-1,-7.898195247E-1,-1.618012645E-1,9.652187727E-1
1.204368087E1,5.847139639E-1,-7.473759019E-1,-2.798676217E-1,9.893366687E-1
1.205366687E1,6.454829067E-1,-7.273421717E-1,-3.955243778E-1,1.049816342E0
1.206365188E1,8.289387131E-1,-6.938212538E-1,-5.241221917E-1,1.201345660E0
1.207363787E1,1.044231439E0,-5.313642606E-1,-4.680649352E-1,1.261686197E0
1.208362387E1,1.219101779E0,-4.817411341E-1,-2.848933035E-1,1.341435001E0
1.209360888E1,1.240303783E0,-5.062469611E-1,-2.739186645E-2,1.339921555E0
1.210359487E1,1.203389726E0,-6.829645823E-1,1.374130762E-1,1.390492649E0
1.211358087E1,1.077710842E0,-7.842349952E-1,1.136605167E-1,1.337686024E0
1.212356688E1,9.054050910E-1,-8.161517295E-1,-5.144614220E-2,1.220044561E0
1.213355188E1,7.353809237E-1,-8.911808619E-1,-4.086490381E-1,1.225553943E0
1.214353787E1,8.149077344E-1,-8.169558679E-1,-5.960815358E-1,1.298770458E0
1.215352475E1,9.556507999E-1,-5.851147905E-1,-7.226528509E-1,1.333362258E0
1.216350975E1,9.838273627E-1,-3.849113891E-1,-6.894687326E-1,1.261522965E0
1.217349575E1,9.567401361E-1,-4.563707963E-1,-3.358092494E-1,1.111932482E0
1.218348175E1,1.078490860E0,-7.053671658E-1,5.864157960E-2,1.290009384E0
1.219346675E1,1.130289005E0,-9.818129969E-1,2.670448239E-1,1.520796809E0
1.220345275E1,1.211053087E0,-1.225709863E0,2.248842064E-1,1.737695933E0
1.221343875E1,1.376482512E0,-1.158393647E0,1.651005194E-1,1.806609567E0
1.222342375E1,1.471833057E0,-1.032914153E0,8.621427119E-3,1.798131955E0
1.223340975E1,1.356356395E0,-1.089757422E0,-5.943899363E-2,1.740921280E0
1.224339575E1,1.075819852E0,-1.317524305E0,-1.803369015E-2,1.701053751E0
1.225338075E1,9.132017684E-1,-1.411595042E0,-1.247094154E-1,1.685850073E0
1.226336675E1,9.338289911E-1,-1.517380236E0,-4.235591456E-1,1.831360619E0
1.227335275E1,1.082244773E0,-1.486273341E0,-1.022904890E0,2.103947862E0
1.228333875E1,1.333103188E0,-1.048404305E0,-1.968159925E0,2.598070281E0
1.229332375E1,1.364105710E0,-3.375315468E-1,-2.644016778E0,2.994250600E0
1.230330975E1,7.212055188E-1,-2.528198639E-1,-2.604601282E0,2.714406587E0
1.231329575E1,-6.843815088E-2,-7.089829378E-1,-1.834674423E0,1.968088114E0
1.232328075E1,-4.846166486E-1,-1.050995571E0,-7.208137554E-1,1.363457904E0
1.233326675E1,-9.218614948E-1,-1.265602346E0,2.331483686E-1,1.583014869E0
1.234325275E1,-1.550979799E0,-1.347117210E0,9.018727881E-1,2.243576974E0
1.235323775E1,-2.276381865E0,-1.478677662E0,1.161266969E0,2.952446950E0
1.236322375E1,-2.257897646E0,-1.554779027E0,1.046085591E0,2.934234938E0
1.237320975E1,-2.086436234E0,-1.472130534E0,6.671637976E-1,2.639221855E0
1.238319475E1,-2.088093919E0,-1.441577371E0,-9.262983620E-2,2.539067116E0
1.239318075E1,-2.201342207E0,-1.356584291E0,-9.796390021E-1,2.765125861E0
1.240316675E1,-2.579762310E0,-1.394450128E0,-1.924925612E0,3.507848821E0
1.241315275E1,-2.868381459E0,-1.390198472E0,-2.960017853E0,4.349939043E0
1.242313775E1,-3.089652963E0,-1.140155451E0,-3.682793350E0,4.940534054E0
1.243312375E1,-3.384941447E0,-1.030112460E0,-4.183857046E0,5.479381358E0
1.244310975E1,-3.898929244E0,-1.173305728E0,-4.780581776E0,6.279510944E0
1.245309475E1,-4.478897608E0,-1.327239893E0,-5.129295684E0,6.937705941E0
1.246308075E1,-4.875814793E0,-1.618524495E0,-5.331017607E0,7.403576174E0
1.247306675E1,-4.869335493E0,-1.782147131E0,-5.619252595E0,7.646075873E0
1.248305175E1,-4.974069650E0,-1.912208649E0,-6.063015332E0,8.072054616E0
1.249303775E1,-4.925543023E0,-2.056880166E0,-6.525061144E0,8.430192941E0
1.250302375E1,-4.485489174E0,-2.162941934E0,-6.393033938E0,8.103629673E0
1.251300875E1,-3.979209176E0,-2.312611944E0,-5.426245946E0,7.115224855E0
1.252299475E1,-3.869794908E0,-2.766178561E0,-4.378285738E0,6.465016818E0
1.253298075E1,-4.016691583E0,-3.781765076E0,-4.209588304E0,6.939466265E0
1.254296575E1,-3.952668664E0,-4.069380258E0,-4.622708123E0,7.317983031E0
1.255295175E1,-3.827844059E0,-4.285249520E0,-5.377433975E0,7.869723613E0
1.256293775E1,-3.808399728E0,-4.606724759E0,-5.838588670E0,8.355533445E0
1.257292375E1,-4.004049903E0,-5.233155098E0,-4.948208000E0,8.240333143E0
1.258290875E1,-4.128052974E0,-6.360659659E0,-2.939013485E0,8.132442002E0
1.259289475E1,-3.399737241E0,-7.197480419E0,-1.152819496E-1,7.960855960E0
1.260288075E1,-1.446585365E0,-7.708827614E0,3.005636076E0,8.399552406E0
1.261286575E1,4.426886040E-1,-7.760871926E0,5.442547984E0,9.489385375E0
1.262285175E1,1.869997453E0,-6.977414610E0,6.885823240E0,9.979767873E0
1.263283775E1,2.439608644E0,-5.918838197E0,7.413980010E0,9.795480362E0
1.264282275E1,2.563881272E0,-5.081184209E0,7.453142322E0,9.377699644E0
1.265280875E1,2.409035892E0,-4.587923329E0,6.389360717E0,8.226568226E0
1.266279475E1,2.073118615E0,-3.654617956E0,4.734736097E0,6.330227413E0
1.267277975E1,1.211571735E0,-2.621516107E0,3.234315417E0,4.336017642E0
1.268276575E1,4.554115605E-1,-1.660722681E0,2.292678055E0,2.867363279E0
1.269275175E1,5.414281958E-1,-4.950077355E-1,2.226151943E0,2.343913314E0
1.270273775E1,8.246725845E-1,4.984777656E-1,3.087454995E0,3.234338155E0
1.271272275E1,7.161552787E-1,1.158436039E0,4.635342786E0,4.831278836E0
1.272270875E1,-1.899982560E-1,1.350091104E0,6.572378567E0,6.712302537E0
1.273269475E1,-1.971498100E0,1.318604140E0,8.142477007E0,8.480887539E0
1.274267975E1,-3.905982156E0,1.208922069E0,8.794484237E0,9.698512368E0
1.275266575E1,-5.047013081E0,1.304326409E0,8.818180078E0,1.024372531E1
1.276265175E1,-5.603023648E0,1.223654713E0,7.841133147E0,9.714657682E0
1.277263675E1,-5.527735484E0,6.976954727E-1,6.167258908E0,8.311300800E0
1.278262275E1,-5.050141926E0,-4.229919657E-2,4.819292098E0,6.980780688E0
1.279260875E1,-4.253406753E0,-1.195937669E0,3.996753747E0,5.957833199E0
1.280259375E1,-3.583805836E0,-1.995248905E0,3.698839864E0,5.523232640E0
1.281257975E1,-2.765847024E0,-2.094655811E0,3.856262112E0,5.187316281E0
1.282256575E1,-2.010458683E0,-2.137331860E0,4.282586698E0,5.191404475E0
1.283255175E1,-1.327323800E0,-2.499725037E0,4.526138433E0,5.338196591E0
1.284253675E1,-7.020956486E-1,-3.147999989E0,4.476402016E0,5.517337877E0
1.285252275E1,-1.981124371E-1,-3.839156667E0,4.353944948E0,5.808201879E0
1.286250875E1,3.706982696E-1,-4.238313043E0,4.332172256E0,6.071938003E0
1.287249375E1,1.648186251E0,-4.470168884E0,4.068065804E0,6.264829380E0
1.288247975E1,3.107158942E0,-3.863652115E0,4.035019680E0,6.392466518E0
1.289246575E1,4.009641595E0,-3.655268167E0,4.542570278E0,7.076238819E0
1.290245075E1,3.990997163E0,-4.178895684E0,5.758229216E0,8.157722182E0
1.291243675E1,4.327469341E0,-5.174268374E0,6.718654268E0,9.520523056E0
1.292242275E1,5.799729245E0,-6.517134073E0,6.365443851E0,1.079948014E1
1.293240775E1,8.303728012E0,-7.975607412E0,4.697110434E0,1.243483248E1
1.294239375E1,1.080445468E1,-8.136904610E0,2.409057527E0,1.373859584E1
1.295237975E1,1.211213417E1,-8.049540777E0,3.007524142E-1,1.454611126E1
1.296236575E1,1.195418918E1,-8.082596841E0,-9.767957935E-1,1.446323410E1
1.297235075E1,1.160194239E1,-9.807459385E0,-1.700586805E0,1.528670410E1
1.298233675E1,1.126868735E1,-1.027902505E1,-2.239705935E0,1.541615883E1
1.299232275E1,1.075475334E1,-9.932480457E0,-3.475565103E0,1.504654247E1
1.300230775E1,9.997157679E0,-9.493007237E0,-4.783046962E0,1.459239138E1
1.301229375E1,7.999192742E0,-9.112117270E0,-5.656958365E0,1.337979610E1
1.302227975E1,5.005638767E0,-9.028822514E0,-5.968486320E0,1.192471737E1
1.303226475E1,2.352997347E0,-8.874601616E0,-5.671130261E0,1.079151837E1
1.304225075E1,4.234758228E-1,-8.670070691E0,-5.068191696E0,1.005166775E1
1.305223675E1,-1.631518763E0,-8.408973216E0,-4.903578250E0,9.870043752E0
1.306222175E1,-3.253956800E0,-7.823300893E0,-5.589045879E0,1.015035495E1
1.307220775E1,-4.354090544E0,-6.951796789E0,-6.869032960E0,1.069902785E1
1.308219375E1,-4.832007453E0,-5.725691800E0,-8.285636727E0,1.117065882E1
1.309217975E1,-4.954317171E0,-4.398417701E0,-9.255318505E0,1.138210251E1
1.310216475E1,-4.969072620E0,-3.352490569E0,-9.371309137E0,1.112440159E1
1.311215075E1,-4.885889545E0,-2.752208394E0,-8.610999779E0,1.027598584E1
1.312213675E1,-4.577773440E0,-2.418590242E0,-7.549816092E0,9.154524098E0
1.313212175E1,-4.073165161E0,-2.024159878E0,-6.731813427E0,8.124359030E0
1.314210775E1,-3.387280918E0,-1.681314382E0,-6.060789297E0,7.143784499E0
1.315209308E1,-2.696148214E0,-1.404995436E0,-5.299150867E0,6.109355717E0
1.316207808E1,-2.253643797E0,-1.275678853E0,-4.659684745E0,5.330940707E0
1.317206408E1,-1.973479137E0,-1.120732316E0,-4.167936248E0,4.745772160E0
1.318205008E1,-1.685537680E0,-9.347597216E-1,-3.345527120E0,3.861005662E0
1.319203508E1,-1.363047364E0,-8.596136449E-1,-1.939490442E0,2.521598086E0
1.320202108E1,-1.094355526E0,-8.322217785E-1,-9.076118302E-1,1.647412013E0
1.321200708E1,-8.342327821E-1,-7.304292092E-1,-4.764399022E-1,1.206841392E0
1.322199308E1,-6.557155341E-1,-4.860845920E-1,-4.666504937E-1,9.402147497E-1
1.323197808E1,-4.548502278E-1,-1.908782619E-1,-7.793807099E-1,9.223651834E-1
1.324196408E1,-1.121098351E-1,3.215676248E-3,-1.059566347E0,1.065485711E0
1.325195008E1,4.264304209E-1,-1.833116725E-2,-7.331597127E-1,8.483525799E-1
1.326193508E1,7.392149431E-1,-4.356482640E-2,-2.601024248E-2,7.409542218E-1
1.327192108E1,8.143551725E-1,-1.292120638E-1,4.889826914E-1,9.586314083E-1
1.328190708E1,7.839636844E-1,-2.762856174E-1,8.190936830E-1,1.166982117E0
1.329189208E1,7.450387698E-1,-3.407893230E-1,1.102762653E0,1.373792415E0
1.330187808E1,5.688849664E-1,-2.290070781E-1,9.759564988E-1,1.152634129E0
1.331186408E1,3.562351817E-1,-1.024894112E-1,5.245450184E-1,6.423044920E-1
1.332184908E1,3.624075025E-1,-1.339708203E-1,1.999825960E-1,4.350636934E-1
1.333183508E1,2.173591322E-1,-2.172261080E-1,5.245829523E-2,3.117435598E-1
1.334182108E1,-7.351236463E-2,-3.846742845E-1,-6.779203355E-2,3.974595988E-1
1.335180708E1,-4.640905827E-1,-5.253647250E-1,-1.869647936E-1,7.254956907E-1
1.336179208E1,-7.749911320E-1,-5.778586882E-1,-3.122038937E-1,1.015875578E0
1.337177808E1,-9.283261764E-1,-5.968568766E-1,-5.044650221E-1,1.213471293E0
1.338176408E1,-7.556105357E-1,-6.160870533E-1,-5.844894308E-1,1.136722672E0
1.339174908E1,-7.634001964E-1,-7.773468290E-1,-5.374835911E-1,1.214881296E0
1.340173508E1,-6.877974522E-1,-8.954591234E-1,-6.876552918E-1,1.322037132E0
1.341172108E1,-2.892085487E-1,-8.135106884E-1,-1.022521312E0,1.338279141E0
1.342170608E1,-2.750062466E-2,-7.413092695E-1,-1.378868760E0,1.565750547E0
1.343169208E1,4.788518786E-2,-7.488676728E-1,-1.611914803E0,1.778022810E0
1.344167808E1,1.888522017E-1,-7.038898668E-1,-1.691114754E0,1.841465506E0
1.345166308E1,4.516447842E-1,-7.577305900E-1,-1.636024627E0,1.858686428E0
1.346164908E1,6.624047488E-1,-7.638317209E-1,-1.468251053E0,1.782689009E0
1.347163508E1,8.531105179E-1,-6.820013997E-1,-1.360798087E0,1.744905412E0
1.348162108E1,9.702378488E-1,-6.818310995E-1,-1.218241653E0,1.700108190E0
1.349160608E1,9.971642768E-1,-6.489953291E-1,-9.081783523E-1,1.496769672E0
1.350159208E1,8.506114179E-1,-7.289947410E-1,-6.563248140E-1,1.298358725E0
1.351157808E1,7.174510217E-1,-7.594135648E-1,-4.218035191E-1,1.126660170E0
1.352156308E1,5.765483272E-1,-7.095259979E-1,-2.575242412E-1,9.498177984E-1
1.353154908E1,5.434717977E-1,-6.985560367E-1,-1.245620656E-1,8.937884758E-1
1.354153508E1,4.509466267E-1,-7.407384351E-1,7.470402718E-3,8.672382004E-1
1.355152008E1,2.983623648E-1,-7.453667986E-1,4.310333490E-2,8.040209342E-1
1.356150608E1,2.283127213E-1,-8.190665665E-1,-4.570710003E-2,8.515197461E-1
1.357149208E1,1.824389756E-1,-7.993070707E-1,-2.524839413E-1,8.578600781E-1
1.358147708E1,1.372592944E-1,-7.433024392E-1,-4.900036883E-1,9.008008906E-1
1.359146308E1,1.611609578E-1,-7.328604814E-1,-7.062851787E-1,1.030483427E0
1.360144908E1,2.345107698E-1,-7.098895486E-1,-8.465423405E-1,1.129412417E0
1.361143508E1,3.690277201E-1,-6.853543393E-1,-9.062132493E-1,1.194618969E0
1.362142008E1,4.908550429E-1,-8.244654469E-1,-1.041735336E0,1.416296034E0
1.363140608E1,8.100890440E-1,-8.738093689E-1,-1.232641007E0,1.714406872E0
1.364139208E1,1.391503424E0,-9.323117848E-1,-1.579874400E0,2.302496507E0
1.365137708E1,2.041495703E0,-8.201252049E-1,-1.947233909E0,2.938031647E0
1.366136308E1,2.364152080E0,-8.092455831E-1,-2.077751949E0,3.249791783E0
1.367134908E1,2.275581965E0,-9.691526055E-1,-2.059320502E0,3.218436108E0
1.368133408E1,1.979327522E0,-1.426037518E0,-2.100455518E0,3.219197699E0
1.369132008E1,1.674821488E0,-1.677258169E0,-2.391084647E0,3.366824583E0
1.370130608E1,1.554053096E0,-1.433736401E0,-2.936943571E0,3.618883617E0
1.371129108E1,1.420717868E0,-1.297550217E0,-3.503799261E0,3.997334748E0
1.372127708E1,1.107465568E0,-1.391831307E0,-3.834876797E0,4.227286887E0
1.373126308E1,8.381159180E-1,-1.381539476E0,-3.825896351E0,4.153140078E0
1.374124908E1,4.840009367E-1,-1.511789421E0,-3.598529125E0,3.933087340E0
1.375123408E1,-6.026608229E-2,-1.893522994E0,-3.437557032E0,3.925029895E0
1.376122008E1,-4.455572480E-1,-1.971829930E0,-3.446876032E0,3.995946560E0
1.377120608E1,-4.811890107E-1,-1.804145526E0,-3.754610314E0,4.193278258E0
1.378119108E1,-7.002806729E-1,-1.649156889E0,-4.040653765E0,4.420067229E0
1.379117708E1,-9.365947241E-1,-1.692668652E0,-4.101523865E0,4.534846729E0
1.380116308E1,-8.481848234E-1,-2.088273429E0,-4.047347073E0,4.632636586E0
1.381114808E1,-7.962440068E-1,-2.446078149E0,-3.860622380E0,4.639149490E0
1.382113408E1,-1.145242674E0,-2.612924501E0,-3.526356357E0,4.535873057E0
1.383112008E1,-1.744924926E0,-3.260467089E0,-3.468685854E0,5.070225852E0
1.384110508E1,-2.156743155E0,-3.709273635E0,-4.113547202E0,5.944032513E0
1.385109108E1,-2.542458828E0,-3.788474756E0,-5.300727276E0,6.993879290E0
1.386107708E1,-3.155369235E0,-3.846691097E0,-6.526158081E0,8.206346733E0
1.387106308E1,-3.636484571E0,-4.029879101E0,-6.961979131E0,8.827972531E0
1.388104808E1,-4.126022821E0,-4.900785912E0,-6.712469083E0,9.278955117E0
1.389103408E1,-3.818168086E0,-5.532286372E0,-5.102570985E0,8.439243490E0
1.390102008E1,-3.131465818E0,-6.076313655E0,-2.201671990E0,7.181575409E0
1.391100508E1,-1.966254902E0,-6.411377823E0,1.091841808E0,6.794412591E0
1.392099108E1,-1.753351933E-1,-6.896292679E0,3.816555424E0,7.883888029E0
1.393097708E1,1.636076667E0,-7.175686677E0,5.444004525E0,9.154474939E0
1.394096208E1,2.898230910E0,-5.796836627E0,6.583194162E0,9.238046474E0
1.395094808E1,3.412700518E0,-4.410286964E0,6.931586473E0,8.896294002E0
1.396093408E1,3.428989107E0,-3.308247612E0,6.659911970E0,8.188827511E0
1.397091908E1,3.032149690E0,-2.148986823E0,6.190250745E0,7.220199471E0
1.398090508E1,2.366254739E0,-1.431030894E0,5.653986810E0,6.294011261E0
1.399089108E1,1.521564211E0,-6.473826671E-1,5.503133909E0,5.746193939E0
1.400087708E1,5.257138038E-1,-7.031744599E-2,5.572943231E0,5.598126098E0
1.401086208E1,-5.379964650E-1,1.459500110E-1,5.415668918E0,5.444282453E0
1.402084808E1,-1.454110731E0,2.931829011E-1,4.968760963E0,5.185458489E0
1.403083408E1,-2.670878302E0,4.402625942E-1,4.499224284E0,5.250756251E0
1.404081908E1,-4.108823821E0,6.303663924E-1,3.825180067E0,5.649052799E0
1.405080508E1,-4.630200745E0,9.031059659E-1,2.885923106E0,5.530181868E0
1.406079108E1,-4.331284649E0,1.378424080E0,2.267768331E0,5.079650860E0
1.407077608E1,-4.272638830E0,1.714287562E0,2.188270172E0,5.097327806E0
1.408076208E1,-4.580387730E0,1.655558420E0,2.488377931E0,5.469264134E0
1.409074808E1,-4.206724922E0,1.162019798E0,2.801449551E0,5.186033568E0
1.410073408E1,-3.265843604E0,5.765530050E-1,3.100880202E0,4.540220902E0
1.411071908E1,-2.441093252E0,1.521106374E-1,3.323044576E0,4.126099752E0
1.412070508E1,-1.828609691E0,-6.144546568E-3,3.265846528E0,3.742940649E0
1.413069108E1,-1.337911354E0,4.168173060E-2,3.120081874E0,3.395092790E0
1.414067608E1,-8.985112238E-1,1.324365109E-2,3.150492657E0,3.276141297E0
1.415066233E1,-5.966440380E-1,-6.853916153E-2,3.328960789E0,3.382700350E0
1.416064833E1,-4.762861204E-1,2.002671361E-3,3.830426774E0,3.859925096E0
1.417063333E1,-6.164707768E-1,1.677902386E-1,4.575453849E0,4.619844988E0
1.418061933E1,-8.680250108E-1,-8.855366908E-2,5.205759138E0,5.278374502E0
1.419060533E1,-9.399118495E-1,-8.808242735E-1,5.422666281E0,5.573562171E0
1.420059033E1,-7.361205965E-1,-1.465943888E0,5.605686470E0,5.840769283E0
1.421057633E1,-3.625472510E-1,-1.830600376E0,6.044919954E0,6.326420433E0
1.422056233E1,-2.744396514E-1,-2.387221100E0,6.328777716E0,6.769606272E0
1.423054833E1,3.453260314E-1,-3.033195465E0,6.275171612E0,6.978345331E0
1.424053333E1,1.423074880E0,-3.655164086E0,6.154885030E0,7.298491375E0
1.425051933E1,2.141978350E0,-4.124981432E0,6.705862899E0,8.159175221E0
1.426050533E1,2.499985238E0,-4.543083371E0,8.212061212E0,9.712233629E0
1.427049033E1,2.350797039E0,-5.849963844E0,1.043805177E1,1.219431214E1
1.428047633E1,2.144152345E0,-7.718164448E0,1.252841032E1,1.487039061E1
1.429046233E1,2.889001665E0,-9.630343714E0,1.318223896E1,1.657894069E1
1.430044733E1,4.901493425E0,-1.233086097E1,1.178784291E1,1.774902844E1
1.431043333E1,9.353737670E0,-1.504894735E1,8.024404181E0,1.945133124E1
1.432041933E1,1.467447646E1,-1.501642397E1,2.380255312E0,2.113051971E1
1.433040433E1,1.822448012E1,-1.293782417E1,-3.779073603E0,2.266716496E1
1.434039033E1,1.831545929E1,-1.024829325E1,-8.793721760E0,2.275550716E1
1.435037633E1,1.558368107E1,-9.104756210E0,-1.105678074E1,2.116601289E1
1.436036233E1,1.180358011E1,-8.943961288E0,-1.052035250E1,1.816581305E1
1.437034733E1,7.838633462E0,-9.110228620E0,-9.022947816E0,1.502844062E1
1.438033333E1,4.051192494E0,-9.268650742E0,-7.696498759E0,1.271047365E1
1.439031933E1,7.047087693E-1,-8.995757679E0,-6.977007059E0,1.140609040E1
1.440030433E1,-1.994403398E0,-8.434909126E0,-6.756051305E0,1.098952074E1
1.441029033E1,-3.348232042E0,-7.555559812E0,-6.486779423E0,1.050597207E1
1.442027633E1,-3.428693238E0,-6.413444813E0,-6.427799728E0,9.705916806E0
1.443026133E1,-3.036248004E0,-5.502539247E0,-6.468125051E0,9.018502191E0
1.444024733E1,-2.881070502E0,-4.843229721E0,-6.513985932E0,8.613330024E0
1.445023333E1,-2.607410284E0,-4.427424861E0,-6.486936128E0,8.275325952E0
1.446021933E1,-2.445040122E0,-3.967070649E0,-6.251754683E0,7.797455184E0
1.447020433E1,-2.324951761E0,-3.501904763E0,-6.024925400E0,7.346323144E0
1.448019033E1,-2.165225710E0,-3.042902428E0,-5.896020607E0,6.979291981E0
1.449017633E1,-1.857737596E0,-2.710035059E0,-5.734988288E0,6.609506007E0
1.450016133E1,-1.152216648E0,-2.324429459E0,-5.279200752E0,5.882222037E0
1.451014733E1,-5.735878819E-1,-2.106948120E0,-4.629444115E0,5.118592214E0
1.452013333E1,-3.105023539E-1,-1.844374516E0,-3.653922138E0,4.104786968E0
1.453011833E1,-6.622427809E-1,-1.710829957E0,-2.553104854E0,3.143858940E0
1.454010433E1,-1.267904395E0,-1.735875336E0,-1.571661986E0,2.662886805E0
1.455009033E1,-1.887741414E0,-1.736924180E0,-1.022825367E0,2.761638098E0
1.456007533E1,-2.369664835E0,-1.662108764E0,-8.898789793E-1,3.028168022E0
1.457006133E1,-2.338445381E0,-1.539150443E0,-1.080485346E0,3.000793140E0
1.458004733E1,-1.820859207E0,-1.388939128E0,-1.208724141E0,2.589535518E0
1.459003333E1,-1.541374578E0,-1.194061882E0,-1.033866080E0,2.206920578E0
1.460001833E1,-1.372329234E0,-1.104962302E0,-6.119690055E-1,1.865136799E0
1.461000433E1,-1.100691569E0,-1.163536639E0,1.253643950E-2,1.601716767E0
1.461999033E1,-9.581054610E-1,-1.178798237E0,6.550583071E-1,1.654277106E0
1.462997533E1,-7.603654915E-1,-1.190744025E0,7.122639567E-1,1.582196877E0
1.463996133E1,-6.526714736E-1,-1.110201992E0,2.164025277E-1,1.305893782E0
1.464994733E1,-3.636956441E-1,-8.528431539E-1,-3.866892350E-1,1.004561860E0
1.465993233E1,-2.213925415E-1,-7.299880368E-1,-6.927430272E-1,1.030431993E0
1.466991833E1,-2.022417408E-1,-7.693308080E-1,-7.505895317E-1,1.093689288E0
1.467990433E1,-1.591764128E-1,-8.102752047E-1,-7.103016311E-1,1.089225158E0
1.468988933E1,-2.525406593E-1,-7.686032682E-1,-6.622486281E-1,1.045514712E0
1.469987533E1,-5.252776015E-1,-8.235216332E-1,-6.210204953E-1,1.157484728E0
1.470986133E1,-8.901339179E-1,-1.007498134E0,-7.889115983E-1,1.558772720E0
1.471984733E1,-9.550017589E-1,-1.037847815E0,-1.197333180E0,1.850071131E0
1.472983233E1,-8.312296522E-1,-9.219933495E-1,-1.522592736E0,1.964510909E0
1.473981833E1,-7.362205839E-1,-8.928322618E-1,-1.479030395E0,1.877951305E0
1.474980433E1,-5.587265986E-1,-9.729438671E-1,-1.096734758E0,1.568955802E0
1.475978933E1,-3.011064631E-1,-1.049066648E0,-6.898276055E-1,1.291149898E0
1.476977533E1,-2.093683273E-1,-1.037168807E0,-4.888851160E-1,1.165574059E0
1.477976133E1,-2.629030949E-1,-1.080719381E0,-6.477796930E-1,1.287125071E0
1.478974633E1,-2.753781295E-1,-1.121394513E0,-1.117232757E0,1.606725802E0
1.479973233E1,-8.183061361E-2,-1.001636593E0,-1.780249709E0,2.044324128E0
1.480971833E1,4.219187093E-1,-7.836255692E-1,-2.174799941E0,2.349859403E0
1.481970333E1,9.643479484E-1,-7.696086969E-1,-2.049449086E0,2.392176011E0
1.482968933E1,1.390713465E0,-9.290291579E-1,-1.719868437E0,2.398984485E0
1.483967533E1,1.566305936E0,-9.612804991E-1,-1.484158988E0,2.362224034E0
1.484966133E1,1.566310029E0,-1.005223056E0,-1.444465749E0,2.355903606E0
1.485964633E1,1.598308332E0,-1.195731189E0,-1.680222561E0,2.609120628E0
1.486963233E1,1.760745152E0,-1.035444609E0,-2.245988622E0,3.035923899E0
1.487961833E1,2.234636838E0,-9.593812504E-1,-2.824594585E0,3.727244122E0
1.488960333E1,2.828395275E0,-8.900184354E-1,-3.190819734E0,4.355833241E0
1.489958933E1,3.103429003E0,-7.100927393E-1,-2.974994327E0,4.357303584E0
1.490957533E1,3.192194415E0,-9.021522119E-1,-2.190734189E0,3.975336474E0
1.491956033E1,2.905594309E0,-1.162772261E0,-1.060500074E0,3.304417956E0
1.492954633E1,2.487399691E0,-1.428473322E0,2.710430038E-1,2.881172950E0
1.493953233E1,2.294729258E0,-1.623250215E0,1.421390297E0,3.149773643E0
1.494951833E1,2.417857001E0,-1.550184870E0,2.299768534E0,3.679407686E0
1.495950333E1,2.957401224E0,-1.429333155E0,3.118186791E0,4.529051129E0
1.496948933E1,3.722454429E0,-1.618588376E0,3.663489937E0,5.467874708E0
1.497947533E1,4.465500467E0,-1.804531880E0,3.977497112E0,6.246400004E0
1.498946033E1,5.254376982E0,-1.990472461E0,4.003624810E0,6.899236893E0
1.499944633E1,5.863163933E0,-2.379810631E0,3.673213856E0,7.316603719E0
1.500943233E1,6.185020995E0,-3.012058073E0,2.680165142E0,7.383106645E0
1.501941733E1,6.169356889E0,-3.628008740E0,1.096133957E0,7.240505610E0
1.502940333E1,5.835042919E0,-3.884779859E0,-8.216212150E-1,7.057924755E0
1.503938933E1,5.081281273E0,-4.272314894E0,-2.614148616E0,7.134834750E0
1.504937433E1,4.083237575E0,-4.712877451E0,-4.007328436E0,7.412335944E0
1.505936033E1,2.814885283E0,-4.764311606E0,-4.736310167E0,7.283877967E0
1.506934633E1,9.338243133E-1,-4.671130962E0,-4.892097242E0,6.828184805E0
1.507933233E1,-7.338729268E-1,-4.543314629E0,-4.474744623E0,6.419004341E0
1.508931733E1,-1.946648603E0,-4.523493152E0,-3.635842547E0,6.121338261E0
1.509930333E1,-2.778940694E0,-4.442433202E0,-2.886379774E0,5.982383499E0
1.510928933E1,-3.155176277E0,-4.252944823E0,-2.244187095E0,5.751439187E0
1.511927433E1,-3.101905804E0,-3.908396471E0,-1.917815398E0,5.345596177E0
1.512926033E1,-3.187328947E0,-3.405596736E0,-1.952076427E0,5.056456993E0
1.513924633E1,-3.518347426E0,-3.151497209E0,-2.080711517E0,5.161401330E0
1.514923125E1,-3.758586713E0,-2.794580827E0,-1.841906844E0,5.032819975E0
1.515921725E1,-3.905714353E0,-2.745815048E0,-1.736960287E0,5.080466113E0
1.516920325E1,-3.882397411E0,-2.801222679E0,-2.243397575E0,5.287030437E0
1.517918925E1,-3.750668414E0,-2.345871930E0,-2.961850955E0,5.323832242E0
1.518917425E1,-3.434280252E0,-2.229631621E0,-3.661656542E0,5.493019812E0
1.519916025E1,-2.795752609E0,-2.159996545E0,-4.323173976E0,5.583157794E0
1.520914625E1,-2.404867997E0,-1.710567271E0,-4.054744385E0,5.015015703E0
1.521913125E1,-2.733638806E0,-2.108263890E0,-3.720165828E0,5.075154337E0
1.522911725E1,-3.378021267E0,-1.747488930E0,-2.794506275E0,4.719534994E0
1.523910325E1,-4.066159027E0,-1.343315350E0,-1.069808915E0,4.413913964E0
1.524908825E1,-4.726794409E0,-1.865076436E0,5.595729831E-1,5.112163673E0
1.525907425E1,-5.179342003E0,-2.014709609E0,1.845944932E0,5.855950058E0
1.526906025E1,-5.258160131E0,-1.696362630E0,3.055449091E0,6.313609370E0
1.527904525E1,-4.736495524E0,-1.754122596E0,3.829301770E0,6.338366349E0
1.528903125E1,-3.633792513E0,-1.623716823E0,3.657886842E0,5.405648943E0
1.529901725E1,-2.572106550E0,-1.253133743E0,3.005402187E0,4.149520284E0
1.530900325E1,-1.856402677E0,-1.296201995E0,1.950777030E0,2.988628704E0
1.531898825E1,-1.575184933E0,-9.299242204E-1,9.383901116E-1,2.055855693E0
1.532897425E1,-1.495952822E0,-5.661625028E-1,1.944333690E-1,1.611278734E0
1.533896025E1,-1.581494663E0,-3.814594853E-1,-2.310673445E-1,1.643176444E0
1.534894525E1,-1.678831508E0,-3.616157895E-1,-3.190205777E-1,1.746715587E0
1.535893125E1,-1.479248496E0,-3.032711023E-1,2.473439464E-1,1.530140027E0
1.536891725E1,-1.008311993E0,-2.679346240E-1,1.405612463E0,1.750493769E0
1.537890225E1,-4.791132492E-1,-1.959168077E-1,2.615246138E0,2.665979232E0
1.538888825E1,-1.276716149E-1,-2.244746089E-2,3.691924362E0,3.694199429E0
1.539887425E1,3.820570707E-2,-1.534815171E-1,4.221216077E0,4.224178194E0
1.540886025E1,1.269956768E-1,-3.378006649E-1,4.268235877E0,4.283465266E0
1.541884525E1,1.364933091E-1,-4.702664119E-1,3.887175171E0,3.917896340E0
1.542883125E1,-1.963799071E-1,-6.583608145E-1,3.014373570E0,3.091674635E0
1.543881725E1,-8.553178418E-1,-6.383832175E-1,1.897788684E0,2.177315694E0
1.544880225E1,-1.891648523E0,-5.046807843E-1,1.052849066E0,2.222954787E0
1.545878825E1,-2.924438131E0,-3.938050041E-1,9.517103612E-2,2.952368251E0
1.546877425E1,-3.714982857E0,-1.928674847E-1,-1.084655580E0,3.874890091E0
1.547875925E1,-3.795354590E0,3.538512719E-1,-1.912095652E0,4.264508995E0
1.548874525E1,-3.081619474E0,9.728144243E-1,-1.963604944E0,3.781334534E0
1.549873125E1,-2.529715406E0,1.117736056E0,-1.240334188E0,3.031043191E0
1.550871625E1,-2.579110345E0,5.646596222E-1,-3.947572231E-2,2.640494082E0
1.551870225E1,-2.549712299E0,-2.198583783E-1,1.288170260E0,2.865092168E0
1.552868825E1,-2.453307500E0,-6.172908488E-1,2.349277348E0,3.452371611E0
1.553867425E1,-2.689465431E0,-6.395282485E-1,2.929325818E0,4.027799702E0
1.554865925E1,-2.928321267E0,-7.045940177E-1,2.936985086E0,4.206827732E0
1.555864525E1,-2.832394770E0,-8.330796381E-1,2.589033070E0,3.926776548E0
1.556863125E1,-2.466326326E0,-7.511128575E-1,2.111367007E0,3.332387539E0
1.557861625E1,-1.657072265E0,-6.458528893E-1,1.541268159E0,2.353406463E0
1.558860225E1,-5.962288857E-1,-8.491884249E-1,1.083632902E0,1.500290016E0
1.559858825E1,3.730301392E-1,-8.159813563E-1,1.140678338E0,1.451249162E0
1.560857325E1,1.479528578E0,-1.199496503E0,1.502043867E0,2.425681853E0
1.561855925E1,2.279604850E0,-1.377835850E0,1.972014994E0,3.314192667E0
1.562854525E1,2.593399186E0,-1.713060378E0,2.492582663E0,3.984126445E0
1.563853125E1,2.904041873E0,-2.286361454E0,2.839739458E0,4.661011488E0
1.564851625E1,3.185670676E0,-2.212545180E0,3.092112887E0,4.960344336E0
1.565850225E1,3.551569551E0,-2.330635255E0,3.242636005E0,5.344173952E0
1.566848825E1,3.687451242E0,-2.852605087E0,3.218274166E0,5.664974938E0
1.567847325E1,3.481559669E0,-3.149887471E0,3.270405017E0,5.721765268E0
1.568845925E1,3.751213959E0,-3.909404239E0,3.203169346E0,6.294071935E0
1.569844525E1,4.426156307E0,-4.662939013E0,2.964197735E0,7.079571181E0
1.570843025E1,5.124779295E0,-4.764845749E0,2.864086972E0,7.561091986E0
1.571841625E1,5.755782157E0,-5.305835989E0,2.176003006E0,8.125017714E0
1.572840225E1,6.400585617E0,-5.555750663E0,1.180716855E0,8.557333344E0
1.573838725E1,7.157811154E0,-5.376932284E0,3.611673081E-1,8.959693249E0
1.574837325E1,7.281484442E0,-5.302286729E0,-6.423562543E-1,9.030331212E0
1.575835925E1,6.713043280E0,-5.402531394E0,-1.282570381E0,8.711904632E0
1.576834525E1,5.644962217E0,-5.739530990E0,-1.961857796E0,8.285933890E0
1.577833025E1,4.612697690E0,-5.920344440E0,-3.297882253E0,8.197773211E0
1.578831625E1,3.738825463E0,-5.908841212E0,-5.089307746E0,8.648368265E0
1.579830225E1,2.941706128E0,-5.052289608E0,-6.613434207E0,8.827048048E0
1.580828725E1,2.087717943E0,-4.411053242E0,-7.913720482E0,9.297468945E0
1.581827325E1,1.042143983E0,-3.918783173E0,-8.650484272E0,9.553732453E0
1.582825925E1,-2.207347298E-1,-3.474430159E0,-8.942441597E0,9.596231055E0
1.583824425E1,-1.164897505E0,-3.013231024E0,-8.955749860E0,9.520609379E0
1.584823025E1,-1.454725274E0,-2.776164436E0,-8.797903689E0,9.339508762E0
1.585821625E1,-1.590448505E0,-2.459333641E0,-8.483488378E0,8.974821640E0
1.586820225E1,-1.651044955E0,-2.369903255E0,-7.775137963E0,8.294284853E0
1.587818725E1,-1.963469288E0,-2.294208271E0,-6.341741577E0,7.023979604E0
1.588817325E1,-2.233555103E0,-2.363105721E0,-4.872425162E0,5.857778077E0
1.589815925E1,-2.022291693E0,-2.389713329E0,-3.651634122E0,4.809867488E0
1.590814425E1,-1.513054758E0,-2.176248589E0,-2.807576848E0,3.861072439E0
1.591813025E1,-1.031885628E0,-2.026901784E0,-2.353551663E0,3.272968717E0
1.592811625E1,-7.521250105E-1,-1.790284555E0,-1.829338254E0,2.667824819E0
1.593810125E1,-5.642902243E-1,-1.509324235E0,-1.244683932E0,2.036104416E0
1.594808725E1,-6.271290815E-1,-1.297399797E0,-9.189273620E-1,1.709082975E0
1.595807325E1,-8.020175475E-1,-1.125374713E0,-8.561697811E-1,1.625646667E0
1.596805825E1,-6.740272593E-1,-9.987713841E-1,-7.805793160E-1,1.435674438E0
1.597804425E1,-4.950065660E-1,-9.107506156E-1,-6.440813291E-1,1.220384752E0
1.598803025E1,-4.013838726E-1,-8.406819686E-1,-6.811748958E-1,1.154059974E0
1.599801625E1,-1.753574127E-1,-8.224354398E-1,-8.039979994E-1,1.163427290E0
1.600800125E1,8.963196874E-3,-7.956765345E-1,-8.801848805E-1,1.186552532E0
1.601798725E1,-1.252713329E-1,-7.431001255E-1,-9.126538843E-1,1.183565721E0
1.602797325E1,-4.002916127E-1,-7.287737162E-1,-8.984445655E-1,1.224151601E0
1.603795825E1,-5.274860948E-1,-6.936970004E-1,-9.626060629E-1,1.298486635E0
1.604794425E1,-2.895739996E-1,-6.401177940E-1,-1.139656245E0,1.338812999E0
1.605793025E1,8.533309579E-2,-4.901614170E-1,-1.090040281E0,1.198218580E0
1.606791525E1,2.275034666E-1,-4.576788184E-1,-8.435544133E-1,9.863122104E-1
1.607790125E1,2.149822390E-1,-5.274323004E-1,-6.622538906E-1,8.734886435E-1
1.608788725E1,1.227353954E-1,-5.430062132E-1,-6.818876714E-1,8.802786611E-1
1.609787225E1,2.027486944E-1,-5.297141764E-1,-6.716328245E-1,8.790874773E-1
1.610785825E1,2.461712873E-1,-4.832187255E-1,-6.371015078E-1,8.366594113E-1
1.611784425E1,5.821663320E-2,-4.793519618E-1,-6.504243886E-1,8.100736787E-1
1.612783025E1,-1.275032151E-1,-4.613979399E-1,-7.133228874E-1,8.590545213E-1
1.613781525E1,-2.934840328E-1,-4.948875752E-1,-7.560379672E-1,9.500736800E-1
1.614780125E1,-5.495663506E-1,-5.683925577E-1,-6.879325229E-1,1.048019289E0
1.615778787E1,-8.549892282E-1,-6.072293255E-1,-6.676853693E-1,1.243196600E0
1.616777287E1,-9.774480504E-1,-5.777072453E-1,-8.091499811E-1,1.394228835E0
1.617775888E1,-8.525708199E-1,-5.871782729E-1,-8.931195062E-1,1.367229966E0
1.618774487E1,-5.408276868E-1,-5.800319521E-1,-7.484073508E-1,1.090433499E0
1.619772987E1,-2.034579617E-1,-5.873770782E-1,-6.697529447E-1,9.137702015E-1
1.620771588E1,1.373698068E-1,-6.609017220E-1,-6.289206684E-1,9.226065017E-1
1.621770187E1,5.524449348E-1,-7.174065828E-1,-7.887215638E-1,1.200811940E0
1.622768787E1,9.789320737E-1,-5.593396792E-1,-1.059674520E0,1.547281154E0
1.623767287E1,1.225317954E0,-4.097423212E-1,-1.075004677E0,1.680752187E0
1.624765888E1,1.364788080E0,-4.459982742E-1,-6.650447667E-1,1.582354419E0
1.625764487E1,1.469045105E0,-5.542575717E-1,-5.895509999E-2,1.571232217E0
1.626762987E1,1.572622098E0,-6.140921295E-1,5.216921619E-1,1.767034838E0
1.627761588E1,1.640901790E0,-6.966574457E-1,1.050870880E0,2.069352528E0
1.628760187E1,2.004923708E0,-8.742236441E-1,1.258337181E0,2.523370468E0
1.629758687E1,2.411673571E0,-8.431641117E-1,1.053595755E0,2.763541052E0
1.630757287E1,2.591437445E0,-9.322863494E-1,5.426169348E-1,2.806980407E0
1.631755887E1,2.783763478E0,-1.162771311E0,-1.035752392E-1,3.018626186E0
1.632754387E1,3.135191079E0,-1.393428620E0,-9.511572146E-1,3.560304266E0
