"Time (s)","Linear Acceleration x (m/s^2)","Linear Acceleration y (m/s^2)","Linear Acceleration z (m/s^2)","Absolute acceleration (m/s^2)"
2.844124974E-3,2.690827248E-1,1.218881339E-1,3.887708437E-1,4.882673437E-1
1.283012499E-2,1.170986795E-1,3.187258780E-2,5.385519505E-1,5.520563069E-1
2.281612501E-2,6.612002224E-2,-6.417962372E-2,3.514521593E-1,3.633311186E-1
3.280212497E-2,1.346590376E-1,-6.541689456E-2,8.477293253E-2,1.720432405E-1
4.278812499E-2,1.233967155E-1,-4.219292343E-2,-1.569457000E-1,2.040562299E-1
5.277412501E-2,5.229545027E-2,-1.446893513E-2,-2.968461818E-1,3.017645105E-1
6.276012497E-2,-2.604203671E-2,-1.231715977E-2,-3.424141181E-1,3.436238181E-1
7.274712500E-2,-6.992743671E-2,2.542369366E-3,-3.387140000E-1,3.458662803E-1
8.273312502E-2,-5.744509310E-2,6.960700929E-2,-2.960731798E-1,3.095228623E-1
9.271912498E-2,2.738192618E-2,9.725966156E-2,-1.808362538E-1,2.071496134E-1
1.027051250E-1,1.091248316E-1,1.404255617E-1,-7.147285581E-2,1.916662108E-1
1.126911250E-1,1.437973586E-1,1.381556726E-1,-2.718487501E-2,2.012552797E-1
1.226771250E-1,1.407047662E-1,1.669608110E-1,-7.622313380E-2,2.312654531E-1
1.326631250E-1,1.234081176E-1,2.593216753E-1,-1.348052180E-1,3.172534343E-1
1.426491250E-1,-4.787700176E-3,3.366709828E-1,-9.005004466E-2,3.485387831E-1
1.526351250E-1,-2.070273945E-1,4.655634964E-1,7.438243032E-3,5.095733889E-1
1.626211250E-1,-3.303244150E-1,5.358335799E-1,1.827547252E-1,6.554625344E-1
1.726071250E-1,-3.890617427E-1,5.997793150E-1,3.752789783E-1,8.074271348E-1
1.825931250E-1,-3.869272166E-1,7.058261722E-1,6.208269525E-1,1.016528092E0
1.925792500E-1,-3.766396254E-1,7.874176347E-1,8.929505217E-1,1.248697150E0
2.025652500E-1,-4.405777591E-1,8.217600864E-1,1.259799569E0,1.567320438E0
2.125512500E-1,-6.089620748E-1,8.722835380E-1,1.746863278E0,2.045298191E0
2.225372500E-1,-8.557034656E-1,9.868199676E-1,2.531432149E0,2.848541871E0
2.325232500E-1,-1.039066594E0,1.271981074E0,3.531124177E0,3.894410506E0
2.425092500E-1,-1.191036898E0,1.460463731E0,4.291119540E0,4.686707811E0
2.524952500E-1,-1.608781865E0,1.719895919E0,4.970076587E0,5.499807482E0
2.624812500E-1,-2.013635767E0,1.988971335E0,5.556064659E0,6.235430255E0
2.724672500E-1,-2.264335431E0,2.082313946E0,5.771529293E0,6.540167941E0
2.824532500E-1,-2.189639005E0,2.012143850E0,5.706296001E0,6.434676052E0
2.924392500E-1,-1.651256039E0,1.825622349E0,5.052173249E0,5.619964235E0
3.024252500E-1,-8.828751844E-1,1.565145848E0,4.178508598E0,4.548525500E0
3.124122500E-1,-5.494026285E-1,1.513897927E0,3.500209948E0,3.852946906E0
3.223982500E-1,-2.589913076E-1,1.675807913E0,2.940250171E0,3.394183220E0
3.323842500E-1,6.367243624E-1,1.868347369E0,3.448671420E0,3.973597157E0
3.423702500E-1,1.250966765E0,1.812211175E0,4.091597924E0,4.646525665E0
3.523562500E-1,1.641321620E0,1.345665931E0,4.014776327E0,4.541275417E0
3.623422500E-1,2.039231077E0,7.251810408E-1,3.559649234E0,4.165987709E0
3.723282500E-1,2.235837856E0,3.079178846E-1,3.198348902E0,3.914488477E0
3.823142500E-1,2.172659860E0,-1.254578590E-2,2.125092176E0,3.039181637E0
3.923002500E-1,2.375865222E0,-4.226566279E-1,6.264016879E-1,2.493141242E0
4.022862500E-1,2.375211504E0,-6.933458751E-1,4.573809028E-1,2.516258230E0
4.122722500E-1,1.650452047E0,-1.065997115E0,1.741774080E-1,1.972480565E0
4.222582500E-1,9.509227413E-1,-1.379612526E0,-7.688445389E-1,1.843558165E0
4.322442500E-1,6.302129030E-1,-1.654162690E0,-1.466392808E0,2.298636634E0
4.422302500E-1,4.816942102E-1,-2.133293481E0,-1.946117091E0,2.927514666E0
4.522162500E-1,6.694904047E-1,-2.696255218E0,-2.274397466E0,3.590389037E0
4.622022500E-1,1.167412392E0,-3.181738424E0,-2.405724467E0,4.156178690E0
4.721882500E-1,1.595841392E0,-3.457125324E0,-2.617115493E0,4.620359159E0
4.821742500E-1,2.222581633E0,-3.860853345E0,-3.226361450E0,5.500496875E0
4.921602500E-1,3.005294014E0,-4.559388624E0,-4.081537497E0,6.817533650E0
5.021462500E-1,3.699194205E0,-5.291801502E0,-5.363379022E0,8.393630647E0
5.121322500E-1,3.815761957E0,-6.295827486E0,-6.511496773E0,9.828381010E0
5.221182500E-1,3.257118974E0,-7.371909294E0,-7.084284171E0,1.073037524E1
5.321042500E-1,2.537295737E0,-7.783405926E0,-7.612871296E0,1.117922568E1
5.420902500E-1,1.152097950E0,-7.705119309E0,-7.932379532E0,1.111840089E1
5.520762500E-1,-2.396855557E-1,-7.838891324E0,-7.989589859E0,1.119549965E1
5.620632500E-1,-1.178710967E0,-8.045261199E0,-7.544509744E0,1.109212399E1
5.720492500E-1,-1.919176045E0,-8.168166164E0,-6.401865572E0,1.055395935E1
5.820352500E-1,-2.253961886E0,-8.514294434E0,-4.759378603E0,1.001125559E1
5.920212500E-1,-2.425396401E0,-8.986817286E0,-3.189300335E0,9.839566518E0
6.020072500E-1,-2.888019918E0,-9.012677767E0,-2.681354173E0,9.836598994E0
6.119932500E-1,-3.896889151E0,-8.501811798E0,-2.821197060E0,9.768607974E0
6.219792500E-1,-5.221408042E0,-8.402180505E0,-3.167220080E0,1.038706033E1
6.319652500E-1,-6.634696437E0,-9.087544346E0,-3.942064154E0,1.192235417E1
6.419512500E-1,-8.100269465E0,-1.020205815E1,-4.939392153E0,1.393176050E1
6.519372500E-1,-9.775243565E0,-1.144103169E1,-5.173716981E0,1.591288598E1
6.619232500E-1,-1.133433170E1,-1.258201057E1,-4.301846257E0,1.747226220E1
6.719092500E-1,-1.298860139E1,-1.370285165E1,-2.629602807E0,1.906270496E1
6.818952500E-1,-1.519105925E1,-1.399062120E1,6.594242768E-1,2.066254106E1
6.918812500E-1,-1.724408449E1,-1.247332487E1,5.061044644E0,2.187593326E1
7.018672500E-1,-1.845671399E1,-1.044895332E1,8.828781080E0,2.297342578E1
7.118532500E-1,-1.905684998E1,-8.066978928E0,1.350128292E1,2.470879036E1
7.218392500E-1,-1.767212407E1,-5.559190580E0,1.732386390E1,2.536384887E1
7.318252500E-1,-1.492300183E1,-5.207503948E0,1.795494219E1,2.392057755E1
7.418112500E-1,-1.288880930E1,-6.193294805E0,1.588704865E1,2.137467241E1
7.517972500E-1,-1.200649487E1,-6.674532348E0,1.220364544E1,1.837482688E1
7.617832500E-1,-1.154711305E1,-6.814926919E0,8.474820465E0,1.586195544E1
7.717692500E-1,-1.181330286E1,-6.493669782E0,5.612497891E0,1.460212328E1
7.817552500E-1,-1.254494157E1,-6.417843674E0,5.010545166E0,1.495559558E1
7.917412500E-1,-1.417885710E1,-7.037063811E0,5.806757598E0,1.686056611E1
8.017282500E-1,-1.644394682E1,-6.727668335E0,8.702802234E0,1.978392466E1
8.117142500E-1,-1.607112017E1,-6.136577983E0,1.261228278E1,2.133092051E1
8.217002500E-1,-1.272450605E1,-5.280461411E0,1.597122984E1,2.109209591E1
8.316862500E-1,-7.795720162E0,-4.041277078E0,1.850107681E1,2.047913613E1
8.416722500E-1,-2.661040654E0,-3.276203701E0,1.998402894E1,2.042488826E1
8.516582500E-1,2.674990941E0,-3.196977145E0,2.106970018E1,2.147809361E1
8.616442500E-1,7.726175133E0,-3.151063346E0,2.095667116E1,2.255670739E1
8.716302500E-1,1.145622977E1,-3.352313983E0,1.974337625E1,2.307128335E1
8.816162500E-1,1.333383036E1,-3.764706701E0,1.753686043E1,2.234962018E1
8.916022500E-1,1.402817786E1,-4.011209818E0,1.399557964E1,2.021771074E1
9.015882500E-1,1.424864479E1,-4.538017928E0,1.054966810E1,1.830062792E1
9.115742500E-1,1.401756166E1,-5.111911912E0,7.665634232E0,1.677455294E1
9.215602500E-1,1.351769840E1,-5.160246166E0,5.339946890E0,1.542307827E1
9.315462500E-1,1.266813421E1,-4.882834375E0,3.655803772E0,1.406017771E1
9.415322500E-1,1.149152123E1,-4.621101308E0,2.528359437E0,1.264129103E1
9.515182500E-1,1.032312709E1,-4.095426680E0,1.889983821E0,1.126550094E1
9.615042500E-1,8.862727091E0,-3.301415141E0,1.745151798E0,9.617319180E0
9.714902500E-1,7.352757323E0,-2.394921737E0,1.803860182E0,7.940566852E0
9.814762500E-1,5.971139787E0,-1.522577241E0,1.893566995E0,6.446576438E0
9.914622500E-1,4.783345462E0,-9.498431991E-1,1.910837916E0,5.237737818E0
1.001448250E0,3.667002944E0,-7.379335257E-1,1.700380837E0,4.108862552E0
1.011435250E0,2.692626728E0,-6.528283252E-1,1.363899304E0,3.088145856E0
1.021420250E0,1.850487049E0,-6.086714682E-1,9.162218553E-1,2.152729839E0
1.031407250E0,1.084037164E0,-6.583887349E-1,3.927697545E-1,1.327735056E0
1.041393250E0,4.799612782E-1,-7.645882045E-1,-1.885463923E-1,9.222297398E-1
1.051379250E0,3.019498508E-2,-8.702295573E-1,-7.609677547E-1,1.156409591E0
1.061365250E0,-3.031018985E-1,-8.950463100E-1,-1.297311797E0,1.604991139E0
1.071351250E0,-6.947977388E-1,-9.225403565E-1,-1.701397668E0,2.056350804E0
1.081337250E0,-1.130701014E0,-9.396012162E-1,-2.005967436E0,2.487014392E0
1.091323250E0,-1.590991857E0,-8.684182361E-1,-2.127244536E0,2.794740532E0
1.101309250E0,-2.060457785E0,-5.954175845E-1,-1.949889130E0,2.898633472E0
1.111295250E0,-2.349421189E0,-2.874093604E-1,-1.352708902E0,2.726207153E0
1.121281250E0,-2.318795228E0,1.493928516E-1,-3.559112459E-1,2.350702522E0
1.131267250E0,-2.003135045E0,6.822054675E-1,6.660545808E-1,2.218464111E0
1.141253250E0,-1.559579007E0,1.134231783E0,1.675550051E0,2.554649954E0
1.151239250E0,-1.115368519E0,1.371726533E0,2.577421085E0,3.125504769E0
1.161225250E0,-7.041719949E-1,1.605919360E0,3.310795829E0,3.746492254E0
1.171211250E0,-4.888930097E-1,1.730358196E0,3.929314300E0,4.321188116E0
1.181197250E0,-3.359656624E-1,1.611427291E0,4.369851129E0,4.669600597E0
1.191183750E0,-1.007343695E-1,1.629692239E0,4.875720652E0,5.141857260E0
1.201169750E0,1.448883028E-1,1.702742966E0,5.374892775E0,5.640017604E0
1.211155750E0,6.734030691E-1,1.600908735E0,5.726318622E0,5.983903862E0
1.221141750E0,1.388203256E0,1.518232175E0,5.963384040E0,6.308255419E0
1.231127750E0,2.292671330E0,1.471474623E0,6.083677053E0,6.665786217E0
1.241113750E0,3.205957883E0,1.416994945E0,5.916015161E0,6.876429016E0
1.251100750E0,3.642514220E0,1.272329275E0,5.465154489E0,6.689891271E0
1.261086750E0,3.643531051E0,7.931859130E-1,4.847561046E0,6.115824598E0
1.271072750E0,3.260316816E0,8.419230402E-2,4.178847737E0,5.300898272E0
1.281058750E0,2.757301319E0,-7.298626140E-1,3.295255099E0,4.358223969E0
1.291044750E0,2.141039872E0,-1.511097403E0,2.436464596E0,3.578243539E0
1.301030750E0,1.221865173E0,-1.909850906E0,1.975696401E0,3.007301324E0
1.311016750E0,4.709405959E-1,-1.802747749E0,2.074989724E0,2.788775152E0
1.321002750E0,5.544552076E-1,-1.590762500E0,2.095733891E0,2.688874570E0
1.330988750E0,8.637220448E-1,-1.763655604E0,2.149939627E0,2.911827134E0
1.340974750E0,6.428487360E-1,-1.809816448E0,2.316675320E0,3.009264796E0
1.350960750E0,6.472119284E-1,-1.920308358E0,2.194673750E0,2.987149200E0
1.360946750E0,8.513996226E-1,-2.412498321E0,1.581000866E0,3.007423017E0
1.370932750E0,1.068319044E0,-3.078999336E0,8.407325470E-1,3.365764952E0
1.380918750E0,1.496183787E0,-3.645070623E0,-5.889023244E-2,3.940631146E0
1.390904750E0,1.726365278E0,-4.119672160E0,-1.061036337E0,4.591060214E0
1.400890750E0,1.704494353E0,-4.515232498E0,-1.686464463E0,5.112415075E0
1.410876750E0,1.087668650E0,-4.824694340E0,-1.869171242E0,5.287201500E0
1.420862750E0,2.957638621E-1,-5.089120635E0,-1.720517478E0,5.380223554E0
1.430848750E0,-3.808116138E-1,-5.300088760E0,-1.614862969E0,5.553714141E0
1.440834750E0,-1.131036864E0,-5.719820026E0,-1.760986350E0,6.090702623E0
1.450820750E0,-1.769631166E0,-6.245142066E0,-2.410421097E0,6.924126209E0
1.460806750E0,-2.259541883E0,-6.696261771E0,-3.401958598E0,7.843390436E0
1.470792750E0,-2.980959656E0,-6.990977227E0,-4.252855068E0,8.708998754E0
1.480778750E0,-3.877783958E0,-7.044399143E0,-4.931428245E0,9.432907943E0
1.490765750E0,-4.583175682E0,-7.088573104E0,-5.360601010E0,9.999470545E0
1.500751750E0,-5.190146488E0,-7.257876309E0,-5.472403282E0,1.046716708E1
1.510737750E0,-6.068046277E0,-7.323950431E0,-5.446839255E0,1.096036009E1
1.520723750E0,-7.280578124E0,-7.293960646E0,-5.326552674E0,1.160089838E1
1.530709750E0,-8.586711615E0,-7.538353211E0,-4.800136034E0,1.239353426E1
1.540695750E0,-9.700089887E0,-8.065532911E0,-4.059718319E0,1.325239140E1
1.550681750E0,-1.065629091E1,-8.561475032E0,-3.509231032E0,1.411276348E1
1.560667750E0,-1.182564165E1,-9.039672607E0,-3.289379232E0,1.524406432E1
1.570653750E0,-1.293131856E1,-9.742393323E0,-3.185316335E0,1.650089293E1
1.580639750E0,-1.385005764E1,-1.028243164E1,-3.206517754E0,1.754520599E1
1.590625750E0,-1.451401483E1,-1.064384804E1,-2.962992332E0,1.824081826E1
1.600611750E0,-1.493541898E1,-1.138526329E1,-2.334641182E0,1.892462707E1
1.610597750E0,-1.584745832E1,-1.238412209E1,-1.158381076E0,2.014572565E1
1.620583750E0,-1.736467513E1,-1.250235045E1,9.502301386E-1,2.141830167E1
1.630569750E0,-1.829744636E1,-1.183247705E1,3.997524995E0,2.215365122E1
1.640555750E0,-1.879409131E1,-1.116857834E1,7.176186029E0,2.300983825E1
1.650541750E0,-1.878649461E1,-9.927903256E0,1.130272867E1,2.406755738E1
1.660527750E0,-1.754561020E1,-8.312618703E0,1.527426747E1,2.470326524E1
1.670513750E0,-1.604493984E1,-7.235455745E0,1.795534448E1,2.514331541E1
1.680499750E0,-1.465512685E1,-6.936810375E0,1.980774006E1,2.559762972E1
1.690485750E0,-1.221715133E1,-6.428156408E0,2.087440551E1,2.502640180E1
1.700471750E0,-9.500304562E0,-5.080581946E0,1.939759297E1,2.218861673E1
1.710457750E0,-6.805281937E0,-4.275261891E0,1.757888203E1,1.932891150E1
1.720443750E0,-3.840988892E0,-3.786569148E0,1.664637743E1,1.749837659E1
1.730430750E0,-1.389234851E0,-3.141261658E0,1.573662084E1,1.610710197E1
1.740416750E0,-4.395046489E-1,-2.895692049E0,1.522148816E1,1.550070639E1
1.750402750E0,7.131715907E-1,-2.903481418E0,1.513134748E1,1.542389363E1
1.760388750E0,2.563563184E0,-2.928258409E0,1.413966205E1,1.466548998E1
1.770374750E0,4.615294730E0,-3.002397888E0,1.296332388E1,1.408414373E1
1.780360750E0,6.526521193E0,-2.994817265E0,1.207514118E1,1.404896593E1
1.790346750E0,8.135401291E0,-2.790424334E0,1.124867467E1,1.415994011E1
1.800332750E0,9.238247559E0,-2.136963778E0,1.077734465E1,1.435489428E1
1.810318750E0,9.809733367E0,-1.316096269E0,1.023182281E1,1.423563052E1
1.820304750E0,1.020761651E1,-1.158266470E0,9.519078802E0,1.400535174E1
1.830290750E0,1.032938478E1,-1.371534306E0,8.621007873E0,1.352401837E1
1.840276750E0,9.939120555E0,-1.620374993E0,7.253886169E0,1.241090638E1
1.850262750E0,8.944263589E0,-1.940254965E0,5.668182095E0,1.076534852E1
1.860248750E0,7.675197937E0,-2.225583448E0,4.076110988E0,8.970873193E0
1.870234750E0,6.542893982E0,-2.235334118E0,2.663155299E0,7.409357356E0
1.880220750E0,5.748776608E0,-2.035750522E0,1.473987172E0,6.274181289E0
1.890206750E0,5.065443504E0,-1.764587065E0,6.195253623E-1,5.399657126E0
1.900192750E0,4.315208022E0,-1.649031466E0,1.116981912E-1,4.620909167E0
1.910178750E0,3.506789527E0,-1.765315044E0,-7.772879183E-2,3.926824640E0
1.920164750E0,2.874426603E0,-1.781871142E0,-2.252131122E-1,3.389412045E0
1.930150750E0,2.412458560E0,-1.581927650E0,-4.162603587E-1,2.914742540E0
1.940136750E0,2.311358154E0,-1.397161190E0,-5.338005030E-1,2.753067178E0
1.950122750E0,2.237579449E0,-1.049549920E0,-6.541063803E-1,2.556593824E0
1.960108750E0,2.244642593E0,-8.160252835E-1,-8.324938202E-1,2.529301009E0
1.970095750E0,2.109328814E0,-8.313498855E-1,-9.912597585E-1,2.474470971E0
1.980081750E0,1.820119826E0,-8.266949172E-1,-1.352991908E0,2.413886445E0
1.990067750E0,1.457115762E0,-7.633798774E-1,-1.702782873E0,2.367573588E0
2.000053750E0,9.360683285E-1,-7.466621762E-1,-1.936186765E0,2.276520922E0
2.010039750E0,3.371641589E-1,-7.069791701E-1,-1.965324610E0,2.115655936E0
2.020025750E0,-2.404082350E-1,-5.942632710E-1,-1.800219705E0,1.910951580E0
2.030011750E0,-8.155335326E-1,-4.448922003E-1,-1.416012028E0,1.693550731E0
2.039997750E0,-1.305661913E0,-2.438579095E-1,-8.800831389E-1,1.593350571E0
2.049983750E0,-1.608878928E0,6.764205247E-3,-3.569526350E-1,1.648014668E0
2.059969750E0,-1.788525859E0,1.788437785E-1,1.801989073E-1,1.806455505E0
2.069955750E0,-1.877940896E0,3.435644846E-1,8.341479975E-1,2.083387013E0
2.079941750E0,-1.816889825E0,6.047145112E-1,1.528213665E0,2.449939852E0
2.089927750E0,-1.724050073E0,7.632116237E-1,2.247724076E0,2.933786659E0
2.099913750E0,-1.707118730E0,8.846468177E-1,2.995853684E0,3.559774381E0
2.109899750E0,-1.629456450E0,1.236719732E0,3.725625958E0,4.250281496E0
2.119885750E0,-1.430674799E0,1.510535485E0,4.366786019E0,4.837082588E0
2.129871750E0,-1.190674224E0,1.564932279E0,4.945566228E0,5.322155904E0
2.139857750E0,-9.188852620E-1,1.708723644E0,5.423181421E0,5.759772855E0
2.149843750E0,-6.228880960E-1,1.848449440E0,5.636776115E0,5.964729657E0
2.159829750E0,-5.503693195E-1,1.701194477E0,5.777750731E0,6.048088338E0
2.169815750E0,-6.309066752E-1,1.484881704E0,5.738539302E0,5.961019228E0
2.179801750E0,-7.293840194E-1,1.392548029E0,5.543403683E0,5.761988845E0
2.189787375E0,-6.989118397E-1,1.195121397E0,5.301220196E0,5.479026235E0
2.199773375E0,-3.430847937E-1,7.322232811E-1,4.763157658E0,4.831307171E0
2.209760375E0,2.291743085E-1,4.479280016E-1,4.128845272E0,4.159389816E0
2.219746375E0,8.384252357E-1,4.920252170E-1,3.675077949E0,3.801479136E0
2.229732375E0,1.562748782E0,3.499517637E-1,3.290294906E0,3.659329250E0
2.239718375E0,2.224597169E0,-7.750689000E-2,3.309386650E0,3.988342999E0
2.249704375E0,2.418655146E0,-2.923691149E-1,3.645070623E0,4.384280130E0
2.259690375E0,2.222964626E0,-4.104037875E-1,3.788725601E0,4.411852749E0
2.269676375E0,1.754872209E0,-8.367058620E-1,3.957311938E0,4.409078242E0
2.279662375E0,1.517842458E0,-1.353212055E0,3.949411765E0,4.442170853E0
2.289648375E0,1.555804337E0,-1.853069764E0,3.817538341E0,4.519733805E0
2.299634375E0,1.573989762E0,-2.449583409E0,3.449990551E0,4.514458711E0
2.309620375E0,1.431558605E0,-3.060220419E0,2.773966468E0,4.371406984E0
2.319606375E0,1.144867283E0,-3.991664623E0,1.980740502E0,4.600808678E0
2.329592375E0,6.490736818E-1,-5.090263765E0,9.609036461E-1,5.220672147E0
2.339578375E0,6.397350937E-1,-5.879949535E0,-7.708732304E-1,5.964672083E0
2.349564375E0,8.698458338E-1,-6.555811066E0,-2.641812085E0,7.121408681E0
2.359550375E0,1.041973245E0,-6.916891251E0,-4.240648713E0,8.179987428E0
2.369536375E0,7.887987471E-1,-6.704760699E0,-5.417092130E0,8.655686376E0
2.379522375E0,4.022217786E-1,-6.297185794E0,-5.821093801E0,8.584955697E0
2.389508375E0,4.337540585E-1,-6.022328652E0,-5.700342951E0,8.303643461E0
2.399494375E0,6.701376915E-1,-5.997085637E0,-5.623093046E0,8.248229875E0
2.409480375E0,4.749611413E-1,-6.273998076E0,-5.432714721E0,8.312823177E0
2.419466375E0,1.854198861E-1,-6.699507560E0,-5.106588607E0,8.425854810E0
2.429452375E0,-2.818609375E-1,-6.971521786E0,-4.942712202E0,8.550553521E0
2.439438375E0,-1.183808570E0,-7.104762290E0,-4.936365634E0,8.731938822E0
2.449424375E0,-2.033093255E0,-7.324247469E0,-5.175054824E0,9.195610997E0
2.459410375E0,-2.883669589E0,-7.650651326E0,-5.422047061E0,9.810535681E0
2.469397375E0,-3.797999285E0,-7.713082632E0,-5.542954617E0,1.022940801E1
2.479383375E0,-4.881375495E0,-7.545028392E0,-5.577812208E0,1.057673244E1
2.489369375E0,-6.108180980E0,-7.458694838E0,-5.461730944E0,1.108027565E1
2.499355375E0,-7.007633606E0,-7.608653115E0,-5.472319082E0,1.170234195E1
2.509341375E0,-7.704445125E0,-7.931147524E0,-5.820656430E0,1.249566393E1
2.519327375E0,-8.555379310E0,-8.309952373E0,-6.169681410E0,1.342813436E1
2.529313375E0,-9.833791151E0,-9.026661968E0,-6.044521759E0,1.465333812E1
2.539299375E0,-1.138565856E1,-1.015633526E1,-5.587669444E0,1.624827426E1
2.549285375E0,-1.301542023E1,-1.150452777E1,-4.428430874E0,1.792669303E1
2.559271375E0,-1.456701399E1,-1.270804029E1,-1.892457778E0,1.942353163E1
2.569257375E0,-1.562505363E1,-1.372371568E1,1.495977380E0,2.084995495E1
2.579243375E0,-1.607308366E1,-1.469398978E1,4.808376516E0,2.230196940E1
2.589229375E0,-1.723970142E1,-1.463766356E1,9.353845843E0,2.447371920E1
2.599215375E0,-1.799842443E1,-1.118908686E1,1.675213485E1,2.701431044E1
2.609201375E0,-1.619845966E1,-6.642655667E0,2.160563024E1,2.780859989E1
2.619187375E0,-1.362207587E1,-3.845731861E0,2.344643196E1,2.738769388E1
2.629173375E0,-1.157835238E1,-3.506263278E0,2.292124206E1,2.591785994E1
2.639159375E0,-1.156687430E1,-3.988173835E0,1.781743673E1,2.161386507E1
2.649145375E0,-1.139811313E1,-3.755292976E0,1.297601117E1,1.767472981E1
2.659131375E0,-9.559722213E0,-2.064805336E0,1.020776152E1,1.413683505E1
2.669117375E0,-7.020383459E0,-2.315357211E0,9.875113424E0,1.233549870E1
2.679103375E0,-5.068614450E0,-3.177297463E0,1.118553643E1,1.268472691E1
2.689089375E0,-4.679066218E0,-3.302998567E0,1.235685652E1,1.361966825E1
2.699076375E0,-4.216156481E0,-3.966735896E0,1.218499983E1,1.349018866E1
2.709062375E0,-2.756552875E0,-3.938925076E0,1.226011551E1,1.316906021E1
2.719048375E0,-1.411832146E0,-3.080288647E0,1.220641585E1,1.266799258E1
2.729034375E0,9.518826348E-1,-2.874460517E0,1.254169402E1,1.290204219E1
2.739020375E0,3.639019339E0,-2.549251831E0,1.357374747E1,1.428242861E1
2.749006375E0,6.448045712E0,-2.084280804E0,1.424664621E1,1.577619879E1
2.758992375E0,8.975053273E0,-1.809268856E0,1.420112447E1,1.689665562E1
2.768978375E0,1.042679120E1,-1.893302701E0,1.326879295E1,1.698126722E1
2.778964375E0,1.076893050E1,-2.334999178E0,1.150303323E1,1.592927678E1
2.788950375E0,1.060740234E1,-3.073321690E0,9.204396858E0,1.437648122E1
2.798936375E0,1.051304114E1,-3.636031704E0,7.026627701E0,1.315744115E1
2.808922375E0,1.029107499E1,-3.628507215E0,5.177117722E0,1.207786558E1
2.818908375E0,9.945508053E0,-3.465902579E0,3.849058927E0,1.121342346E1
2.828894375E0,9.183933942E0,-3.230485491E0,2.834689218E0,1.013982949E1
2.838880375E0,8.308556643E0,-2.840626481E0,1.729339172E0,8.949407034E0
2.848866375E0,7.404129206E0,-2.307250339E0,7.756115216E-1,7.793978872E0
2.858852375E0,6.231489987E0,-1.784000406E0,8.267962933E-3,6.481835640E0
2.868838375E0,5.130760996E0,-1.355779714E0,-6.819180769E-1,5.350500845E0
2.878824375E0,3.913228318E0,-1.031293671E0,-1.277006171E0,4.243544186E0
2.888810375E0,2.614552073E0,-9.098605232E-1,-1.763491005E0,3.282320710E0
2.898796375E0,1.378030562E0,-8.477289598E-1,-2.088613737E0,2.641953815E0
2.908782375E0,3.396213051E-1,-6.633427153E-1,-2.260989654E0,2.380638655E0
2.918768375E0,-4.232088974E-1,-4.480649726E-1,-2.100895813E0,2.189436276E0
2.928754375E0,-8.398852855E-1,-2.897991174E-1,-1.701658453E0,1.919643798E0
2.938740375E0,-9.778372557E-1,-1.485530452E-1,-1.305355226E0,1.637738066E0
2.948727375E0,-9.767058925E-1,-5.059201017E-2,-1.045790307E0,1.431848916E0
2.958713375E0,-8.888428527E-1,9.636299103E-2,-9.258861333E-1,1.287086856E0
2.968699375E0,-7.833047032E-1,2.698686636E-1,-8.624403352E-1,1.195909146E0
2.978685375E0,-7.478390014E-1,2.921123490E-1,-8.487087339E-1,1.168289053E0
2.988671375E0,-7.306565197E-1,2.226863842E-1,-8.857075757E-1,1.169583723E0
2.998657375E0,-7.899551801E-1,2.018467614E-1,-8.288761479E-1,1.162672340E0
3.008643375E0,-8.851209538E-1,1.689691103E-1,-6.962250441E-1,1.138735692E0
3.018629375E0,-9.489874591E-1,1.415247651E-1,-5.041083419E-1,1.083850394E0
3.028615375E0,-9.470665026E-1,2.301170989E-1,-1.735406828E-1,9.899521241E-1
3.038601375E0,-8.774213402E-1,3.502124765E-1,2.986137950E-1,9.908012846E-1
3.048587375E0,-8.366468051E-1,4.100419910E-1,9.228186840E-1,1.311375856E0
3.058573375E0,-8.520592616E-1,5.565364509E-1,1.652859930E0,1.941052229E0
3.068559375E0,-8.479648219E-1,8.657962715E-1,2.354914649E0,2.648446814E0
3.078545375E0,-8.331054389E-1,1.165557948E0,3.195596910E0,3.502060766E0
3.088531375E0,-9.030859391E-1,1.536099366E0,4.115994846E0,4.485150951E0
3.098517375E0,-7.197286583E-1,1.956285692E0,4.891711618E0,5.317321280E0
3.108503375E0,-3.850765729E-1,2.274759701E0,5.507172580E0,5.970909938E0
3.118489375E0,-1.602477689E-1,2.483344940E0,5.968032576E0,6.466072554E0
3.128475375E0,1.569129556E-1,2.432493752E0,6.274660565E0,6.731494094E0
3.138461375E0,2.981679448E-1,2.114022228E0,6.449793445E0,6.793955371E0
3.148447375E0,4.543520451E-1,1.914995286E0,6.563991905E0,6.852709863E0
3.158433375E0,9.700115615E-1,1.760696620E0,6.926974189E0,7.212762747E0
3.168419375E0,1.666861965E0,1.547655657E0,7.036941020E0,7.395417890E0
3.178405375E0,2.394188642E0,1.352733753E0,7.022032374E0,7.541284143E0
3.188391125E0,3.366978800E0,1.096833868E0,7.218336267E0,8.040147340E0
3.198378125E0,4.257967289E0,3.399118021E-1,7.201698015E0,8.373188148E0
3.208364125E0,4.740007362E0,-9.681506851E-1,6.797294056E0,8.343152403E0
3.218350125E0,4.676507185E0,-2.726095021E0,6.026825160E0,8.100860141E0
3.228336125E0,3.873109694E0,-4.980643675E0,4.888956410E0,7.981834682E0
3.238322125E0,2.662627296E0,-6.867518531E0,3.383018298E0,8.105381403E0
3.248308125E0,1.165002170E0,-7.863798124E0,1.983338127E0,8.193300991E0
3.258294125E0,-3.684558624E-1,-8.677629971E0,4.665616161E-1,8.697971107E0
3.268280125E0,-1.453296799E0,-8.868563781E0,-1.297595387E0,9.080046746E0
3.278266125E0,-1.816735750E0,-8.313225644E0,-2.667523754E0,8.917731347E0
3.288252125E0,-9.276970160E-1,-7.182731402E0,-3.573894805E0,8.076198129E0
3.298238125E0,7.473665464E-1,-6.135019700E0,-3.774798703E0,7.241969948E0
3.308224125E0,1.883629067E0,-5.825213749E0,-3.634061485E0,7.119520810E0
3.318210125E0,2.038648694E0,-6.347474188E0,-3.472809895E0,7.517108861E0
3.328196125E0,1.497065547E0,-6.778767738E0,-3.877699174E0,7.951694673E0
3.338182125E0,5.910921067E-1,-6.765181147E0,-4.853146599E0,8.346861551E0
3.348168125E0,-5.011537439E-1,-6.832848635E0,-5.710946292E0,8.919298352E0
3.358154125E0,-9.044572574E-1,-6.867044907E0,-6.270831224E0,9.343322370E0
3.368140125E0,-1.037089650E0,-7.044326053E0,-6.798917828E0,9.844966639E0
3.378126125E0,-1.636753775E0,-7.477364413E0,-7.005418096E0,1.037621435E1
3.388112125E0,-2.874467826E0,-7.540666954E0,-6.646422443E0,1.045462360E1
3.398098125E0,-4.145604562E0,-7.426108890E0,-5.798980801E0,1.029375096E1
3.408084125E0,-4.953524289E0,-7.692495171E0,-4.971965822E0,1.041308451E1
3.418070125E0,-5.908065287E0,-8.382805172E0,-4.439870367E0,1.117537949E1
3.428056125E0,-6.983968170E0,-9.218239557E0,-4.641096447E0,1.246160215E1
3.438042125E0,-8.282679205E0,-1.024386340E1,-4.919968872E0,1.406220487E1
3.448028125E0,-9.783755357E0,-1.162725615E1,-5.070080931E0,1.601938436E1
3.458015125E0,-1.128397665E1,-1.310910198E1,-4.815766811E0,1.795461762E1
3.468001125E0,-1.275032385E1,-1.422958755E1,-3.680637481E0,1.945762093E1
3.477987125E0,-1.439086779E1,-1.478669622E1,-3.820623332E-1,2.063708876E1
3.487973125E0,-1.576827416E1,-1.395630623E1,3.894553188E0,2.141458610E1
3.497959125E0,-1.593935550E1,-1.321263863E1,6.869265679E0,2.181338315E1
3.507945125E0,-1.571359217E1,-1.293865097E1,9.286610464E0,2.237335025E1
3.517931125E0,-1.587451105E1,-1.124414892E1,1.207259998E1,2.289494827E1
3.527917125E0,-1.586813408E1,-8.753093551E0,1.396622427E1,2.287946123E1
3.537903125E0,-1.558104514E1,-7.137820693E0,1.441580733E1,2.239493141E1
3.547889125E0,-1.511406779E1,-5.734107113E0,1.442664339E1,2.166663493E1
3.557875125E0,-1.415003968E1,-5.421939472E0,1.399198828E1,2.062514937E1
3.567861125E0,-1.213600251E1,-5.583670533E0,1.374736533E1,1.916898503E1
3.577847125E0,-9.705503824E0,-4.740329836E0,1.479940339E1,1.832184139E1
3.587833125E0,-7.281078646E0,-2.968694537E0,1.612245521E1,1.793769259E1
3.597819125E0,-5.530586586E0,-1.941205138E0,1.697303681E1,1.795660447E1
3.607805125E0,-4.639741062E0,-1.659741080E0,1.712659756E1,1.782139954E1
3.617791125E0,-4.028376074E0,-2.197986198E0,1.729517980E1,1.789363578E1
3.627777125E0,-2.789288512E0,-2.816221372E0,1.668594320E1,1.715027503E1
3.637763125E0,-5.540993314E-1,-3.498497006E0,1.594485890E1,1.633355542E1
3.647749125E0,1.831093442E0,-4.237278378E0,1.554190622E1,1.621290474E1
3.657735125E0,4.066623296E0,-4.671710129E0,1.509646416E1,1.631764477E1
3.667721125E0,6.271967922E0,-5.121304294E0,1.411296600E1,1.627086810E1
3.677707125E0,8.011761332E0,-5.273447676E0,1.224729139E1,1.555614722E1
3.687693125E0,9.344663960E0,-5.062075508E0,9.934634571E0,1.454800045E1
3.697679125E0,1.032660618E1,-5.023404363E0,8.043469028E0,1.402037020E1
3.707666125E0,1.091338480E1,-4.821882999E0,6.250376494E0,1.346921415E1
3.717652125E0,1.117950328E1,-4.457887393E0,4.842305569E0,1.297312517E1
3.727638125E0,1.112518498E1,-4.069967611E0,3.844007517E0,1.245434747E1
3.737624125E0,1.077820536E1,-3.462674624E0,3.111637325E0,1.174061809E1
3.747610125E0,9.982039118E0,-2.710515992E0,2.634229708E0,1.067366704E1
3.757596125E0,8.844259830E0,-2.222805436E0,2.101211563E0,9.358252292E0
3.767582125E0,7.403256801E0,-1.770444367E0,1.316523408E0,7.725018991E0
3.777568125E0,5.757795938E0,-1.369292629E0,5.387905169E-1,5.942850460E0
3.787554125E0,4.119396172E0,-1.213200038E0,-2.099530488E-1,4.299460365E0
3.797540125E0,2.755592178E0,-1.116548194E0,-9.687842309E-1,3.127061081E0
3.807526125E0,1.796861649E0,-1.082359086E0,-1.615034292E0,2.647366379E0
3.817512125E0,1.240560037E0,-1.110138184E0,-2.086877698E0,2.669542006E0
3.827498125E0,9.976735693E-1,-1.035655474E0,-2.296760581E0,2.709805155E0
3.837484125E0,9.772455905E-1,-9.138622114E-1,-2.331013570E0,2.687708568E0
3.847470125E0,9.993762785E-1,-7.689266923E-1,-2.345442744E0,2.662912479E0
3.857456125E0,9.305966502E-1,-6.137161535E-1,-2.303983061E0,2.559491275E0
3.867442125E0,8.249930120E-1,-5.460738087E-1,-2.282664698E0,2.487844086E0
3.877428125E0,7.224715872E-1,-5.765926199E-1,-2.282126754E0,2.462219886E0
3.887414125E0,4.075499808E-1,-7.300909477E-1,-2.244923844E0,2.395581943E0
3.897400125E0,3.804953160E-2,-8.344910829E-1,-2.240529662E0,2.391191398E0
3.907386125E0,-8.691220947E-2,-8.217232490E-1,-2.141431636E0,2.295324003E0
3.917372125E0,-1.865766115E-1,-7.342892486E-1,-1.758044323E0,1.914343589E0
3.927358125E0,-2.128772414E-1,-4.919306383E-1,-1.226565750E0,1.338572378E0
3.937344125E0,-8.387059752E-2,-2.518199900E-1,-5.884731388E-1,6.455603919E-1
3.947330125E0,1.664208481E-2,-2.188108496E-1,8.330528140E-3,2.196008757E-1
3.957317125E0,2.400613855E-1,-5.548496023E-2,3.394975269E-1,4.194837546E-1
3.967303125E0,4.443382132E-1,1.831977980E-1,5.391822803E-1,7.222987002E-1
3.977289125E0,5.322841007E-1,3.799985585E-1,6.658546060E-1,9.333207512E-1
3.987275125E0,5.512467307E-1,5.499212766E-1,8.154380769E-1,1.127486419E0
3.997261125E0,4.765431055E-1,6.736153230E-1,9.304726893E-1,1.243635944E0
4.007247125E0,3.657062458E-1,7.286308980E-1,1.013888483E0,1.301004958E0
4.017233125E0,2.434651228E-1,6.082509072E-1,1.093703561E0,1.274924277E0
4.027219125E0,1.357560849E-1,5.150038974E-1,1.172747392E0,1.288019866E0
4.037205125E0,-1.056506170E-1,4.068596439E-1,1.372491787E0,1.435419983E0
4.047191125E0,-3.351967536E-1,3.745644486E-1,1.602765080E0,1.679735482E0
4.057177125E0,-4.062542378E-1,5.639714049E-1,1.960781323E0,2.080329217E0
4.067163125E0,-4.735387696E-1,8.603803611E-1,2.560925505E0,2.742778294E0
4.077149125E0,-4.769787962E-1,1.209499920E0,3.252524816E0,3.502758414E0
4.087135125E0,-3.765769871E-1,1.537122044E0,3.934639944E0,4.240984072E0
4.097121125E0,-3.869063129E-1,1.813220843E0,4.597553986E0,4.957314694E0
4.107107125E0,-4.383458769E-1,2.065833277E0,5.177541060E0,5.591667521E0
4.117093125E0,-2.193699896E-1,2.296746693E0,5.626632950E0,6.081296484E0
4.127079125E0,5.172753945E-2,2.272858479E0,6.136817134E0,6.544393474E0
4.137065125E0,2.099872550E-1,2.014038641E0,6.540983112E0,6.847255389E0
4.147051125E0,5.686896694E-1,1.728178500E0,6.380057212E0,6.634390620E0
4.157037125E0,1.109333754E0,1.606616056E0,5.966563171E0,6.277874848E0
4.167023125E0,1.560622442E0,1.518237438E0,5.554567187E0,5.966054304E0
4.177009125E0,2.102233364E0,1.258520783E0,5.350921530E0,5.885203556E0
4.186995125E0,3.096779842E0,1.172367908E0,5.345375445E0,6.287887607E0
4.196981375E0,3.942745647E0,7.813303909E-1,5.832533879E0,7.083372916E0
4.206967375E0,4.228632977E0,-1.053960621E-1,6.112985052E0,7.433776391E0
4.216953375E0,4.281190968E0,-1.509055555E0,6.114073219E0,7.614967899E0
4.226940375E0,3.310167253E0,-3.281085541E0,5.872729393E0,7.497444905E0
4.236926375E0,1.782323717E0,-5.176266952E0,4.746227045E0,7.245487462E0
4.246912375E0,-2.551742452E-1,-7.276447066E0,3.533538200E0,8.093064192E0
4.256898375E0,-2.974231265E0,-9.544885488E0,9.620783517E-1,1.004372866E1
4.266884375E0,-4.082776229E0,-9.190036681E0,-2.372154579E0,1.033213208E1
4.276870375E0,-3.233785075E0,-7.666152295E0,-4.617195953E0,9.515553341E0
4.286856375E0,-1.377208151E0,-6.499773105E0,-5.937381472E0,8.910457421E0
4.296842375E0,1.205628040E0,-6.154199737E0,-6.481318708E0,9.018603305E0
4.306828375E0,3.044104908E0,-5.954152456E0,-6.100915815E0,9.052053907E0
4.316814375E0,2.881569269E0,-5.492269197E0,-4.890813485E0,7.898640322E0
4.326800375E0,1.484661849E0,-5.117446302E0,-3.549697273E0,6.402564188E0
4.336786375E0,3.190661860E-1,-5.033569162E0,-2.254584614E0,5.524651439E0
4.346772375E0,-4.846300972E-1,-5.111130724E0,-9.878169179E-1,5.228222056E0
4.356758375E0,-7.033077765E-1,-5.120458787E0,-4.124076283E-1,5.184960952E0
4.366744375E0,-5.181545234E-1,-5.129847077E0,-9.422738323E-1,5.241344781E0
4.376730375E0,-1.060449861E0,-5.182509440E0,-1.978948038E0,5.647937087E0
4.386716375E0,-1.627481845E0,-5.429171893E0,-3.288619971E0,6.552833426E0
4.396702375E0,-2.234031651E0,-5.838424364E0,-4.612659098E0,7.768830055E0
4.406688375E0,-2.952518215E0,-6.428666285E0,-5.782580531E0,9.136922436E0
4.416674375E0,-3.718081296E0,-7.058796158E0,-6.682875155E0,1.040728361E1
4.426660375E0,-4.964288428E0,-7.476998377E0,-7.123244169E0,1.145819671E1
4.436646375E0,-6.519398700E0,-7.824213059E0,-7.123228966E0,1.242824446E1
4.446632375E0,-7.680128894E0,-8.275834454E0,-6.795368568E0,1.317766481E1
4.456618375E0,-8.927816541E0,-9.255738920E0,-5.835522391E0,1.412189551E1
4.466604375E0,-1.067361972E1,-1.048076217E1,-4.529554961E0,1.562976013E1
4.476591375E0,-1.189493116E1,-1.164600700E1,-2.931818486E0,1.690308925E1
4.486577375E0,-1.259380558E1,-1.317392188E1,-1.568729607E0,1.829254135E1
4.496563375E0,-1.336552110E1,-1.466494550E1,2.095267868E-1,1.984292524E1
4.506549375E0,-1.433095020E1,-1.535271137E1,2.758676291E0,2.118235527E1
4.516535375E0,-1.480425658E1,-1.501823193E1,5.135812406E0,2.170460486E1
4.526521375E0,-1.478813113E1,-1.458437086E1,7.262300897E0,2.200303865E1
4.536507375E0,-1.492900458E1,-1.393362956E1,9.950571742E0,2.271640571E1
4.546493375E0,-1.555858365E1,-1.133246527E1,1.309013245E1,2.327758281E1
4.556479375E0,-1.595820459E1,-7.878574623E0,1.637271838E1,2.418268262E1
4.566465375E0,-1.567147584E1,-5.037558133E0,1.893755509E1,2.509189391E1
4.576451375E0,-1.535661731E1,-4.293178052E0,1.984865654E1,2.546028750E1
4.586437375E0,-1.493938339E1,-5.484343296E0,1.927452779E1,2.499541196E1
4.596423375E0,-1.321485940E1,-6.008369594E0,1.812353262E1,2.322058244E1
4.606409375E0,-9.437146447E0,-4.267668112E0,1.722158674E1,2.009616317E1
4.616395375E0,-5.962949592E0,-3.280091222E0,1.748475706E1,1.876252903E1
4.626381375E0,-3.923432586E0,-3.512301405E0,1.746621554E1,1.824275937E1
4.636367375E0,-2.153031634E0,-4.007761130E0,1.657817901E1,1.719109403E1
4.646353375E0,-3.763640754E-1,-4.574500461E0,1.536573429E1,1.603662978E1
4.656339375E0,1.051377614E0,-4.558328524E0,1.396078870E1,1.472370113E1
4.666325375E0,2.842877659E0,-4.515085441E0,1.268953619E1,1.376561944E1
4.676311375E0,4.451085034E0,-4.925969285E0,1.195872896E1,1.367803092E1
4.686297375E0,5.903420259E0,-5.270456241E0,1.113980887E1,1.366467787E1
4.696283375E0,7.461764041E0,-5.097566353E0,1.022326600E1,1.364471594E1
4.706269375E0,8.687172627E0,-4.562097055E0,9.323271337E0,1.353525346E1
4.716255375E0,9.655121875E0,-3.822019940E0,8.571418222E0,1.346471036E1
4.726241375E0,1.029230291E1,-3.114996550E0,7.994861124E0,1.339972041E1
4.736227375E0,1.056776991E1,-2.562785504E0,7.449924599E0,1.318131279E1
4.746214375E0,1.067319638E1,-2.076371421E0,6.769298757E0,1.280827252E1
4.756200375E0,1.028306080E1,-1.844631062E0,5.779449931E0,1.193926483E1
4.766186375E0,9.518673005E0,-1.995682184E0,4.406941772E0,1.067750059E1
4.776172375E0,8.371689030E0,-2.153159981E0,2.819031544E0,9.092206221E0
4.786158375E0,7.111181363E0,-2.345583223E0,1.399460900E0,7.617686778E0
4.796144375E0,5.888253166E0,-2.387365965E0,-8.346666455E-2,6.354369228E0
4.806130375E0,4.865233086E0,-2.412869326E0,-1.220881671E0,5.566236020E0
4.816116375E0,3.999171571E0,-2.285239227E0,-1.995167629E0,5.019600128E0
4.826102375E0,3.419760739E0,-2.015503222E0,-2.320355850E0,4.597941715E0
4.836088375E0,2.974249392E0,-1.748093239E0,-2.190597948E0,4.086650069E0
4.846074375E0,2.743179416E0,-1.474531109E0,-1.712053633E0,3.553927819E0
4.856060375E0,2.623757930E0,-9.913117987E-1,-1.157591409E0,3.034274646E0
4.866046375E0,2.629243495E0,-4.888019393E-1,-7.498644769E-1,2.777435045E0
4.876032375E0,2.649116719E0,-2.506504007E-1,-4.310795420E-1,2.695639922E0
4.886018375E0,2.407817625E0,-2.363470879E-1,-1.819150651E-1,2.426219023E0
4.896004375E0,2.050533452E0,-3.418722273E-1,-3.239281458E-1,2.103923359E0
4.905990375E0,1.656246638E0,-5.842970574E-1,-8.059018528E-1,1.932364814E0
4.915976375E0,1.178923075E0,-8.016557510E-1,-1.314282755E0,1.939033450E0
4.925962375E0,7.477370406E-1,-8.625043622E-1,-1.726101569E0,2.069408390E0
4.935948375E0,3.539258970E-1,-9.307488240E-1,-1.833992638E0,2.086884259E0
4.945934375E0,4.345438711E-2,-8.785910757E-1,-1.677338129E0,1.894009969E0
4.955920375E0,-7.881973609E-2,-7.127203318E-1,-1.261684127E0,1.451216613E0
4.965906375E0,-1.361179910E-1,-4.726294179E-1,-6.400847572E-1,8.072268396E-1
4.975892375E0,-2.180218410E-1,-1.744589880E-1,-1.625175118E-2,2.797026654E-1
4.985878375E0,-3.972479177E-1,1.524298954E-1,4.864228535E-1,6.462568944E-1
4.995864375E0,-5.871445052E-1,4.732112159E-1,9.484060997E-1,1.211668954E0
5.005850375E0,-6.950610097E-1,6.190319303E-1,1.345035017E0,1.635674030E0
5.015837375E0,-8.134508275E-1,5.908416266E-1,1.623469486E0,1.909567817E0
5.025823375E0,-8.650866388E-1,5.695494293E-1,1.687438610E0,1.979952147E0
5.035809375E0,-8.372686565E-1,6.482229850E-1,1.660233269E0,1.969158793E0
5.045795375E0,-8.004054701E-1,7.336226660E-1,1.756315302E0,2.064823133E0
5.055781375E0,-7.252837325E-1,7.439821780E-1,1.940410793E0,2.201077014E0
5.065767375E0,-5.743497010E-1,7.446193783E-1,2.078850641E0,2.281656325E0
5.075753375E0,-4.592194135E-1,8.666957925E-1,2.267953688E0,2.470962970E0
5.085739375E0,-4.540451028E-1,1.070085780E0,2.648290508E0,2.892176196E0
5.095725375E0,-4.541687348E-1,1.225800349E0,3.023726192E0,3.294203366E0
5.105711375E0,-6.570380281E-1,1.233821560E0,3.445805699E0,3.718546965E0
5.115697375E0,-9.452035797E-1,1.302565081E0,3.901923603E0,4.220792983E0
5.125683375E0,-1.138571294E0,1.426650160E0,4.251592362E0,4.626846970E0
5.135669375E0,-1.272684786E0,1.482072263E0,4.607653881E0,5.004671722E0
5.145655375E0,-1.199044806E0,1.521426948E0,5.010821155E0,5.372222729E0
5.155641375E0,-8.041165517E-1,1.590917159E0,5.329179243E0,5.619410311E0
5.165627375E0,-3.252966866E-1,1.706860136E0,5.694499243E0,5.953697263E0
5.175613375E0,2.111571367E-1,1.961425686E0,6.140358208E0,6.449478815E0
5.185599375E0,9.200905193E-1,2.287646233E0,6.657735636E0,7.099671517E0
5.195585375E0,1.808141513E0,2.264103296E0,7.006115084E0,7.581634918E0
5.205571375E0,2.645464256E0,1.648675955E0,7.178571693E0,7.826142414E0
5.215557375E0,3.309786599E0,6.523364282E-1,7.330001714E0,8.069024432E0
5.225543375E0,3.534620520E0,-6.110372517E-1,7.086875657E0,7.942966405E0
5.235529375E0,3.153698978E0,-2.267205244E0,6.547251327E0,7.612656357E0
5.245515375E0,2.372709772E0,-4.193609033E0,5.453130274E0,7.276863210E0
5.255501375E0,1.539326883E0,-6.164928793E0,3.989148273E0,7.502611427E0
5.265488375E0,8.828132039E-1,-7.701165422E0,2.598164667E0,8.175436848E0
5.275474375E0,7.101870257E-1,-7.409047299E0,1.033985656E0,7.514484269E0
5.285460375E0,-1.093372609E0,-7.975146067E0,3.604016152E-1,8.057810359E0
5.295446375E0,-2.225883556E0,-8.819623171E0,-1.691975464E0,9.252193873E0
5.305432375E0,-2.354035812E0,-8.453945321E0,-3.867858894E0,9.590151642E0
5.315418375E0,-1.795427912E0,-7.680537030E0,-5.034164994E0,9.357191226E0
5.325404375E0,-6.229997778E-1,-6.671086584E0,-5.488860270E0,8.661357399E0
5.335390375E0,4.935623038E-1,-5.677989630E0,-5.050332545E0,7.615052777E0
5.345376375E0,1.486610141E0,-5.425747179E0,-4.138339981E0,6.983881439E0
5.355362375E0,1.712653558E0,-5.502608244E0,-3.424152875E0,6.703484363E0
5.365348375E0,9.826690292E-1,-5.703867068E0,-3.094961650E0,6.563423311E0
5.375334375E0,1.209356225E-1,-6.140744124E0,-3.273083334E0,6.959629181E0
5.385320375E0,-3.047937173E-1,-6.684030565E0,-4.135817492E0,7.866012340E0
5.395306375E0,-2.406801671E-1,-6.840928318E0,-5.080638664E0,8.524618257E0
5.405292375E0,-2.503719270E-1,-6.991537390E0,-5.866334878E0,9.130069336E0
5.415278375E0,-6.491526192E-1,-7.216489132E0,-6.424577912E0,9.683713950E0
5.425264375E0,-8.454570973E-1,-7.570939159E0,-6.975047657E0,1.032885314E1
5.435250375E0,-5.170733732E-1,-8.191553857E0,-7.472979586E0,1.110019564E1
5.445236375E0,-6.959765375E-1,-8.781781161E0,-7.414647177E0,1.151438476E1
5.455222375E0,-1.730278820E0,-8.924470764E0,-6.111940155E0,1.095426199E1
5.465208375E0,-2.854343464E0,-8.540464232E0,-4.368877275E0,1.000869095E1
5.475194375E0,-3.555418773E0,-8.564114465E0,-2.967144147E0,9.735964442E0
5.485180375E0,-4.621010091E0,-9.202379569E0,-1.976020044E0,1.048533162E1
5.495166375E0,-6.279790328E0,-1.003271343E1,-1.984293708E0,1.200118856E1
5.505152375E0,-8.041946998E0,-1.128506891E1,-2.739067361E0,1.412544448E1
5.515138375E0,-9.748410693E0,-1.319757503E1,-3.317345880E0,1.673954245E1
5.525124375E0,-1.113005922E1,-1.525129259E1,-3.469488092E0,1.919680941E1
5.535110375E0,-1.230102847E1,-1.689528288E1,-2.632684289E0,2.106411431E1
5.545096375E0,-1.376979876E1,-1.879235352E1,-5.388147828E-1,2.330343816E1
5.555083375E0,-1.550902616E1,-2.018929661E1,2.762381380E0,2.560797417E1
5.565069375E0,-1.670973084E1,-2.038268742E1,6.347667146E0,2.711018129E1
5.575055375E0,-1.652486527E1,-1.900996935E1,9.090363874E0,2.677843950E1
5.585041375E0,-1.639308306E1,-1.605420183E1,1.332757969E1,2.653478753E1
5.595027375E0,-1.664717616E1,-1.187634286E1,1.790558818E1,2.718061960E1
5.605013375E0,-1.684378177E1,-6.911586657E0,2.207311279E1,2.861302715E1
5.614999375E0,-1.579213781E1,-4.706788160E0,2.358764923E1,2.877364537E1
5.624985375E0,-1.173656868E1,-3.267718514E0,2.511192947E1,2.791118110E1
5.634971375E0,-5.191421181E0,-1.410684630E-1,2.542631789E1,2.595126963E1
5.644957375E0,-9.526894775E-1,2.884891365E0,2.323970949E1,2.343745534E1
5.654943375E0,-1.114100404E0,2.542078174E0,2.007867665E1,2.026959884E1
5.664929375E0,-2.796247283E0,-2.848383397E-1,1.715082140E1,1.737960893E1
5.674915375E0,-4.220609720E0,-2.410650893E0,1.312392818E1,1.399508039E1
5.684901375E0,-4.424876644E0,-4.263267497E0,9.708393518E0,1.148946856E1
5.694887375E0,-3.015258254E0,-5.317260863E0,7.546981362E0,9.711950016E0
5.704873375E0,-8.997565345E-1,-5.330642801E0,6.930471994E0,8.789582274E0
5.714859375E0,9.349334570E-1,-4.643884984E0,7.496415226E0,8.867694714E0
5.724845375E0,2.422141841E0,-4.005780094E0,8.879098125E0,1.003750112E1
5.734831375E0,3.527504166E0,-3.200246031E0,9.888488345E0,1.097574881E1
5.744817375E0,4.488355479E0,-2.414018743E0,1.009481787E1,1.130832301E1
5.754803375E0,4.932245686E0,-2.026456665E0,9.598121463E0,1.097986838E1
5.764789375E0,5.533247069E0,-1.991229676E0,8.914559149E0,1.067947487E1
5.774775375E0,6.224829424E0,-2.029232777E0,8.154318203E0,1.045749456E1
5.784761375E0,6.752379838E0,-2.113996061E0,7.315585989E0,1.017749533E1
5.794747375E0,7.311621577E0,-2.489597660E0,6.271279705E0,9.949213825E0
5.804733375E0,7.862749718E0,-2.943224065E0,5.067718071E0,9.806485991E0
5.814719375E0,8.170043120E0,-3.231111728E0,3.698750401E0,9.532598917E0
5.824705375E0,8.152110879E0,-3.243043264E0,2.199086936E0,9.044900483E0
5.834692375E0,7.738437329E0,-3.197091458E0,9.339190382E-1,8.424785508E0
5.844678375E0,6.911037603E0,-3.056784010E0,3.866588295E-2,7.556974546E0
5.854664375E0,6.059684173E0,-2.705128075E0,-4.521762961E-1,6.651462515E0
5.864650375E0,5.389894391E0,-2.403661716E0,-4.553174204E-1,5.919110165E0
5.874636375E0,4.740930637E0,-1.943307796E0,-5.656830311E-2,5.124067571E0
5.884622375E0,4.382841303E0,-1.415315187E0,2.873994201E-1,4.614652034E0
5.894608375E0,4.279094156E0,-9.831502551E-1,3.634255028E-1,4.405599768E0
5.904594375E0,4.128739437E0,-7.236120866E-1,2.458871126E-1,4.198876548E0
5.914580375E0,3.820321031E0,-6.425389798E-1,4.377167165E-2,3.874225740E0
5.924566375E0,3.420436385E0,-6.884214963E-1,-3.100643975E-1,3.502777348E0
5.934552375E0,2.952556514E0,-8.445444931E-1,-7.884157544E-1,3.170559063E0
5.944538375E0,2.546511533E0,-1.121400945E0,-1.216878667E0,3.036948264E0
5.954524375E0,2.215972379E0,-1.334607823E0,-1.673435113E0,3.080924651E0
5.964510375E0,1.900819296E0,-1.450132432E0,-2.120348330E0,3.195602464E0
5.974496375E0,1.690234748E0,-1.464335173E0,-2.286851889E0,3.198571957E0
5.984482375E0,1.430572473E0,-1.434845325E0,-2.160942625E0,2.962261254E0
5.994468375E0,1.187739288E0,-1.261970933E0,-1.703608500E0,2.430139332E0
6.004454375E0,1.139970532E0,-9.171617952E-1,-1.108138583E0,1.835399055E0
6.014440375E0,1.236670615E0,-5.421210909E-1,-5.657789254E-1,1.464020246E0
6.024426375E0,1.231292931E0,-1.996230653E-1,-1.914577210E-1,1.261977698E0
6.034412375E0,1.187937435E0,2.341795251E-2,5.373474240E-2,1.189382686E0
6.044398375E0,1.000719822E0,1.221062350E-1,1.712836576E-1,1.022588963E0
6.054384375E0,7.310619510E-1,1.784043968E-1,1.651177686E-1,7.704177974E-1
6.064370375E0,3.521509746E-1,1.329431722E-1,1.334036404E-1,3.993503815E-1
6.074356375E0,8.903920725E-3,1.236665645E-1,1.166636467E-1,1.702442523E-1
6.084342375E0,-3.629813337E-1,1.683922094E-1,1.829120153E-1,4.399638509E-1
6.094328375E0,-6.327727409E-1,1.239697427E-1,3.305770147E-1,7.246040308E-1
6.104315375E0,-8.683553785E-1,9.095694780E-2,5.348109019E-1,1.023883260E0
6.114301375E0,-1.051653018E0,1.215475336E-1,7.837865138E-1,1.317220244E0
6.124287375E0,-1.133469963E0,3.964176862E-1,1.186940339E0,1.688410053E0
6.134273375E0,-1.093108388E0,7.542434567E-1,1.823835440E0,2.256134936E0
6.144259375E0,-9.363009015E-1,1.125404533E0,2.698618078E0,3.070135872E0
6.154245375E0,-5.325371390E-1,1.315908574E0,3.502413179E0,3.779167799E0
6.164231375E0,-4.137173681E-2,1.331600015E0,4.016889803E0,4.232053156E0
6.174217375E0,2.762865675E-1,1.417120222E0,4.202123163E0,4.443242405E0
6.184203375E0,4.514958995E-1,1.533919524E0,4.278425235E0,4.567458828E0
6.194189125E0,4.717968841E-1,1.539660905E0,4.366012432E0,4.653516150E0
6.204175125E0,4.616581410E-1,1.453938823E0,4.412754489E0,4.668990097E0
6.214161125E0,4.929187446E-1,1.396611113E0,4.450133985E0,4.690115561E0
6.224147125E0,6.369559121E-1,1.326966828E0,4.425196195E0,4.663573218E0
6.234133125E0,1.123789679E0,1.482398391E0,4.476755773E0,4.847860403E0
6.244119125E0,1.952728684E0,1.662585312E0,4.480535413E0,5.162609497E0
6.254105125E0,2.850319118E0,1.517526416E0,4.631197695E0,5.645812394E0
6.264091125E0,3.406815881E0,1.302931848E0,4.733169043E0,5.975526340E0
6.274077125E0,3.468541135E0,9.621052489E-1,5.017760630E0,6.175301277E0
6.284063125E0,3.183952180E0,6.382376218E-1,5.394396163E0,6.296380603E0
6.294049125E0,2.994229912E0,-8.804795802E-2,5.982116765E0,6.690208233E0
6.304035125E0,3.155129499E0,-1.196122806E0,6.476126965E0,7.302449753E0
6.314021125E0,3.191540696E0,-2.240699816E0,6.193474315E0,7.318865470E0
6.324007125E0,3.336178007E0,-3.194669833E0,5.173220553E0,6.935287300E0
6.333993125E0,3.209502173E0,-3.758269794E0,3.799807245E0,6.234102272E0
6.343979125E0,2.983947583E0,-4.422175523E0,2.467251356E0,5.877661847E0
6.353965125E0,2.620789883E0,-5.062422248E0,1.383488061E0,5.866063232E0
6.363951125E0,3.890795767E-1,-6.631641852E0,4.965967163E-1,6.661581259E0
6.373937125E0,-1.103256158E0,-6.822548765E0,-8.001091625E-1,6.957335731E0
6.383924125E0,-2.403916070E0,-6.077300080E0,-7.334776551E-1,6.576501973E0
6.393910125E0,-3.413756526E0,-5.908243042E0,-1.188325544E0,6.926267903E0
6.403896125E0,-3.315340869E0,-6.066586812E0,-2.114473633E0,7.229519995E0
6.413882125E0,-2.727761185E0,-6.111709775E0,-3.222393529E0,7.428155728E0
6.423868125E0,-2.266590702E0,-6.259980546E0,-3.971003194E0,7.752009817E0
6.433854125E0,-2.225021092E0,-6.274595661E0,-4.495741682E0,8.033241117E0
6.443840125E0,-2.604741615E0,-6.052525427E0,-4.959250467E0,8.246933256E0
6.453826125E0,-2.879412816E0,-5.974382068E0,-5.218953381E0,8.439296988E0
6.463812125E0,-2.821378031E0,-6.298000896E0,-5.728425958E0,8.968826748E0
6.473798125E0,-3.020759899E0,-6.877393894E0,-6.560345582E0,9.973047242E0
6.483784125E0,-3.808616660E0,-7.317310333E0,-7.216922411E0,1.096050001E1
6.493770125E0,-4.603453826E0,-7.790223779E0,-7.943348324E0,1.204060448E1
6.503756125E0,-5.623209990E0,-8.436417707E0,-8.792428941E0,1.342015056E1
6.513742125E0,-6.830500978E0,-8.861630153E0,-9.442872040E0,1.464076723E1
6.523728125E0,-8.360850046E0,-9.446557540E0,-9.295563136E0,1.566999543E1
6.533714125E0,-9.901827013E0,-1.063401536E1,-8.460537472E0,1.681395715E1
6.543700125E0,-1.154874442E1,-1.172708099E1,-7.195613987E0,1.796315080E1
6.553686125E0,-1.329295715E1,-1.291757526E1,-5.046317847E0,1.921020001E1
6.563672125E0,-1.474530027E1,-1.416585173E1,-2.211474262E0,2.056661989E1
6.573658125E0,-1.549247152E1,-1.438015335E1,9.346013352E-1,2.115842536E1
6.583644125E0,-1.568010049E1,-1.407254771E1,3.633038807E0,2.137992332E1
6.593630125E0,-1.562911160E1,-1.440937890E1,5.753839712E0,2.202285179E1
6.603616125E0,-1.591984217E1,-1.447579041E1,8.267219167E0,2.305074393E1
6.613602125E0,-1.713631680E1,-1.234745303E1,1.235197409E1,2.446802431E1
6.623588125E0,-1.764076545E1,-7.817881694E0,1.730418100E1,2.591815117E1
6.633574125E0,-1.586882405E1,-5.483141109E0,2.008005659E1,2.617428291E1
6.643560125E0,-1.401024796E1,-3.964198204E0,2.241811722E1,2.673151502E1
6.653546125E0,-1.150182987E1,-2.412828104E0,2.362231386E1,2.638422904E1
6.663532125E0,-8.108137479E0,-1.734518344E0,2.222564559E1,2.372192592E1
6.673519125E0,-4.949698455E0,-5.247516444E-1,1.889733794E1,1.954185918E1
6.683505125E0,-4.566340671E0,-2.929924281E-1,1.488684265E1,1.557419005E1
6.693491125E0,-6.031069654E0,-1.872986257E0,1.148739426E1,1.310885600E1
6.703477125E0,-6.551725032E0,-3.889375479E0,8.983549277E0,1.177949490E1
6.713463125E0,-6.626655931E0,-4.465085607E0,6.531587806E0,1.032042623E1
6.723449125E0,-5.463525454E0,-4.939842389E0,6.051674657E0,9.532833754E0
6.733435125E0,-3.824078452E0,-4.054954885E0,7.443744677E0,9.299224158E0
6.743421125E0,-1.422589854E0,-2.789871772E0,9.476371323E0,9.980418822E0
6.753407125E0,1.557305317E0,-2.144592640E0,1.157727415E1,1.187677373E1
6.763393125E0,3.783408436E0,-1.377832341E0,1.315793325E1,1.376022561E1
6.773379125E0,5.726232083E0,-3.794860500E-1,1.397064711E1,1.510340108E1
6.783365125E0,7.631018715E0,7.766052559E-2,1.409143304E1,1.602519775E1
6.793351125E0,9.002130559E0,-1.691453308E-1,1.363169571E1,1.633677118E1
6.803337125E0,9.743520082E0,-8.213127744E-1,1.258867874E1,1.594006181E1
6.813323125E0,9.579336698E0,-1.604451709E0,1.066348766E1,1.442386654E1
6.823309125E0,9.024213154E0,-2.612440059E0,7.966037275E0,1.231742733E1
6.833295125E0,8.732022525E0,-3.414150043E0,5.162279828E0,1.070297953E1
6.843281125E0,8.788131822E0,-3.861492446E0,2.825986222E0,1.000642708E1
6.853267125E0,9.021718147E0,-3.739394397E0,8.543805331E-1,9.803286942E0
6.863253125E0,9.116759375E0,-3.356693256E0,-2.366157675E-1,9.717956479E0
6.873239125E0,8.733093735E0,-2.737625146E0,-6.477375931E-1,9.175024883E0
6.883225125E0,7.959464419E0,-2.242550752E0,-4.979091239E-1,8.284323824E0
6.893211125E0,6.860525846E0,-1.780794816E0,7.168686390E-3,7.087883778E0
6.903197125E0,5.757967846E0,-1.247579766E0,3.673998553E-1,5.903018858E0
6.913183125E0,4.835533909E0,-9.205501105E-1,5.969510168E-1,4.958442417E0
6.923169125E0,3.868222884E0,-7.009761992E-1,5.844900155E-1,3.974436374E0
6.933155125E0,2.907677672E0,-4.861456954E-1,2.812709534E-1,2.961425405E0
6.943141125E0,2.007986772E0,-5.164034285E-1,-3.103819013E-2,2.073558957E0
6.953127125E0,1.398322301E0,-5.606607114E-1,-4.444363368E-1,1.570722556E0
6.963114125E0,1.285851254E0,-6.553807810E-1,-8.980773604E-1,1.699847158E0
6.973100125E0,1.367252097E0,-7.782932009E-1,-1.263850520E0,2.018027934E0
6.983086125E0,1.410964566E0,-7.736161593E-1,-1.540598652E0,2.227722419E0
6.993072125E0,1.457991821E0,-7.906467596E-1,-1.745295054E0,2.407678815E0
7.003058125E0,1.409627454E0,-9.042100663E-1,-1.779774331E0,2.443817111E0
7.013044125E0,1.213945996E0,-9.458561289E-1,-1.678954300E0,2.277541710E0
7.023030125E0,1.040310735E0,-8.515862949E-1,-1.416100321E0,1.952635594E0
7.033016125E0,7.788111180E-1,-7.077063444E-1,-1.018859201E0,1.464741991E0
7.043002125E0,5.064879029E-1,-4.924215120E-1,-4.417670828E-1,8.331669081E-1
7.052988125E0,2.218742425E-1,-1.436869924E-1,1.388479829E-1,2.985848181E-1
7.062974125E0,6.249394454E-3,1.337629518E-1,6.454378831E-1,6.591825568E-1
7.072960125E0,-1.365101930E-1,2.837963659E-1,1.232116511E0,1.271725799E0
7.082946125E0,-2.361778110E-1,4.937596473E-1,1.799775317E0,1.881161805E0
7.092932125E0,-2.104341285E-1,6.553927678E-1,2.245633696E0,2.348764122E0
7.102918125E0,-8.230646733E-2,6.794319870E-1,2.533210287E0,2.624034401E0
7.112904125E0,1.496759299E-2,6.060989857E-1,2.641206606E0,2.709898955E0
7.122890125E0,2.965948977E-2,5.907517987E-1,2.777552565E0,2.839835493E0
7.132876125E0,-4.075253494E-2,7.016796193E-1,3.095849842E0,3.174634043E0
7.142862125E0,-7.388952831E-3,8.896528383E-1,3.564850917E0,3.674193630E0
7.152848125E0,1.121003974E-1,1.113697531E0,4.100361730E0,4.250394689E0
7.162834125E0,2.556010920E-1,1.308295499E0,4.691424016E0,4.877133208E0
7.172820125E0,5.770824338E-1,1.500502540E0,5.154078523E0,5.398986704E0
7.182806125E0,9.718104574E-1,1.731722936E0,5.391152127E0,5.745241610E0
7.192792042E0,1.400233756E0,1.793055843E0,5.324374001E0,5.790048560E0
7.202778042E0,1.964786374E0,1.642515914E0,4.967868093E0,5.589092718E0
7.212764042E0,2.636853354E0,1.409379239E0,4.482469087E0,5.388123474E0
7.222750042E0,3.515178820E0,1.199567401E0,4.138917686E0,5.561122521E0
7.232736042E0,4.445769038E0,9.734818840E-1,3.588305268E0,5.795555540E0
7.242723042E0,5.396657866E0,7.261698049E-1,2.762393659E0,6.105903490E0
7.252709042E0,6.304490136E0,4.380567321E-1,1.657959872E0,6.533553437E0
7.262695042E0,6.684877242E0,-3.069256121E-1,6.702908885E-1,6.725405337E0
7.272681042E0,6.965889748E0,-1.116131727E0,-5.268522567E-1,7.074386427E0
7.282667042E0,7.036215380E0,-1.881793334E0,-1.715901686E0,7.482899948E0
7.292653042E0,6.452790728E0,-2.708448417E0,-2.272862425E0,7.357995964E0
7.302639042E0,5.702954317E0,-3.117043660E0,-2.355064922E0,6.912740405E0
7.312625042E0,5.063707466E0,-3.178444687E0,-2.175620306E0,6.362151181E0
7.322611042E0,4.287621151E0,-3.094725130E0,-1.289883494E0,5.442868563E0
7.332597042E0,3.218201076E0,-2.816852579E0,1.253350675E-1,4.278689694E0
7.342583042E0,2.375030240E0,-2.448288251E0,1.345551326E0,3.666795927E0
7.352569042E0,1.856268191E0,-2.465019473E0,2.105589373E0,3.735714016E0
7.362555042E0,1.864387634E0,-3.120718928E0,2.190397974E0,4.244133735E0
7.372541042E0,1.762795771E0,-4.420840604E0,1.706453170E0,5.056012559E0
7.382527042E0,1.233268998E0,-5.906962502E0,8.673560894E-1,6.096348498E0
7.392513042E0,3.958097219E-1,-7.061550781E0,-4.520999900E-1,7.087069858E0
7.402499042E0,-5.162226033E-1,-7.374707186E0,-1.721782523E0,7.590607809E0
7.412485042E0,-1.529638631E0,-7.393707713E0,-2.529902517E0,7.962858459E0
7.422471042E0,-2.278659355E0,-7.382400953E0,-2.979808924E0,8.280784595E0
7.432457042E0,-2.694769440E0,-7.323118372E0,-3.109537590E0,8.399944586E0
7.442443042E0,-2.974583268E0,-7.186368955E0,-3.086591361E0,8.367741069E0
7.452429042E0,-3.260010422E0,-7.028073133E0,-3.017731041E0,8.314335845E0
7.462415042E0,-3.765222718E0,-6.705283440E0,-2.735740880E0,8.162230473E0
7.472401042E0,-4.628645970E0,-6.478902639E0,-2.303812323E0,8.289034572E0
7.482387042E0,-5.448173005E0,-6.626972265E0,-2.120122628E0,8.837096268E0
7.492373042E0,-6.263889994E0,-6.800770226E0,-1.999399844E0,9.459619086E0
7.502359042E0,-7.274433285E0,-6.822979705E0,-1.895416469E0,1.015199661E1
7.512345042E0,-8.654004881E0,-7.067412615E0,-2.080665616E0,1.136526687E1
7.522331042E0,-1.043300796E1,-7.733181267E0,-2.539386116E0,1.323246876E1
7.532317042E0,-1.173406841E1,-8.149448057E0,-3.345121908E0,1.467282201E1
7.542303042E0,-1.279896800E1,-8.450976689E0,-3.842229379E0,1.581124016E1
7.552290042E0,-1.395166939E1,-8.823415090E0,-3.403680311E0,1.685487384E1
7.562276042E0,-1.489721327E1,-9.179557886E0,-2.497358084E0,1.767563418E1
7.572262042E0,-1.521173500E1,-9.782269580E0,-1.172954383E0,1.812361724E1
7.582248042E0,-1.516109344E1,-9.846940370E0,1.361804246E0,1.812940980E1
7.592234042E0,-1.540616896E1,-8.811203765E0,4.397294451E0,1.828451673E1
7.602220042E0,-1.563343152E1,-6.587940347E0,8.319535375E0,1.889496779E1
7.612206042E0,-1.507508557E1,-4.567950118E0,1.141902043E1,1.945554936E1
7.622192042E0,-1.418558959E1,-3.715542435E0,1.405480725E1,2.031191312E1
7.632178042E0,-1.289269887E1,-3.352402861E0,1.611447610E1,2.090781263E1
7.642164042E0,-1.169011021E1,-3.592079938E0,1.572047317E1,1.991720341E1
7.652150042E0,-1.093604510E1,-3.926373151E0,1.474824025E1,1.877562460E1
7.662136042E0,-1.036269520E1,-3.174625871E0,1.417327067E1,1.784223368E1
7.672122042E0,-9.403163599E0,-2.793673047E0,1.390387308E1,1.701592728E1
7.682108042E0,-8.340303515E0,-3.143463719E0,1.485064956E1,1.732004097E1
7.692094042E0,-7.112036811E0,-3.591728813E0,1.630981871E1,1.815190816E1
7.702080042E0,-5.006990644E0,-4.197902643E0,1.710551133E1,1.831094918E1
7.712066042E0,-1.811075938E0,-4.283145984E0,1.780633287E1,1.840355471E1
7.722052042E0,1.604689691E0,-4.037182858E0,1.793301280E1,1.845174307E1
7.732038042E0,5.169100605E0,-3.705257475E0,1.763838095E1,1.874996045E1
7.742024042E0,8.285975865E0,-3.118506634E0,1.694978009E1,1.912269659E1
7.752010042E0,1.071181373E1,-2.723876295E0,1.559489837E1,1.911447908E1
7.761996042E0,1.242585249E1,-2.815329964E0,1.384563832E1,1.881567414E1
7.771982042E0,1.352448233E1,-3.102493449E0,1.149413610E1,1.801810902E1
7.781968042E0,1.378172591E1,-3.287321597E0,8.892560754E0,1.672782380E1
7.791954042E0,1.320013377E1,-3.317708407E0,6.524547758E0,1.509372201E1
7.801940042E0,1.224513026E1,-3.521185372E0,4.665678141E0,1.356873296E1
7.811926042E0,1.122892160E1,-3.485977533E0,3.073594170E0,1.215268287E1
7.821912042E0,9.771540524E0,-3.034319007E0,1.968934096E0,1.041953922E1
7.831899042E0,8.377491222E0,-2.445643847E0,1.357138753E0,8.832064232E0
7.841885042E0,7.108275297E0,-1.899394184E0,1.094683555E0,7.438656333E0
7.851871042E0,5.902409860E0,-1.576898752E0,9.209586847E-1,6.178447760E0
7.861857042E0,4.738199695E0,-1.315656559E0,7.513976169E-1,4.974543890E0
7.871843042E0,3.870368519E0,-9.096223953E-1,5.069366401E-1,4.008010745E0
7.881829042E0,3.157664852E0,-4.779338658E-1,2.251604873E-1,3.201556706E0
7.891815042E0,2.663697921E0,-2.176835065E-1,-6.925559163E-2,2.673475091E0
7.901801042E0,2.329497387E0,-1.127430886E-1,-2.964462322E-1,2.350989036E0
7.911787042E0,1.928124039E0,-2.288443793E-1,-4.850967050E-1,2.001337271E0
7.921773042E0,1.611512514E0,-4.113668239E-1,-7.583072716E-1,1.827901848E0
7.931759042E0,1.391512487E0,-5.393686603E-1,-1.081245484E0,1.842910022E0
7.941745042E0,1.158982462E0,-6.825846595E-1,-1.375669749E0,1.923961908E0
7.951731042E0,9.575428127E-1,-7.462415421E-1,-1.555057063E0,1.972806920E0
7.961717042E0,8.995675233E-1,-6.268824752E-1,-1.614447817E0,1.951575036E0
7.971703042E0,8.435946129E-1,-4.162052487E-1,-1.462075809E0,1.738546620E0
7.981689042E0,6.288918708E-1,-3.113709578E-1,-1.238827361E0,1.423780211E0
7.991675042E0,2.070808965E-1,-2.603469846E-1,-1.056053340E0,1.107208972E0
8.001661042E0,-1.160783404E-1,-1.721234639E-1,-7.932683587E-1,8.199849736E-1
8.011647042E0,-2.870978500E-1,-4.844732456E-2,-4.623440194E-1,5.463829344E-1
8.021633042E0,-2.661072229E-1,3.706951998E-2,-1.386129248E-1,3.023255634E-1
8.031619042E0,-1.676522443E-1,-1.339408533E-1,1.986234838E-1,2.924016339E-1
8.041605042E0,-1.328243275E-1,-2.454476213E-1,4.444562173E-1,5.248125054E-1
8.051591042E0,-1.302031669E-1,-1.122698296E-1,6.287084144E-1,6.517911089E-1
8.061577042E0,-6.419277996E-2,-1.963275746E-2,8.997748071E-1,9.022753802E-1
8.071563042E0,-9.232797369E-2,1.511782989E-2,1.222619464E0,1.226193850E0
8.081549042E0,-1.894364847E-1,2.310346732E-1,1.616700164E0,1.644075005E0
8.091535042E0,-2.950659969E-1,5.045532420E-1,1.992037615E0,2.076018250E0
8.101521042E0,-3.830847189E-1,5.895314118E-1,2.241190397E0,2.348879644E0
8.111507042E0,-5.271962191E-1,5.562856054E-1,2.400815876E0,2.520179835E0
8.121493042E0,-8.557346021E-1,5.583390744E-1,2.425496389E0,2.631930273E0
8.131479042E0,-1.127555870E0,4.635655028E-1,2.370873454E0,2.665955017E0
8.141466042E0,-1.333104065E0,3.257143240E-1,2.376432987E0,2.744210271E0
8.151452042E0,-1.700000914E0,4.284876906E-1,2.614848527E0,3.148180050E0
8.161438042E0,-2.019505641E0,6.968031145E-1,3.163239003E0,3.817069374E0
8.171424042E0,-2.447930547E0,1.138692404E0,4.144826297E0,4.946571478E0
8.181410042E0,-2.949306631E0,1.942782716E0,5.393293378E0,6.446737760E0
8.191396042E0,-2.975882227E0,2.448392916E0,6.576350580E0,7.622262778E0
8.201382625E0,-2.817728199E0,2.657969404E0,7.735275155E0,8.650946496E0
8.211368625E0,-2.285349739E0,2.712781203E0,8.298078432E0,9.024417486E0
8.221354625E0,-1.556345204E0,2.269154414E0,8.155859529E0,8.607515136E0
8.231340625E0,-9.400914321E-1,1.470409260E0,7.558800339E0,7.757663170E0
8.241326625E0,-2.743706542E-1,5.851639071E-1,6.412629712E0,6.445115660E0
8.251312625E0,6.015974702E-1,-2.072782400E-1,4.869518511E0,4.910915832E0
8.261298625E0,1.437085686E0,-7.286750445E-1,3.480904781E0,3.835737306E0
8.271284625E0,2.243563197E0,-8.730416295E-1,2.339670373E0,3.357057485E0
8.281270625E0,3.213710414E0,-1.009717372E0,1.488866581E0,3.682959068E0
8.291256625E0,3.901006468E0,-1.422273812E0,1.293995841E0,4.349153882E0
8.301242625E0,4.117227439E0,-1.958959331E0,1.117444426E0,4.694439849E0
8.311228625E0,4.226349932E0,-2.610370730E0,8.780430454E-1,5.044504801E0
8.321214625E0,4.160930114E0,-3.408769435E0,6.157854831E-1,5.414077967E0
8.331200625E0,3.984652057E0,-4.536502622E0,2.277198136E-1,6.042281388E0
8.341186625E0,4.160468184E0,-5.732968075E0,-7.113968146E-1,7.119164550E0
8.351172625E0,4.375529653E0,-6.555124018E0,-1.976788076E0,8.125429326E0
8.361158625E0,4.915865296E0,-6.781570893E0,-3.254760207E0,8.986039138E0
8.371144625E0,5.623759629E0,-6.321061730E0,-4.236047539E0,9.461849317E0
8.381130625E0,6.701590923E0,-5.897085970E0,-4.537734046E0,1.001388906E1
8.391116625E0,8.442590028E0,-5.413769742E0,-4.034674695E0,1.081040374E1
8.401102625E0,9.191444106E0,-4.953257071E0,-3.932591665E0,1.115718054E1
8.411088625E0,8.843414322E0,-5.347741229E0,-3.561530575E0,1.093109387E1
8.421074625E0,7.376423929E0,-6.353186333E0,-3.102475615E0,1.021762994E1
8.431060625E0,5.477505562E0,-7.184856280E0,-3.101647064E0,9.552247980E0
8.441046625E0,3.768807061E0,-7.574420591E0,-3.350749853E0,9.099630681E0
8.451033625E0,2.175325606E0,-7.953516047E0,-3.863261229E0,9.105780929E0
8.461019625E0,9.844910216E-1,-8.621124818E0,-4.827753603E0,9.929764375E0
8.471005625E0,4.318057662E-1,-9.165824531E0,-6.058801829E0,1.099581171E1
8.480991625E0,5.216002876E-1,-9.445668764E0,-7.207361044E0,1.189280364E1
8.490977625E0,6.086203051E-1,-9.961237063E0,-7.948240104E0,1.275818103E1
8.500963625E0,1.890884292E-1,-1.090985425E1,-8.304379392E0,1.371216216E1
8.510949625E0,-1.091456476E0,-1.168471791E1,-8.096016786E0,1.425725772E1
8.520935625E0,-3.663418601E0,-1.164000308E1,-6.414294414E0,1.378598855E1
8.530921625E0,-6.060326198E0,-1.090352990E1,-4.235609875E0,1.317402402E1
8.540907625E0,-7.558285784E0,-1.059733460E1,-2.476521531E0,1.325006957E1
8.550893625E0,-8.118703982E0,-1.083427197E1,-1.136309006E0,1.358624310E1
8.560879625E0,-8.915665442E0,-1.090769195E1,-3.145135438E-1,1.409133609E1
8.570865625E0,-1.018012056E1,-1.071753932E1,2.893640846E-1,1.478459453E1
8.580851625E0,-1.164602922E1,-1.080522885E1,6.686694556E-1,1.590063162E1
8.590837625E0,-1.306491808E1,-1.134762593E1,4.173724991E-1,1.730996529E1
8.600823625E0,-1.455077744E1,-1.186792521E1,9.860270852E-1,1.880279294E1
8.610809625E0,-1.592635363E1,-1.200173991E1,2.332672425E0,2.007814388E1
8.620795625E0,-1.707012983E1,-1.108551864E1,4.524555591E0,2.085065129E1
8.630781625E0,-1.739723243E1,-8.915623342E0,7.244338835E0,2.084784115E1
8.640767625E0,-1.663252655E1,-6.350089062E0,1.017516096E1,2.050605937E1
8.650753625E0,-1.522422583E1,-4.526397757E0,1.299096133E1,2.051902544E1
8.660739625E0,-1.295796315E1,-3.311534917E0,1.474598907E1,1.990776899E1
8.670725625E0,-1.081513988E1,-2.388868991E0,1.594595818E1,1.941513657E1
8.680711625E0,-9.073651362E0,-1.493362067E0,1.534996318E1,1.789364829E1
8.690697625E0,-7.823871582E0,-9.142270046E-1,1.494556624E1,1.689434011E1
8.700683625E0,-7.349802141E0,-3.983129150E-1,1.505426481E1,1.675736058E1
8.710669625E0,-6.395610806E0,-6.000898752E-1,1.462238244E1,1.597116194E1
8.720655625E0,-4.640081955E0,-1.272881545E0,1.434421051E1,1.512967162E1
8.730641625E0,-2.159027077E0,-1.752942043E0,1.466637455E1,1.492771738E1
8.740627625E0,1.010691226E0,-2.135501682E0,1.507737768E1,1.526136239E1
8.750613625E0,3.923594262E0,-2.752201085E0,1.447489228E1,1.524767881E1
8.760599625E0,6.496643676E0,-2.994491575E0,1.328011199E1,1.508425448E1
8.770586625E0,8.063802720E0,-2.804054778E0,1.131714556E1,1.417622733E1
8.780572625E0,8.673977215E0,-2.932147392E0,9.035010622E0,1.286338937E1
8.790558625E0,8.545450737E0,-3.159635071E0,6.990477290E0,1.148367514E1
8.800544625E0,8.294249091E0,-2.975876672E0,5.414252722E0,1.034236639E1
8.810530625E0,8.466969409E0,-2.578627950E0,4.326118049E0,9.851608521E0
8.820516625E0,8.596833730E0,-2.044427497E0,3.881375318E0,9.651440739E0
8.830502625E0,8.293620515E0,-1.381082809E0,3.884912884E0,9.261969503E0
8.840488625E0,7.658559101E0,-7.264199927E-1,4.095683958E0,8.715264803E0
8.850474625E0,6.809836918E0,-4.683259768E-1,4.250123541E0,8.040942618E0
8.860460625E0,5.813421670E0,-4.873016900E-1,4.227992415E0,7.204807722E0
8.870446625E0,4.852140586E0,-5.428130723E-1,3.792300004E0,6.182188417E0
8.880432625E0,4.201512129E0,-6.778370127E-1,3.063956789E0,5.244044088E0
8.890418625E0,3.803675470E0,-7.885952640E-1,2.337402238E0,4.533572410E0
8.900404625E0,3.582959159E0,-8.231057500E-1,1.665009275E0,4.035759569E0
8.910390625E0,3.425946801E0,-8.561720469E-1,1.153497189E0,3.714929046E0
8.920376625E0,3.264869750E0,-9.331915715E-1,7.382530761E-1,3.474944403E0
8.930362625E0,3.080135743E0,-9.894233673E-1,1.081863534E-1,3.236958307E0
8.940348625E0,2.754259305E0,-1.050293540E0,-5.965341103E-1,3.007476315E0
8.950334625E0,2.331647116E0,-8.966279087E-1,-1.228626308E0,2.783889812E0
8.960320625E0,2.014787815E0,-7.552434768E-1,-1.568689261E0,2.662808413E0
8.970306625E0,1.767642966E0,-7.431591824E-1,-1.537328889E0,2.457687397E0
8.980292625E0,1.472570830E0,-7.012694371E-1,-1.284294725E0,2.075971246E0
8.990278625E0,1.170215840E0,-5.926383298E-1,-9.138057858E-1,1.598645150E0
9.000264625E0,9.517349195E-1,-4.740358926E-1,-5.744749045E-1,1.208524224E0
9.010250625E0,8.263136056E-1,-4.217271399E-1,-3.686850733E-1,9.982868518E-1
9.020236625E0,7.294090162E-1,-3.889070108E-1,-2.901569670E-1,8.760577843E-1
9.030222625E0,6.016137327E-1,-3.521415460E-1,-2.748600662E-1,7.493269032E-1
9.040208625E0,4.005294482E-1,-2.908834836E-1,-2.650232953E-1,5.614929982E-1
9.050194625E0,2.065312582E-1,-2.360205940E-1,-1.751398963E-1,3.592142323E-1
9.060180625E0,-2.198129162E-2,-2.071549369E-1,-6.844341338E-2,2.192734500E-1
9.070166625E0,-1.839478496E-1,-1.642585934E-1,-9.561367035E-3,2.467977241E-1
9.080153625E0,-2.676774926E-1,-1.121637757E-1,1.171735239E-1,3.129881585E-1
9.090139625E0,-4.552497388E-1,-4.054495879E-2,3.983491677E-1,6.062823417E-1
9.100125625E0,-7.008677334E-1,8.591584392E-2,8.991813147E-1,1.143295302E0
9.110111625E0,-9.217831421E-1,3.006665332E-1,1.438541350E0,1.734786944E0
9.120097625E0,-1.139460509E0,4.374893329E-1,1.940151177E0,2.292150466E0
9.130083625E0,-1.307826698E0,4.898345576E-1,2.338191612E0,2.723506670E0
9.140069625E0,-1.314074887E0,4.459161209E-1,2.672065287E0,3.010907984E0
9.150055625E0,-1.218957353E0,3.509585081E-1,2.905148166E0,3.170002330E0
9.160041625E0,-1.241613559E0,2.549331938E-1,3.152562572E0,3.397829591E0
9.170027625E0,-1.215243713E0,3.828718802E-1,3.384722761E0,3.616594576E0
9.180013625E0,-1.163137639E0,5.428153016E-1,3.663204008E0,3.881572004E0
9.189999625E0,-1.317239400E0,6.960434881E-1,4.256828544E0,4.510009470E0
9.199985250E0,-1.292365637E0,9.789769511E-1,4.917794877E0,5.178157130E0
9.209971250E0,-1.024413252E0,1.067165681E0,5.531923844E0,5.726294310E0
9.219957250E0,-4.998592434E-1,7.443563998E-1,6.091077290E0,6.156715704E0
9.229943250E0,3.385099322E-1,3.319354691E-1,6.272885351E0,6.290775847E0
9.239929250E0,1.194855714E0,1.991693214E-1,6.150976167E0,6.269119268E0
9.249915250E0,1.979026975E0,7.241367280E-2,5.749784667E0,6.081267568E0
9.259901250E0,2.710554584E0,-3.440566009E-1,5.154426432E0,5.833831755E0
9.269887250E0,3.507747594E0,-6.348555923E-1,4.291946921E0,5.579260092E0
9.279873250E0,4.458682614E0,-8.744142634E-1,3.481845013E0,5.724307438E0
9.289859250E0,5.177675546E0,-1.192533493E0,2.816123139E0,6.013402508E0
9.299845250E0,5.731189937E0,-1.500860390E0,2.338376384E0,6.369232616E0
9.309831250E0,6.326496717E0,-1.740213239E0,2.047109030E0,6.873394955E0
9.319817250E0,6.719876336E0,-2.038983740E0,1.704141181E0,7.226222376E0
9.329803250E0,6.744371492E0,-2.867782704E0,1.669638516E0,7.516542904E0
9.339789250E0,6.525559326E0,-3.970019107E0,1.261178927E0,7.741740665E0
9.349775250E0,6.598428497E0,-4.676207222E0,1.585630399E-1,8.088962533E0
9.359761250E0,6.803321366E0,-5.402261252E0,-7.987746817E-1,8.723969809E0
9.369747250E0,7.159088185E0,-6.274461760E0,-1.639330058E0,9.659648910E0
9.379733250E0,7.601577984E0,-6.971959158E0,-2.689119276E0,1.065943548E1
9.389719250E0,7.593419949E0,-7.405641881E0,-3.432914928E0,1.114847358E1
9.399705250E0,7.134600631E0,-7.583051081E0,-4.160028473E0,1.121209288E1
9.409692250E0,6.199210433E0,-7.791074549E0,-4.933498744E0,1.111172635E1
9.419678250E0,4.638283351E0,-8.219624586E0,-5.533330100E0,1.094045898E1
9.429664250E0,2.911101801E0,-8.129800243E0,-6.106781741E0,1.057643366E1
9.439650250E0,1.647376412E0,-8.050288051E0,-6.323208827E0,1.036841148E1
9.449636250E0,9.357036084E-1,-7.828661036E0,-6.393001778E0,1.015056386E1
9.459622250E0,3.420358032E-1,-7.548966492E0,-6.019489828E0,9.661166668E0
9.469608250E0,-5.262318671E-2,-7.555843402E0,-5.526864833E0,9.361611699E0
9.479594250E0,-5.440033096E-1,-7.593091920E0,-5.041722520E0,9.130714675E0
9.489580250E0,-9.837226975E-1,-7.440033449E0,-4.385880686E0,8.692396531E0
9.499566250E0,-1.137950027E0,-7.233673514E0,-3.801315534E0,8.250512867E0
9.509552250E0,-1.681839901E0,-7.088355587E0,-3.301775329E0,7.998443018E0
9.519538250E0,-2.733082151E0,-7.146426040E0,-2.583512714E0,8.075622647E0
9.529524250E0,-4.049107962E0,-7.326209210E0,-1.877657890E0,8.578707119E0
9.539510250E0,-5.911871240E0,-7.683133779E0,-1.484118057E0,9.807312202E0
9.549496250E0,-8.056598951E0,-8.011632693E0,-9.508411726E-1,1.140171671E1
9.559482250E0,-1.036001132E1,-8.302793042E0,2.315205038E-3,1.327652862E1
9.569468250E0,-1.229959707E1,-8.686687308E0,6.345576766E-1,1.507120725E1
9.579454250E0,-1.349588945E1,-9.585517790E0,3.395229623E-1,1.655706674E1
9.589440250E0,-1.390287788E1,-1.098962547E1,6.052745283E-2,1.772189451E1
9.599426250E0,-1.388149812E1,-1.262096005E1,6.795873767E-1,1.877355751E1
9.609412250E0,-1.409391343E1,-1.391256555E1,2.031810960E0,1.990794142E1
9.619398250E0,-1.477402179E1,-1.402246046E1,3.838712863E0,2.072768279E1
9.629384250E0,-1.587904966E1,-1.228872125E1,7.199076709E0,2.133034443E1
9.639370250E0,-1.655770791E1,-9.196077440E0,1.082310496E1,2.181433319E1
9.649356250E0,-1.611976783E1,-6.444169008E0,1.380278290E1,2.217861684E1
9.659342250E0,-1.416416539E1,-3.909320916E0,1.688436378E1,2.238276372E1
9.669328250E0,-1.148910867E1,-1.510222513E0,2.047883202E1,2.353004358E1
9.679314250E0,-8.448992144E0,6.262423512E-1,2.190630342E1,2.348752386E1
9.689300250E0,-6.183983114E0,2.009797947E0,2.070044851E1,2.169768429E1
9.699286250E0,-5.216768276E0,1.766399117E0,1.826373599E1,1.907613403E1
9.709272250E0,-4.164988959E0,6.391494951E-1,1.543201014E1,1.599695540E1
9.719258250E0,-3.479905199E0,-1.065103441E0,1.328060199E1,1.377020605E1
9.729244250E0,-2.790859659E0,-3.228368214E0,1.178894102E1,1.253755915E1
9.739230250E0,-1.377872833E0,-5.120433059E0,1.086723272E1,1.209190288E1
9.749217250E0,1.053674985E0,-5.783746465E0,1.057519237E1,1.209944824E1
9.759203250E0,4.632279430E0,-5.348808931E0,1.059570557E1,1.274114383E1
9.769189250E0,8.215871258E0,-4.608980322E0,1.090223766E1,1.440840124E1
9.779175250E0,1.142029045E1,-3.855193533E0,1.099553116E1,1.631524614E1
9.789161250E0,1.301135291E1,-2.942298451E0,1.015300936E1,1.676412908E1
9.799147250E0,1.338186991E1,-2.523337848E0,8.915397640E0,1.627654728E1
9.809133250E0,1.291580707E1,-2.242001991E0,7.589128677E0,1.514726111E1
9.819119250E0,1.161661773E1,-2.025942402E0,6.291429210E0,1.336534068E1
9.829105250E0,1.004235666E1,-2.195957799E0,5.628710466E0,1.171979263E1
9.839091250E0,8.638730199E0,-2.276119617E0,5.228584914E0,1.035115840E1
9.849077250E0,7.569826434E0,-2.031626481E0,4.813345479E0,9.197721082E0
9.859063250E0,6.671583012E0,-1.600645756E0,4.356922351E0,8.127414047E0
9.869049250E0,5.864305894E0,-1.301176660E0,3.869143528E0,7.145167315E0
9.879035250E0,5.102379781E0,-9.667886493E-1,3.315095286E0,6.161072673E0
9.889021250E0,4.458681152E0,-7.619575422E-1,2.536186520E0,5.185813242E0
9.899007250E0,3.908822441E0,-6.130177036E-1,1.728239311E0,4.317579726E0
9.908993250E0,3.320665344E0,-3.918965460E-1,9.689473683E-1,3.481272789E0
9.918979250E0,2.695559399E0,-3.348498675E-1,2.341307008E-1,2.726349591E0
9.928965250E0,1.900134587E0,-4.676464938E-1,-4.122965312E-1,1.999798270E0
9.938951250E0,1.016054876E0,-5.452053510E-1,-1.034771814E0,1.549312458E0
9.948937250E0,1.573880419E-1,-5.093597263E-1,-1.440205468E0,1.535711599E0
9.958923250E0,-5.118971255E-1,-4.272567786E-1,-1.611898431E0,1.744363372E0
9.968909250E0,-8.382837331E-1,-3.117291728E-1,-1.585951996E0,1.820752160E0
9.978895250E0,-8.844263045E-1,-9.415807910E-2,-1.336038491E0,1.605015414E0
9.988881250E0,-7.799548334E-1,1.012199076E-1,-1.035420270E0,1.300257723E0
9.998867250E0,-5.903895637E-1,1.855228702E-1,-8.526059031E-1,1.053525224E0
1.000885325E1,-4.814842951E-1,6.387337580E-2,-8.463675088E-1,9.758303615E-1
1.001883925E1,-3.399373837E-1,-6.553807810E-2,-1.038010002E0,1.094220009E0
1.002882525E1,-1.289707200E-1,-2.005550384E-1,-1.194545812E0,1.218111435E0
1.003881125E1,-1.383538932E-2,-2.696651805E-1,-1.112595330E0,1.144892614E0
1.004879725E1,1.447022152E-1,-2.540548689E-1,-8.178769505E-1,8.685650889E-1
1.005878325E1,2.725458844E-1,-1.867791445E-1,-5.280778331E-1,6.229236756E-1
1.006876925E1,3.373043825E-1,-1.381977725E-1,-2.256399590E-1,4.287029996E-1
1.007875525E1,2.253686482E-1,-1.227922596E-2,1.922611284E-1,2.964897106E-1
1.008874225E1,6.973944873E-2,1.542309840E-1,5.470128715E-1,5.726027146E-1
1.009872825E1,-2.283776253E-3,2.318755759E-1,7.438862836E-1,7.791907991E-1
1.010871425E1,7.612548530E-2,2.013194887E-1,8.967301619E-1,9.221982484E-1
1.011870025E1,1.122488527E-1,2.906592429E-1,1.030388741E0,1.076468094E0
1.012868625E1,1.954102926E-1,3.960217566E-1,1.058578752E0,1.146999298E0
1.013867225E1,2.592143789E-1,3.028408934E-1,9.445469373E-1,1.025218815E0
1.014865825E1,1.498422101E-1,1.966450053E-1,7.576646626E-1,7.969803555E-1
1.015864425E1,-1.905698213E-1,1.765265635E-1,5.891490769E-1,6.438750805E-1
1.016863025E1,-5.320625643E-1,9.537481159E-2,4.525493485E-1,7.049736448E-1
1.017861625E1,-8.222883824E-1,5.487465709E-3,3.595885599E-1,8.974921885E-1
1.018860225E1,-1.072651392E0,7.853811957E-2,4.586491638E-1,1.169234066E0
1.019858838E1,-1.154727004E0,3.007813579E-1,8.782669938E-1,1.481626401E0
1.020857438E1,-1.099522857E0,6.444894648E-1,1.541326046E0,2.000000791E0
1.021856037E1,-1.034828532E0,9.324454667E-1,2.222439546E0,2.622891949E0
1.022854638E1,-9.415167640E-1,1.057728933E0,2.965518329E0,3.286265855E0
1.023853238E1,-7.409476192E-1,1.105479123E0,3.546961361E0,3.788406309E0
1.024851837E1,-5.069476037E-1,1.124847148E0,3.885512808E0,4.076700475E0
1.025850438E1,-4.743300806E-1,1.095408171E0,4.101024220E0,4.271218531E0
1.026849038E1,-3.016670649E-1,8.802551933E-1,4.192014497E0,4.294046782E0
1.027847637E1,1.438298106E-2,5.593947892E-1,4.254476793E0,4.291118990E0
1.028846237E1,6.255631240E-1,2.323705427E-1,4.428659500E0,4.478654961E0
1.029844838E1,1.603697564E0,2.302472726E-2,4.616761504E0,4.887418828E0
1.030843437E1,2.694630861E0,-1.330414054E-1,4.632648389E0,5.360985599E0
1.031842037E1,3.679279758E0,-3.616230986E-1,4.637488130E0,5.930781311E0
1.032840638E1,4.636418089E0,-5.879091749E-1,4.669992217E0,6.606878022E0
1.033839237E1,5.761542249E0,-6.766488585E-1,4.776484047E0,7.514520784E0
1.034837837E1,6.820629709E0,-7.937384748E-1,4.690509512E0,8.315761533E0
1.035836438E1,7.577272278E0,-1.433350192E0,4.625395503E0,8.992431902E0
1.036835037E1,8.374692745E0,-2.501573050E0,4.269810532E0,9.727519122E0
1.037833637E1,9.169063303E0,-3.484263421E0,3.523288908E0,1.042234994E1
1.038832238E1,9.869862624E0,-4.231789012E0,2.638561326E0,1.105822013E1
1.039830837E1,1.045192488E1,-4.910549008E0,1.582929570E0,1.165598092E1
1.040829437E1,1.072903846E1,-5.522422119E0,9.595333511E-1,1.210496248E1
1.041828038E1,1.041291108E1,-6.202173802E0,5.514994401E-1,1.213259365E1
1.042826637E1,9.475719359E0,-6.812089850E0,-4.481247604E-1,1.167881164E1
1.043825338E1,8.625960465E0,-7.278181350E0,-1.200163817E0,1.134986832E1
1.044823938E1,7.741974310E0,-7.516375866E0,-1.497261429E0,1.089384524E1
1.045822537E1,6.589032606E0,-7.644762595E0,-1.584821144E0,1.021613449E1
1.046821138E1,5.021795209E0,-7.750654501E0,-1.572592278E0,9.368250573E0
1.047819738E1,3.138777469E0,-7.732662034E0,-1.686926978E0,8.514206291E0
1.048818337E1,1.232958803E0,-7.506123358E0,-1.571749401E0,7.767397985E0
1.049816938E1,-1.073782682E-2,-7.188368703E0,-1.075503226E0,7.268388205E0
1.050815538E1,-3.628156382E-1,-6.900629559E0,-8.866343594E-1,6.966810173E0
1.051814137E1,-3.050416392E-1,-6.803530696E0,-1.153428776E0,6.907349584E0
1.052812738E1,1.383872223E-1,-6.865027617E0,-1.541374578E0,7.037299965E0
1.053811338E1,9.195682168E-2,-7.028280709E0,-1.988198333E0,7.304664153E0
1.054809937E1,-7.992582464E-1,-7.336158832E0,-2.306856091E0,7.731728473E0
1.055808537E1,-2.304619238E0,-7.785351294E0,-2.517775684E0,8.500715206E0
1.056807138E1,-3.967563277E0,-8.055661057E0,-2.891317455E0,9.433713481E0
1.057805737E1,-5.580842820E0,-8.196307059E0,-3.361939085E0,1.047033382E1
1.058804337E1,-7.198901292E0,-8.248482934E0,-3.554668576E0,1.151074799E1
1.059802938E1,-8.754850055E0,-8.116152257E0,-3.439850602E0,1.242384398E1
1.060801537E1,-1.051319083E1,-8.212566411E0,-3.127219277E0,1.370229648E1
1.061800137E1,-1.227718236E1,-8.703268257E0,-2.869212933E0,1.532019804E1
1.062798738E1,-1.411562531E1,-9.367754615E0,-2.983666332E0,1.720197574E1
1.063797337E1,-1.600858420E1,-1.036050132E1,-2.919157510E0,1.929083296E1
1.064795937E1,-1.801816229E1,-1.080124339E1,-6.793493950E-1,2.101862380E1
1.065794538E1,-1.940762445E1,-9.698443896E0,3.062303197E0,2.191103379E1
1.066793137E1,-1.979692037E1,-8.552569723E0,5.198489880E0,2.218307468E1
1.067791737E1,-1.988416317E1,-7.798887599E0,7.765088353E0,2.272661853E1
1.068790338E1,-1.976451978E1,-5.573015152E0,1.090116061E1,2.324930198E1
1.069788937E1,-1.889915642E1,-3.413830785E0,1.306294991E1,2.322655839E1
1.070787537E1,-1.741603239E1,-3.117628967E0,1.440988059E1,2.281846738E1
1.071786138E1,-1.501993230E1,-3.062503172E0,1.480523072E1,2.131131504E1
1.072784737E1,-1.207420796E1,-2.577098611E0,1.463111351E1,1.914412227E1
1.073783337E1,-9.081717011E0,-2.035860303E0,1.437437396E1,1.712439598E1
1.074781938E1,-6.389957133E0,-1.556218904E0,1.483156775E1,1.622432653E1
1.075780537E1,-3.570812153E0,-1.644732301E0,1.504981391E1,1.555483020E1
1.076779137E1,-4.394759244E-1,-2.213591393E0,1.529142437E1,1.545706263E1
1.077777738E1,2.890559656E0,-2.469831440E0,1.499454836E1,1.546906213E1
1.078776437E1,5.588595058E0,-2.678582593E0,1.422662184E1,1.551785966E1
1.079775038E1,7.704341630E0,-2.572782196E0,1.312424159E1,1.543443571E1
1.080773638E1,9.323970079E0,-2.225801987E0,1.193974773E1,1.531170103E1
1.081772237E1,9.949871246E0,-2.105344521E0,1.092438341E1,1.492563453E1
1.082770837E1,1.011192566E1,-2.558252742E0,1.005488841E1,1.448780448E1
1.083769438E1,1.012736465E1,-3.070724941E0,9.149257615E0,1.398934528E1
1.084768037E1,9.908573531E0,-3.106359628E0,8.160742539E0,1.320708213E1
1.085766637E1,9.646383212E0,-3.102840189E0,7.041395429E0,1.233943175E1
1.086765238E1,9.114668410E0,-2.943685703E0,6.001943504E0,1.130335311E1
1.087763837E1,8.226351222E0,-2.512290411E0,5.175315025E0,1.003834365E1
1.088762437E1,7.278951429E0,-2.114247492E0,4.536145942E0,8.833447592E0
1.089761038E1,6.599175771E0,-1.890798777E0,4.260823946E0,8.079533500E0
1.090759637E1,6.008958993E0,-1.553923287E0,3.992654849E0,7.379942988E0
1.091758237E1,5.544927467E0,-1.216426312E0,3.605932285E0,6.725225738E0
1.092756838E1,5.247210635E0,-1.089813555E0,3.151604798E0,6.217195978E0
1.093755437E1,4.826584453E0,-9.475689977E-1,2.558824015E0,5.544491395E0
1.094754037E1,4.221230695E0,-8.946041874E-1,1.776632622E0,4.666425688E0
1.095752638E1,3.559515625E0,-9.449626013E-1,8.461207563E-1,3.778759867E0
1.096751237E1,2.974919190E0,-1.024163795E0,-1.002177680E-1,3.147872181E0
1.097749837E1,2.453110742E0,-1.147558537E0,-8.740458888E-1,2.845803774E0
1.098748438E1,1.949551453E0,-1.244235158E0,-1.424493999E0,2.716257564E0
1.099747037E1,1.718491418E0,-1.248574377E0,-1.831287131E0,2.804596813E0
1.100745637E1,1.585486265E0,-1.198353300E0,-1.882495292E0,2.737445132E0
1.101744238E1,1.347489385E0,-1.049246815E0,-1.561886610E0,2.314332799E0
1.102742837E1,1.117768362E0,-8.860514650E-1,-1.078032439E0,1.787917014E0
1.103741437E1,9.142031041E-1,-8.074308266E-1,-8.151088786E-1,1.467008636E0
1.104740038E1,7.217890710E-1,-6.605571748E-1,-8.028993076E-1,1.265686589E0
1.105738637E1,4.512208611E-1,-5.636684460E-1,-7.510742658E-1,1.041842088E0
1.106737237E1,3.291877162E-1,-4.080513065E-1,-6.125437868E-1,8.062755806E-1
1.107735838E1,4.051909947E-1,-2.192687597E-1,-3.850642937E-1,6.004440370E-1
1.108734437E1,4.893511391E-1,-1.936975700E-1,-2.572406512E-1,5.857952190E-1
1.109733037E1,4.753318548E-1,-2.899413510E-1,-4.746617639E-1,7.316489249E-1
1.110731638E1,3.873404686E-1,-4.262289843E-1,-6.908432668E-1,8.994265979E-1
1.111730237E1,2.137711345E-1,-4.385955530E-1,-6.769444352E-1,8.344566648E-1
1.112728837E1,1.381749684E-1,-2.812395977E-1,-3.780698544E-1,4.910446497E-1
1.113727538E1,1.454614761E-1,-1.411949091E-1,8.256268501E-2,2.188872777E-1
1.114726137E1,-1.633653581E-2,8.207838938E-2,4.662452817E-1,4.736965348E-1
1.115724737E1,-2.170030367E-1,4.477907382E-1,7.768949854E-1,9.225902024E-1
1.116723338E1,-4.188964297E-1,7.019206707E-1,1.035935994E0,1.319594722E0
1.117721937E1,-7.116353810E-1,8.034164207E-1,1.321606978E0,1.702512221E0
1.118720537E1,-9.760580210E-1,9.400830267E-1,1.482979605E0,2.008898670E0
1.119719113E1,-1.198027390E0,1.008844309E0,1.489382306E0,2.161318144E0
1.120717712E1,-1.427119545E0,9.155877978E-1,1.524074421E0,2.279862727E0
1.121716312E1,-1.674942817E0,8.802783629E-1,1.508061821E0,2.419622676E0
1.122714913E1,-1.915271567E0,9.087839046E-1,1.569540616E0,2.637728398E0
1.123713512E1,-2.068232682E0,9.372264426E-1,1.772530800E0,2.880598075E0
1.124712112E1,-2.131736806E0,1.016555252E0,2.168811808E0,3.206467066E0
1.125710713E1,-2.108359345E0,1.284133342E0,2.857282274E0,3.776008417E0
1.126709312E1,-1.999286115E0,1.502876218E0,3.689003093E0,4.456963733E0
1.127707912E1,-1.760517257E0,1.537406804E0,4.526989787E0,5.094769595E0
1.128706513E1,-1.375859637E0,1.497612554E0,5.176773906E0,5.561908052E0
1.129705112E1,-8.686392608E-1,1.338780250E0,5.550336726E0,5.775214671E0
1.130703712E1,-3.614587918E-1,1.064808961E0,5.821313072E0,5.928925405E0
1.131702313E1,2.256975541E-1,7.227809049E-1,5.798011917E0,5.847246687E0
1.132700912E1,9.151974231E-1,3.136820698E-1,5.556782697E0,5.640373809E0
1.133699512E1,1.538359461E0,-5.440044791E-2,5.118238599E0,5.344705380E0
1.134698113E1,2.068390410E0,-4.637242547E-1,4.772862867E0,5.222403567E0
1.135696712E1,2.573414865E0,-6.988250086E-1,4.642160640E0,5.353547970E0
1.136695312E1,3.171180691E0,-6.800662637E-1,4.600495720E0,5.628804311E0
1.137693913E1,3.781000845E0,-6.513435709E-1,4.588399000E0,5.981105351E0
1.138692512E1,4.279339739E0,-9.254171866E-1,4.515461417E0,6.289557805E0
1.139691112E1,4.631897899E0,-1.483068482E0,4.296646328E0,6.489617858E0
1.140689713E1,4.596605567E0,-2.374127722E0,3.920642295E0,6.491278856E0
1.141688312E1,4.583891966E0,-3.421002103E0,2.789667996E0,6.363769989E0
1.142686912E1,4.655916799E0,-3.785444729E0,1.587731888E0,6.207096389E0
1.143685513E1,4.700214136E0,-3.585047200E0,8.430574000E-1,5.971207761E0
1.144684112E1,4.986930601E0,-3.353067690E0,4.962262952E-1,6.029824233E0
1.145682712E1,5.376461583E0,-3.316736015E0,2.770457554E-1,6.323276943E0
1.146681313E1,5.501376820E0,-3.812471144E0,9.684450924E-2,6.693987003E0
1.147679913E1,5.893712711E0,-4.229347799E0,-3.127623028E-1,7.260926428E0
1.148678512E1,6.187486181E0,-4.696135118E0,-8.111649317E-1,7.810035777E0
1.149677113E1,6.646284449E0,-5.738257467E0,-1.550714335E0,8.916580661E0
1.150675812E1,7.668135086E0,-6.339344219E0,-2.375262959E0,1.022885404E1
1.151674412E1,8.210375460E0,-6.087780629E0,-2.892704122E0,1.062257386E1
1.152673013E1,7.613558929E0,-6.547472937E0,-3.195057504E0,1.053774520E1
1.153671612E1,6.700791024E0,-6.952762164E0,-3.363394165E0,1.022516124E1
1.154670212E1,5.375467556E0,-7.349116847E0,-3.283908285E0,9.679319372E0
1.155668813E1,3.689851524E0,-7.624164024E0,-3.312759616E0,9.094902836E0
1.156667412E1,2.423425305E0,-7.799454194E0,-3.459282070E0,8.869673521E0
1.157666012E1,2.143285203E0,-7.966787472E0,-3.662391829E0,9.026432740E0
1.158664613E1,2.298525270E0,-8.316974294E0,-4.347760933E0,9.662210149E0
1.159663212E1,2.610323952E0,-8.963664066E0,-5.194825430E0,1.068397285E1
1.160661812E1,2.809855508E0,-9.390514902E0,-5.862821286E0,1.142145926E1
1.161660413E1,2.677959865E0,-9.923071117E0,-6.511779193E0,1.216725432E1
1.162659012E1,1.853483747E0,-1.060996459E1,-6.868831816E0,1.277449025E1
1.163657612E1,3.065449584E-1,-1.117006938E1,-7.003280938E0,1.318750786E1
1.164656213E1,-1.535785809E0,-1.163151994E1,-6.765108057E0,1.354317471E1
1.165654812E1,-3.629186077E0,-1.210318208E1,-5.710410102E0,1.386603013E1
1.166653412E1,-5.373291807E0,-1.235572567E1,-4.420778623E0,1.418025054E1
1.167652013E1,-6.942262319E0,-1.260341840E1,-3.511238966E0,1.481114312E1
1.168650612E1,-8.967022122E0,-1.312532450E1,-3.152513455E0,1.620555368E1
1.169649212E1,-1.107762373E1,-1.417881383E1,-3.031145723E0,1.824665322E1
1.170647813E1,-1.283287601E1,-1.547762895E1,-2.884756002E0,2.031161051E1
1.171646412E1,-1.424508384E1,-1.677496706E1,-1.826292440E0,2.208296351E1
1.172645012E1,-1.669504264E1,-1.682536655E1,1.803269028E0,2.377118397E1
1.173643613E1,-1.964535353E1,-1.417364840E1,7.440614077E0,2.534156590E1
1.174642213E1,-2.119148598E1,-1.023929790E1,1.270841451E1,2.674745033E1
1.175640812E1,-2.101612331E1,-7.140526784E0,1.616194731E1,2.745674967E1
1.176639413E1,-2.004319106E1,-6.210955151E0,1.697078797E1,2.698727693E1
1.177638013E1,-1.833234605E1,-6.302437763E0,1.535867085E1,2.473225432E1
1.178636612E1,-1.633147680E1,-4.667058961E0,1.301472909E1,2.139817158E1
1.179635213E1,-1.404230708E1,-2.822569402E0,1.218807664E1,1.880698004E1
1.180633813E1,-1.205184938E1,-2.113008613E0,1.287064902E1,1.775853274E1
1.181632412E1,-1.036167778E1,-1.356938340E0,1.444401079E1,1.782793022E1
1.182631013E1,-8.571560310E0,-1.533501741E0,1.628624274E1,1.846794456E1
1.183629613E1,-6.436050149E0,-1.747130057E0,1.663566065E1,1.792262286E1
1.184628212E1,-2.574785452E0,-2.124950966E0,1.647665615E1,1.681145843E1
1.185626813E1,2.693110000E0,-2.535410010E0,1.606061272E1,1.648103232E1
1.186625413E1,7.330579419E0,-2.878912295E0,1.496449601E1,1.691040128E1
1.187624012E1,1.088563859E1,-3.225260419E0,1.293103789E1,1.720788114E1
1.188622613E1,1.311749858E1,-3.445205483E0,1.024677765E1,1.699807819E1
1.189621312E1,1.399109365E1,-3.522554498E0,7.906625471E0,1.645216758E1
1.190619912E1,1.393794948E1,-3.163081713E0,6.273594618E0,1.560863578E1
1.191618513E1,1.311677119E1,-2.615984349E0,5.519616040E0,1.446925091E1
1.192617112E1,1.185024557E1,-2.133699424E0,5.496665719E0,1.323609940E1
1.193615712E1,1.061704089E1,-1.648958668E0,5.625766978E0,1.212806151E1
1.194614313E1,9.617168183E0,-8.996181017E-1,5.683264988E0,1.120708426E1
1.195612912E1,8.688727986E0,-3.689705636E-1,5.470040422E0,1.027382478E1
1.196611512E1,7.890449733E0,-2.067480803E-1,5.134585075E0,9.416257519E0
1.197610113E1,7.161073315E0,-1.453005041E-1,4.696195929E0,8.564831549E0
1.198608712E1,6.583282455E0,-3.430574945E-1,4.009764386E0,7.715925528E0
1.199607312E1,6.030418859E0,-6.238843884E-1,3.138747940E0,6.826926247E0
1.200605913E1,5.486998517E0,-9.766587494E-1,2.293584373E0,6.026735793E0
1.201604513E1,4.990561137E0,-1.373989259E0,1.631274349E0,5.427209499E0
1.202603112E1,4.563601251E0,-1.626408442E0,1.032837555E0,4.953626370E0
1.203601713E1,4.036360447E0,-1.653991513E0,4.670048350E-1,4.387024857E0
1.204600313E1,3.466669734E0,-1.518311990E0,5.732610226E-3,3.784587587E0
1.205598912E1,2.940322677E0,-1.147865077E0,-3.498435903E-1,3.175764824E0
1.206597513E1,2.502514744E0,-6.982885265E-1,-6.032782888E-1,2.667232949E0
1.207596113E1,1.930362938E0,-3.445711925E-1,-6.511248851E-1,2.066154398E0
1.208594712E1,1.291366348E0,-5.491138492E-2,-5.514357054E-1,1.405248605E0
1.209593313E1,7.493904870E-1,1.705593703E-1,-5.129189265E-1,9.239926547E-1
1.210591913E1,3.107696813E-1,2.114046932E-1,-6.090582615E-1,7.156966571E-1
1.211590512E1,-8.383511223E-2,2.230935697E-2,-7.335402203E-1,7.386523460E-1
1.212589113E1,-5.278425192E-1,-1.081422070E-1,-1.116784276E0,1.239967572E0
1.213587713E1,-8.748566052E-1,-1.937882750E-1,-1.543557343E0,1.784796136E0
1.214586312E1,-1.083958080E0,-4.030570168E-1,-1.870334253E0,2.198993018E0
1.215584913E1,-1.055157473E0,-5.249606458E-1,-2.013061863E0,2.332672081E0
1.216583513E1,-7.604077376E-1,-4.752993662E-1,-1.887676510E0,2.089844975E0
1.217582112E1,-2.938491183E-1,-3.140349858E-1,-1.544689364E0,1.603443329E0
1.218580713E1,1.176252579E-1,-1.555357171E-1,-1.227446340E0,1.242840126E0
1.219579313E1,4.547499481E-1,-2.611512691E-4,-9.971613532E-1,1.095960012E0
1.220577987E1,6.595254336E-1,1.915991505E-1,-9.066844618E-1,1.137436040E0
1.221576588E1,6.540151638E-1,2.399104542E-1,-7.648134685E-1,1.034520421E0
1.222575188E1,5.686434764E-1,2.311427005E-1,-6.791523439E-1,9.154399256E-1
1.223573787E1,4.333138362E-1,2.399312118E-1,-6.745932698E-1,8.369013961E-1
1.224572388E1,1.393727705E-1,1.688073983E-1,-7.186935550E-1,7.512929741E-1
1.225570988E1,-2.963281184E-1,6.640394110E-2,-7.095309681E-1,7.717862605E-1
1.226569587E1,-7.400355998E-1,-4.855023555E-2,-5.834439486E-1,9.436189143E-1
1.227568188E1,-1.319451402E0,-2.109768415E-1,-3.107865286E-1,1.371878819E0
1.228566788E1,-2.200709100E0,-2.450169556E-1,3.177698582E-1,2.236991626E0
1.229565487E1,-2.972815947E0,-1.890425286E-1,1.179168804E0,3.203718277E0
1.230564088E1,-3.485390764E0,-1.362154750E-1,1.930421995E0,3.986606642E0
1.231562687E1,-3.970978636E0,-8.313487161E-2,2.755826066E0,4.834269339E0
1.232561287E1,-4.443507335E0,5.708376714E-2,3.616329803E0,5.729385416E0
1.233559888E1,-4.825668486E0,4.577673672E-1,4.320239843E0,6.493157907E0
1.234558487E1,-5.020362056E0,7.817503671E-1,5.065119569E0,7.174301712E0
1.235557087E1,-4.999930716E0,1.121882755E0,5.853636480E0,7.779652185E0
1.236555688E1,-4.406451483E0,1.376790368E0,6.654146615E0,8.098767410E0
1.237554287E1,-3.203700858E0,1.488565011E0,7.378089216E0,8.180203265E0
1.238552887E1,-1.689952620E0,1.564443305E0,7.778732246E0,8.112465598E0
1.239551488E1,1.335058205E-1,1.126462953E0,7.957995599E0,8.038434956E0
1.240550087E1,1.904932228E0,3.878626250E-1,8.037723554E0,8.269474236E0
1.241548687E1,3.392311277E0,-5.149810933E-1,7.687846050E0,8.418786030E0
1.242547288E1,4.638413744E0,-1.583958826E0,6.617360027E0,8.234880774E0
1.243545887E1,5.452764823E0,-1.985382021E0,5.236074028E0,7.816064049E0
1.244544487E1,5.937815335E0,-1.888102918E0,4.415841234E0,7.636899724E0
1.245543088E1,6.254933814E0,-1.515838033E0,4.531593300E0,7.871295941E0
1.246541687E1,6.512298426E0,-1.215013113E0,5.243877137E0,8.448936920E0
1.247540287E1,7.183913124E0,-1.332509988E0,5.866970471E0,9.370460669E0
1.248538888E1,7.884625322E0,-1.662281257E0,5.742380338E0,9.894717145E0
1.249537488E1,8.287462227E0,-2.429752285E0,5.345343286E0,1.015669342E1
1.250536087E1,8.351276400E0,-3.496951879E0,4.819701988E0,1.025680346E1
1.251534688E1,8.031072346E0,-4.999853532E0,3.929509597E0,1.024391058E1
1.252533288E1,7.626861345E0,-6.836336499E0,2.730041599E0,1.059988858E1
1.253531887E1,7.335393432E0,-8.012108071E0,1.439925971E0,1.095788572E1
1.254530488E1,7.345586298E0,-8.264265738E0,-4.040250599E-1,1.106431030E1
1.255529088E1,7.892018541E0,-7.865466335E0,-1.929925566E0,1.130814441E1
1.256527687E1,8.305998486E0,-7.611258634E0,-2.779649962E0,1.160376330E1
1.257526288E1,8.487981963E0,-7.614110321E0,-3.000864163E0,1.179091597E1
1.258524888E1,7.671453381E0,-7.688883930E0,-2.823719841E0,1.122245636E1
1.259523487E1,5.954858800E0,-8.031615552E0,-2.286644605E0,1.025650697E1
1.260522088E1,3.470955743E0,-8.904798392E0,-1.344702018E0,9.651486502E0
1.261520688E1,1.313897424E0,-9.237369307E0,-5.507673687E-1,9.346585625E0
1.262519287E1,3.119355065E-1,-8.746673893E0,-6.339410877E-1,8.775163204E0
1.263517888E1,-5.047281468E-1,-8.076754303E0,-5.981993973E-1,8.114588905E0
1.264516488E1,-1.516725640E0,-7.943841829E0,-1.054582180E0,8.155809172E0
1.265515087E1,-2.386845708E0,-8.426305532E0,-2.159135250E0,9.020062217E0
1.266513688E1,-3.732470124E0,-8.926997346E0,-4.094101117E0,1.050639228E1
1.267512288E1,-4.915035576E0,-9.150794848E0,-6.229670919E0,1.211211876E1
1.268510987E1,-5.689608632E0,-9.238989571E0,-7.965584700E0,1.346035342E1
1.269509588E1,-6.553671570E0,-9.064204600E0,-8.780524594E0,1.421998693E1
1.270508187E1,-7.060767254E0,-9.335078035E0,-8.636128188E0,1.454581817E1
1.271506787E1,-7.570960793E0,-9.652535652E0,-7.746367908E0,1.450851845E1
1.272505388E1,-8.331718633E0,-9.638398254E0,-6.372786784E0,1.424530336E1
1.273503987E1,-8.862921218E0,-9.622879159E0,-4.953279290E0,1.398878664E1
1.274502587E1,-9.421256638E0,-9.871897455E0,-3.868296851E0,1.418372858E1
1.275501188E1,-1.050586193E1,-1.027046589E1,-3.143626857E0,1.502457968E1
1.276499788E1,-1.137266254E1,-1.057345458E1,-2.752107822E0,1.577052606E1
1.277498387E1,-1.179279667E1,-1.116591435E1,-2.437799515E0,1.642225816E1
1.278496988E1,-1.209107835E1,-1.180575644E1,-2.299319322E0,1.705452814E1
1.279495588E1,-1.223940350E1,-1.239532184E1,-1.998578310E0,1.753400459E1
1.280494187E1,-1.249967710E1,-1.304312551E1,-1.702872335E0,1.814565581E1
1.281492788E1,-1.281130797E1,-1.332064138E1,-1.277699651E0,1.852570147E1
1.282491388E1,-1.353724681E1,-1.344680675E1,-1.752135712E-1,1.908151888E1
1.283489987E1,-1.500844603E1,-1.288260190E1,2.576448108E0,1.994625199E1
1.284488588E1,-1.736764318E1,-1.103585005E1,6.292626720E0,2.151794988E1
1.285487188E1,-1.877449729E1,-8.602710181E0,1.035941374E1,2.310423823E1
1.286485787E1,-1.982203767E1,-7.041993599E0,1.531465068E1,2.602001877E1
1.287484388E1,-1.966938324E1,-6.285059838E0,1.968497426E1,2.852866674E1
1.288482988E1,-1.531018340E1,-5.962540872E0,2.492893969E1,2.985641713E1
1.289481587E1,-8.693143219E0,-4.303719120E0,2.907200773E1,3.064758344E1
1.290480188E1,-3.271542008E0,-1.816878715E0,2.977233109E1,3.000659484E1
1.291478788E1,-2.634829194E-1,-1.516537652E0,2.830097516E1,2.834280341E1
1.292477387E1,6.248849201E-1,-3.879225005E0,2.411700468E1,2.443499095E1
1.293475988E1,1.743308317E0,-5.827117018E0,1.901736724E1,1.996633851E1
1.294474588E1,3.087954347E0,-6.653740819E0,1.349548599E1,1.536020414E1
1.295473187E1,3.864652866E0,-7.055288413E0,9.086146277E0,1.213551361E1
1.296471788E1,4.918495958E0,-7.049012597E0,6.655976209E0,1.087116371E1
1.297470388E1,6.461280885E0,-6.751907383E0,5.451550357E0,1.081923312E1
1.298468987E1,7.759547532E0,-5.982624888E0,5.523071744E0,1.124751972E1
1.299467588E1,8.730273038E0,-5.107062231E0,6.348854715E0,1.194184693E1
1.300466188E1,9.336039902E0,-4.184706939E0,7.138071538E0,1.247499413E1
1.301464787E1,9.845928801E0,-3.043271679E0,7.238631368E0,1.259371274E1
1.302463388E1,9.911437497E0,-2.164666863E0,6.972785370E0,1.231024418E1
1.303461988E1,9.545622822E0,-1.556739453E0,6.640536636E0,1.173196827E1
1.304460587E1,8.737080367E0,-1.217225992E0,5.949126189E0,1.064003359E1
1.305459187E1,7.721414915E0,-1.296269823E0,4.830890050E0,9.199894696E0
1.306457788E1,6.686816179E0,-1.558996624E0,3.510657753E0,7.711595097E0
1.307456387E1,5.597618482E0,-1.679498383E0,2.326075596E0,6.290045720E0
1.308454987E1,4.719131048E0,-1.613184526E0,1.247461944E0,5.140887420E0
1.309453588E1,4.034667970E0,-1.675290288E0,4.061826825E-1,4.387496729E0
1.310452287E1,3.486836489E0,-1.766248552E0,-7.022038221E-2,3.909295786E0
1.311450888E1,3.180897009E0,-1.783546662E0,-2.833244956E-1,3.657788574E0
1.312449488E1,3.056596607E0,-1.695575010E0,-3.033962327E-1,3.508533412E0
1.313448087E1,2.932237732E0,-1.336338745E0,-1.390356785E-1,3.225391492E0
1.314446688E1,2.970370641E0,-8.300729998E-1,-1.349361956E-2,3.084202491E0
1.315445288E1,2.973912592E0,-3.288124712E-1,1.085979974E-1,2.994005222E0
1.316443887E1,2.931867018E0,-8.394292027E-2,1.162221819E-1,2.935370202E0
1.317442488E1,2.683878416E0,-2.912261304E-1,-3.191544789E-1,2.718432562E0
1.318441088E1,2.355220750E0,-7.031734367E-1,-1.046193180E0,2.671336339E0
1.319439687E1,2.084007300E0,-1.043816141E0,-1.634092122E0,2.846558558E0
1.320438288E1,2.033700780E0,-1.224179501E0,-2.099353902E0,3.168886417E0
1.321436888E1,1.906311586E0,-1.395935029E0,-2.171164727E0,3.208833860E0
1.322435487E1,1.607517112E0,-1.505538747E0,-1.825675558E0,2.860742811E0
1.323434088E1,1.586420650E0,-1.306805774E0,-1.224712767E0,2.392570411E0
1.324432688E1,1.670185230E0,-9.077447082E-1,-5.858524168E-1,1.989156156E0
1.325431287E1,1.678516928E0,-5.647889187E-1,6.977190077E-2,1.772363879E0
1.326429888E1,1.577888685E0,-3.539599570E-1,6.451601404E-1,1.741049098E0
1.327428488E1,1.409623361E0,-2.133800288E-1,9.294266224E-1,1.701882165E0
1.328427087E1,1.230283702E0,-1.811938110E-1,1.040040155E0,1.621145493E0
1.329425688E1,9.913495132E-1,-2.042673625E-1,1.077504435E0,1.478348680E0
1.330424288E1,8.255309558E-1,-9.485616356E-2,1.132667652E0,1.404790042E0
1.331422887E1,4.997150365E-1,-9.111964658E-2,1.233573053E0,1.334061612E0
1.332421487E1,9.410421163E-2,-1.933135542E-1,1.123959979E0,1.144339009E0
1.333420088E1,-1.999525559E-1,-9.695392527E-2,8.616375124E-1,8.898316083E-1
1.334418687E1,-4.328299060E-1,-1.980210744E-2,7.526220238E-1,8.684317830E-1
1.335417287E1,-7.359820175E-1,5.235523805E-2,8.725302905E-1,1.142680930E0
1.336415888E1,-1.032563613E0,1.459438714E-1,1.097686100E0,1.514068031E0
1.337414487E1,-1.243347259E0,2.552382722E-1,1.397329005E0,1.887746627E0
1.338413087E1,-1.443161820E0,4.249752682E-1,1.779401278E0,2.330147834E0
1.339411688E1,-1.505880517E0,5.989598277E-1,2.274229504E0,2.792588198E0
1.340410287E1,-1.401557419E0,8.605282225E-1,2.835550513E0,3.277990044E0
1.341408887E1,-1.184091429E0,8.598001711E-1,3.362706825E0,3.667305010E0
1.342407488E1,-9.697113070E-1,6.847787540E-1,3.844222695E0,4.023345634E0
1.343406087E1,-8.825953951E-1,6.046431752E-1,4.277939331E0,4.409686261E0
1.344404687E1,-8.853868559E-1,4.873587003E-1,4.724052064E0,4.830951904E0
1.345403288E1,-1.016090691E0,4.640644164E-1,5.392620363E0,5.507100004E0
1.346401887E1,-1.058834860E0,6.326149392E-1,6.058202489E0,6.182487389E0
1.347400487E1,-8.363293013E-1,7.436276905E-1,6.377225990E0,6.474676839E0
1.348399088E1,-6.480580205E-1,6.361136207E-1,6.591684319E0,6.653940328E0
1.349397687E1,-5.082098714E-1,4.320702066E-1,6.625630914E0,6.659125089E0
1.350396287E1,-2.609011544E-1,1.972113812E-1,6.390319076E0,6.398682648E0
1.351394888E1,2.217745840E-1,-8.199842870E-2,5.961650925E0,5.966338028E0
1.352393587E1,7.241743695E-1,-4.395430943E-1,5.458923696E0,5.524262355E0
1.353392188E1,1.285098132E0,-8.447840828E-1,4.992272032E0,5.223783820E0
1.354390788E1,2.004982619E0,-9.124846074E-1,5.069706125E0,5.527612835E0
1.355389387E1,2.763285652E0,-9.812697905E-1,5.116566880E0,5.897278579E0
1.356387988E1,3.871540301E0,-1.543852043E0,5.204775052E0,6.667982212E0
1.357386588E1,4.884055274E0,-2.361407397E0,5.227846996E0,7.533964761E0
1.358385187E1,5.564488158E0,-3.483440718E0,4.777885625E0,8.119487591E0
1.359383787E1,6.258317013E0,-5.131988912E0,3.607815673E0,8.861161095E0
1.360382388E1,7.150443077E0,-7.465429661E0,1.882130426E0,1.050732559E1
1.361380987E1,8.252867176E0,-9.436358242E0,-4.071299314E-2,1.253620082E1
1.362379587E1,9.398125638E0,-1.017682858E1,-2.108272076E0,1.401204541E1
1.363378188E1,1.037860781E1,-1.011274076E1,-3.578680751E0,1.492615093E1
1.364376787E1,1.085177152E1,-9.634255502E0,-4.143984883E0,1.509146894E1
1.365375387E1,1.101885804E1,-9.032972283E0,-3.926681007E0,1.477933167E1
1.366373988E1,1.089012106E1,-8.200762053E0,-3.238440043E0,1.401194951E1
1.367372587E1,1.024193148E1,-7.510858433E0,-2.310347171E0,1.290921605E1
1.368371187E1,9.680178949E0,-7.136216217E0,-1.468686671E0,1.211562986E1
1.369369788E1,8.494716786E0,-7.280554150E0,-5.874478295E-1,1.120320387E1
1.370368387E1,6.226774793E0,-8.193883973E0,-4.784171382E-1,1.030249202E1
1.371366987E1,4.026486838E0,-8.925053732E0,-1.318876913E0,9.879707318E0
1.372365588E1,1.709341110E0,-9.291425647E0,-2.703636158E0,9.826600941E0
1.373364187E1,-2.179929703E-1,-9.643549651E0,-4.062016275E0,1.046640086E1
1.374362787E1,-6.869881976E-1,-9.687859851E0,-5.359742639E0,1.109294471E1
1.375361388E1,-8.052919883E-1,-1.020475839E1,-6.500098795E0,1.212587619E1
1.376359987E1,-1.727280368E0,-1.087068258E1,-6.662584732E0,1.286643978E1
1.377358587E1,-2.911467837E0,-1.120826339E1,-6.244661425E0,1.315665647E1
1.378357188E1,-4.794971189E0,-1.086284731E1,-5.590392492E0,1.312424050E1
1.379355787E1,-7.428912629E0,-9.621938342E0,-3.318108064E0,1.260080479E1
1.380354387E1,-9.989589043E0,-8.155709841E0,-8.060360464E-1,1.292119137E1
1.381352988E1,-1.227436751E1,-8.133915514E0,1.318152443E0,1.478371419E1
1.382351587E1,-1.474397880E1,-8.529869662E0,2.947740455E0,1.728677995E1
1.383350187E1,-1.645674872E1,-8.196315245E0,3.929964803E0,1.880023365E1
1.384348788E1,-1.675277454E1,-8.356110293E0,4.307936717E0,1.921037097E1
1.385347387E1,-1.639964247E1,-9.190658825E0,4.468104233E0,1.932305458E1
1.386345987E1,-1.637836796E1,-9.501644159E0,4.045294408E0,1.936224640E1
1.387344588E1,-1.625773639E1,-9.554749156E0,3.989295623E0,1.927489828E1
1.388343187E1,-1.604628353E1,-9.624062051E0,4.645598803E0,1.927919536E1
1.389341787E1,-1.622175263E1,-9.066432974E0,5.445954571E0,1.936501708E1
1.390340388E1,-1.671117627E1,-7.430951554E0,7.321155462E0,1.969979113E1
1.391338987E1,-1.700600458E1,-5.291767003E0,1.009357359E1,2.047161981E1
1.392337587E1,-1.605374575E1,-4.257388122E0,1.246516917E1,2.076604317E1
1.393336188E1,-1.328354080E1,-3.328244505E0,1.486534361E1,2.021158352E1
1.394334787E1,-9.530491397E0,-2.063140342E0,1.723478742E1,1.980213907E1
1.395333387E1,-5.228144034E0,-7.870839780E-1,1.841700321E1,1.916087155E1
1.396332088E1,-1.291007036E0,-8.659344850E-1,1.913179725E1,1.919484847E1
1.397330687E1,1.570057217E0,-1.961587362E0,1.802980760E1,1.820403436E1
1.398329287E1,3.999052872E0,-2.678636972E0,1.624535199E1,1.694340524E1
1.399327888E1,5.986837807E0,-3.074881142E0,1.385927402E1,1.540703078E1
1.400326487E1,6.890660641E0,-3.571917277E0,1.169747653E1,1.403818914E1
1.401325087E1,7.748444254E0,-4.006602505E0,1.024757755E1,1.345749225E1
1.402323688E1,8.965942726E0,-3.963836846E0,8.870847119E0,1.322089483E1
1.403322287E1,1.020992031E1,-3.907017698E0,7.749747013E0,1.340021787E1
1.404320887E1,1.120259744E1,-3.881702178E0,6.958835083E0,1.374740655E1
1.405319488E1,1.180243172E1,-3.579467202E0,6.335371036E0,1.386531305E1
1.406318087E1,1.179992911E1,-3.144723210E0,5.921971720E0,1.357193281E1
1.407316687E1,1.101028485E1,-2.710392031E0,5.477289800E0,1.259258913E1
1.408315288E1,9.969421996E0,-2.296009652E0,4.726900243E0,1.126963270E1
1.409313887E1,8.856906188E0,-1.850893284E0,3.806439741E0,9.816291391E0
1.410312487E1,7.620225924E0,-1.381771318E0,3.016758065E0,8.311315439E0
1.411311088E1,6.354614807E0,-1.021061920E0,2.464694953E0,6.891909605E0
1.412309687E1,5.220882962E0,-7.933401333E-1,2.110182361E0,5.686816074E0
1.413308287E1,4.350487490E0,-6.620872450E-1,1.822564255E0,4.763070583E0
1.414306888E1,3.621813907E0,-6.380573814E-1,1.694380424E0,4.049145369E0
1.415305487E1,3.052055367E0,-8.130597219E-1,1.685547035E0,3.580108501E0
1.416304087E1,2.914248188E0,-9.910029926E-1,1.336347224E0,3.355704596E0
1.417302688E1,3.110212358E0,-1.063875891E0,8.466639626E-1,3.394420818E0
1.418301287E1,3.240259112E0,-1.001072921E0,4.749377525E-1,3.424469590E0
1.419299887E1,3.335823666E0,-7.781059438E-1,2.499819177E-1,3.434480943E0
1.420298375E1,3.450215085E0,-5.650468540E-1,2.340926939E-1,3.504006488E0
1.421296975E1,3.526359281E0,-5.134346509E-1,2.585562748E-1,3.572908656E0
1.422295575E1,3.221765538E0,-5.502565413E-1,5.087896228E-2,3.268813870E0
1.423294175E1,2.741873440E0,-5.482945812E-1,-2.541819727E-1,2.807686839E0
1.424292775E1,2.106613951E0,-5.268898250E-1,-4.315940970E-1,2.213980283E0
1.425291375E1,1.546697883E0,-3.942048074E-1,-5.293373233E-1,1.681627121E0
1.426289975E1,1.208257825E0,-3.902776712E-1,-5.895607209E-1,1.399923382E0
1.427288575E1,8.780556169E-1,-5.258865890E-1,-7.598889434E-1,1.274742946E0
1.428287175E1,6.252040319E-1,-5.715648184E-1,-1.062364824E0,1.358744068E0
1.429285775E1,4.161067231E-1,-5.925385617E-1,-1.207296250E0,1.407768088E0
1.430284375E1,4.647486869E-1,-5.200218317E-1,-1.213104874E0,1.399298926E0
1.431282975E1,8.481436005E-1,-3.864081301E-1,-1.010790628E0,1.374902362E0
1.432281575E1,1.356428462E0,-2.526694442E-1,-6.848370069E-1,1.540370653E0
1.433280175E1,1.813839332E0,-1.260154641E-1,-4.589315844E-1,1.875236310E0
1.434278775E1,2.004059344E0,-3.191753827E-2,-3.063116544E-1,2.027584625E0
1.435277375E1,1.849056966E0,7.778258622E-3,-1.147679794E-1,1.852631602E0
1.436275975E1,1.499579996E0,-3.154528990E-2,9.121188641E-2,1.502682561E0
1.437274575E1,1.029985722E0,4.564460792E-2,2.288921803E-1,1.056099260E0
1.438273175E1,5.295106933E-1,2.301520360E-1,5.020659095E-1,7.651285588E-1
1.439271775E1,1.938154645E-1,3.499254513E-1,8.799468988E-1,9.666016762E-1
1.440270375E1,-1.333792283E-1,3.614519944E-1,1.249322528E0,1.307380718E0
1.441269075E1,-3.677778777E-1,2.569211009E-1,1.493045586E0,1.558991386E0
1.442267675E1,-5.527532293E-1,2.327323392E-1,1.665488162E0,1.770183971E0
1.443266275E1,-7.033193247E-1,2.790137820E-1,1.846643089E0,1.995644623E0
1.444264875E1,-8.079960331E-1,4.416685572E-1,2.122273818E0,2.313433566E0
1.445263475E1,-8.982837671E-1,7.036532738E-1,2.514139009E0,2.760966608E0
1.446262075E1,-8.988588408E-1,8.934899274E-1,2.920206501E0,3.183375170E0
1.447260675E1,-9.326615945E-1,9.655709667E-1,3.401164547E0,3.656515447E0
1.448259275E1,-8.884202452E-1,9.603971310E-1,3.801885930E0,4.020695189E0
1.449257875E1,-7.660660882E-1,8.193489140E-1,4.127084675E0,4.276799950E0
1.450256475E1,-8.524766797E-1,5.940442197E-1,4.292685424E0,4.416645013E0
1.451255075E1,-7.824321525E-1,5.121491405E-1,4.259656842E0,4.361097709E0
1.452253675E1,-4.107981822E-1,5.649389729E-1,3.988958239E0,4.049654185E0
1.453252275E1,5.795906335E-3,4.883242218E-1,3.853534970E0,3.884356563E0
1.454250875E1,5.045139925E-1,3.647238770E-1,3.663811533E0,3.716325178E0
1.455249475E1,9.429724284E-1,1.852563103E-1,3.488541244E0,3.618485445E0
1.456248075E1,1.274753385E0,-8.139675021E-2,3.272908795E0,3.513339380E0
1.457246675E1,1.615574867E0,-2.999124616E-1,3.069903408E0,3.482001805E0
1.458245275E1,1.986477790E0,-3.518784213E-1,2.878983631E0,3.515460023E0
1.459243875E1,2.225901975E0,-3.681079531E-1,2.696102605E0,3.515552919E0
1.460242475E1,2.378583154E0,-5.413591987E-1,2.524871573E0,3.510798209E0
1.461241075E1,2.465078823E0,-8.068330219E-1,2.378691182E0,3.519341538E0
1.462239675E1,2.556137512E0,-8.513165921E-1,2.404919452E0,3.611400904E0
1.463238275E1,2.758532742E0,-7.213011208E-1,2.576042896E0,3.842626081E0
1.464236875E1,3.220732920E0,-7.404352570E-1,2.806168254E0,4.335429066E0
1.465235475E1,4.045143549E0,-6.987244365E-1,3.137124753E0,5.166522417E0
1.466234075E1,5.068267710E0,-7.631490585E-1,3.391238898E0,6.145749371E0
1.467232675E1,5.820148306E0,-1.286239801E0,3.360647435E0,6.842696129E0
1.468231275E1,6.355474348E0,-2.129393388E0,3.141924732E0,7.402571270E0
1.469229875E1,6.842943268E0,-2.848025547E0,2.690890982E0,7.885303822E0
1.470228475E1,6.940604634E0,-3.580323819E0,2.084739372E0,8.083121277E0
1.471227075E1,6.957087935E0,-4.074343375E0,1.286920125E0,8.164405053E0
1.472225675E1,6.925936893E0,-4.130174344E0,6.721245754E-1,8.091890595E0
1.473224275E1,6.858795655E0,-4.086355895E0,2.842904556E-1,7.988879984E0
1.474222875E1,6.561375861E0,-4.180342285E0,1.994859481E-1,7.782461658E0
1.475221475E1,6.159299093E0,-4.766702240E0,3.007263941E-1,7.794154985E0
1.476220075E1,5.736334902E0,-5.295944254E0,1.339100093E-1,7.808360618E0
1.477218675E1,5.248660744E0,-5.401704013E0,2.295558393E-2,7.531757618E0
1.478217275E1,4.656331952E0,-5.066198380E0,3.250353161E-1,6.888645819E0
1.479215875E1,3.906963903E0,-4.756250927E0,6.452303070E-1,6.188910402E0
1.480214475E1,2.407448373E0,-6.059263174E0,9.868921807E-1,6.594272822E0
1.481213075E1,7.901079386E-1,-7.568774520E0,7.747008178E-1,7.649233925E0
1.482211675E1,-7.457784426E-1,-8.472010294E0,-2.912534662E-1,8.509757487E0
1.483210275E1,-2.005103803E0,-9.370715060E0,-1.687695741E0,9.730316486E0
1.484208875E1,-3.224440055E0,-9.762739295E0,-3.242679859E0,1.078068017E1
1.485207475E1,-3.842149272E0,-9.894277089E0,-4.412854477E0,1.149487341E1
1.486206075E1,-3.705548959E0,-1.008978927E1,-5.388755354E0,1.202387728E1
1.487204775E1,-3.200557103E0,-1.071431634E1,-6.356059070E0,1.286233366E1
1.488203375E1,-3.024841840E0,-1.154296035E1,-7.271413783E0,1.397365594E1
1.489201975E1,-3.478355395E0,-1.193913026E1,-8.215835005E0,1.490441990E1
1.490200575E1,-4.318784471E0,-1.208782379E1,-8.859712851E0,1.559685529E1
1.491199175E1,-5.180274049E0,-1.244837597E1,-8.992863307E0,1.620706309E1
1.492197775E1,-5.859012995E0,-1.296547215E1,-9.184882361E0,1.693498052E1
1.493196375E1,-6.563853326E0,-1.337085610E1,-9.059411638E0,1.743378624E1
1.494194975E1,-8.072626753E0,-1.383709203E1,-7.713561519E0,1.778008576E1
1.495193575E1,-1.017980131E1,-1.414510931E1,-3.874165701E0,1.785277659E1
1.496192175E1,-1.173067235E1,-1.299912053E1,6.377727681E-1,1.752120323E1
1.497190775E1,-1.227394066E1,-1.090081445E1,4.206882505E0,1.694624547E1
1.498189375E1,-1.210976605E1,-9.633111786E0,6.581723002E0,1.681553907E1
1.499187975E1,-1.167132545E1,-1.045308379E1,7.012940539E0,1.716590031E1
1.500186575E1,-1.136254101E1,-1.205780067E1,5.214487277E0,1.736919033E1
1.501185175E1,-1.174437120E1,-1.258940613E1,2.424107090E0,1.738676787E1
1.502183775E1,-1.350408257E1,-1.181861213E1,3.494459211E0,1.828253494E1
1.503182375E1,-1.554539467E1,-7.077514849E0,8.910877742E0,1.926536410E1
1.504180975E1,-1.611748274E1,-3.556774158E0,1.304658706E1,2.103894784E1
1.505179575E1,-1.664140847E1,-2.767903782E0,1.787992242E1,2.458229836E1
1.506178175E1,-1.704267715E1,-1.322725842E0,2.183537669E1,2.773059905E1
1.507176775E1,-1.567021284E1,-7.651754111E-1,2.187467466E1,2.691918378E1
1.508175375E1,-1.342745013E1,-8.351570807E-1,1.951185224E1,2.370034350E1
1.509173975E1,-1.079126453E1,-2.205563312E0,1.593092616E1,1.936776466E1
1.510172575E1,-6.302844729E0,-3.932371225E0,1.398062948E1,1.583184751E1
1.511171175E1,-1.554824490E0,-3.637335633E0,1.321801807E1,1.379723492E1
1.512169775E1,1.388528945E0,-2.468717837E0,1.336774070E1,1.366451872E1
1.513168375E1,2.976115530E0,-2.348833983E0,1.429455596E1,1.478880032E1
1.514166975E1,4.808290561E0,-2.821068421E0,1.480799996E1,1.582260876E1
1.515165575E1,7.081278117E0,-2.388082833E0,1.441290945E1,1.623512852E1
1.516164175E1,9.531978929E0,-1.786698019E0,1.356216881E1,1.667283224E1
1.517162775E1,1.166723123E1,-1.337213781E0,1.252141003E1,1.716677414E1
1.518161375E1,1.315473833E1,-1.119196545E0,1.153659040E1,1.753261702E1
1.519159975E1,1.388878375E1,-1.401751254E0,1.054572708E1,1.749501587E1
1.520158675E1,1.380104043E1,-1.921158690E0,9.096751957E0,1.664062691E1
1.521157275E1,1.320436716E1,-2.472267682E0,7.360363382E0,1.531804063E1
1.522155875E1,1.222582860E1,-2.841175534E0,5.613779016E0,1.374982466E1
1.523154475E1,1.092489095E1,-2.773222995E0,3.831033715E0,1.190465570E1
1.524153075E1,9.711428223E0,-2.587461339E0,2.297976217E0,1.030958239E1
1.525151675E1,8.471008666E0,-2.188108935E0,1.197941290E0,8.830677882E0
1.526150275E1,7.212063375E0,-1.570542244E0,6.811865902E-1,7.412454130E0
1.527148875E1,6.040553838E0,-1.101011119E0,7.251465422E-1,6.182746450E0
1.528147475E1,4.917994852E0,-8.315243518E-1,1.064407257E0,5.100104795E0
1.529146075E1,3.772181782E0,-5.644210558E-1,1.356313126E0,4.048149184E0
1.530144675E1,2.767716379E0,-3.308787310E-1,1.328645856E0,3.087885118E0
1.531143275E1,2.211766331E0,-3.122174884E-1,1.104371806E0,2.491791955E0
1.532141875E1,1.839674377E0,-4.128885618E-1,6.997123235E-1,2.011088291E0
1.533140475E1,1.589444538E0,-5.901512897E-1,7.402633488E-2,1.697083493E0
1.534139075E1,1.459773175E0,-7.590992770E-1,-5.997459859E-1,1.751246608E0
1.535137675E1,1.409447798E0,-8.273038316E-1,-1.226096803E0,2.043107461E0
1.536136275E1,1.365382011E0,-8.808597954E-1,-1.665824377E0,2.327048102E0
1.537134975E1,1.364636784E0,-8.558576860E-1,-1.999709162E0,2.567793345E0
1.538133575E1,1.514803368E0,-6.803913689E-1,-2.175032660E0,2.736481086E0
1.539132175E1,1.696158562E0,-5.160840243E-1,-2.186563954E0,2.815023715E0
1.540130775E1,1.754138237E0,-5.099676906E-1,-2.041742456E0,2.739667910E0
1.541129375E1,1.614202964E0,-4.952601890E-1,-1.845720983E0,2.501523498E0
1.542127975E1,1.300128108E0,-5.154326445E-1,-1.702818541E0,2.203541443E0
1.543126575E1,1.026194095E0,-4.023781916E-1,-1.712431363E0,2.036517543E0
1.544125175E1,8.789590117E-1,-2.865945509E-1,-1.666829513E0,1.906049844E0
1.545123775E1,8.217548239E-1,-2.594852512E-1,-1.471815516E0,1.705536425E0
1.546122375E1,8.128261256E-1,-1.345884325E-1,-1.185493737E0,1.443674395E0
1.547120975E1,8.712161288E-1,4.175686732E-2,-7.924205124E-1,1.178427532E0
1.548119575E1,9.584036690E-1,2.532253683E-2,-3.209250158E-1,1.011025069E0
1.549118175E1,9.178940128E-1,-1.273808621E-1,-1.058059520E-1,9.327112105E-1
1.550116775E1,8.819805604E-1,-1.082382475E-1,-1.022426587E-1,8.944600541E-1
1.551115375E1,6.981141333E-1,2.454017937E-2,-3.991309404E-2,6.996846566E-1
1.552113975E1,4.517703532E-1,1.236319198E-1,1.765905905E-1,5.005652208E-1
1.553112575E1,3.147814925E-1,1.763610873E-1,4.650875330E-1,5.886399871E-1
1.554111175E1,2.952099846E-1,2.261046664E-1,7.907815379E-1,8.738464945E-1
1.555109775E1,2.299973041E-1,3.468204336E-1,1.157337055E0,1.229883016E0
1.556108375E1,4.091983840E-2,5.394423352E-1,1.573012108E0,1.663442081E0
1.557106975E1,-2.277822326E-1,7.472342531E-1,2.158539419E0,2.295547037E0
1.558105575E1,-4.668014981E-1,9.183828400E-1,2.800109954E0,2.983612983E0
1.559104175E1,-5.004618721E-1,1.097633548E0,3.400007383E0,3.607674000E0
1.560102775E1,-4.353225741E-1,1.346799999E0,4.051144547E0,4.291287466E0
1.561101375E1,-2.719944920E-1,1.646966229E0,4.803207577E0,5.085005584E0
1.562099975E1,8.599558532E-2,2.122050455E0,5.743038150E0,6.123151196E0
1.563098575E1,5.584760454E-1,2.670276039E0,6.734555771E0,7.266120770E0
1.564097175E1,1.117607125E0,2.893127460E0,7.569540505E0,8.180291905E0
1.565095775E1,1.611620103E0,2.782333834E0,8.135659738E0,8.748008933E0
1.566094375E1,1.910261965E0,2.589700238E0,8.166513741E0,8.777675933E0
1.567092975E1,1.917862907E0,2.031695185E0,7.834118827E0,8.317415539E0
1.568091575E1,1.827142625E0,1.163069665E0,7.306029299E0,7.620317929E0
1.569090175E1,1.790849542E0,4.437902194E-1,6.742126746E0,6.990018948E0
1.570088775E1,1.933242838E0,6.434656173E-2,6.290121188E0,6.580820079E0
1.571087375E1,2.265217337E0,1.043961883E-2,5.909168072E0,6.328474213E0
1.572085975E1,2.517970689E0,-4.677041620E-2,5.693639118E0,6.225744154E0
1.573084575E1,2.613056940E0,-3.043294483E-1,5.608948047E0,6.195238589E0
1.574083175E1,2.559802254E0,-8.820378631E-1,5.420142038E0,6.058755490E0
1.575081775E1,2.405485463E0,-1.898024620E0,5.029882493E0,5.889700812E0
1.576080375E1,2.410315263E0,-2.987078767E0,4.456841910E0,5.881810864E0
1.577078975E1,2.528356221E0,-3.695270723E0,3.700246704E0,5.808565792E0
1.578077575E1,2.511306033E0,-4.364745340E0,2.786255561E0,5.755074276E0
1.579076175E1,2.413501995E0,-5.143034887E0,1.808644958E0,5.962130182E0
1.580074775E1,2.261192552E0,-5.732135432E0,8.972499794E-1,6.226991721E0
1.581073375E1,2.184000827E0,-5.927288008E0,2.191337621E-1,6.320650469E0
1.582071975E1,2.325518357E0,-5.835069816E0,-1.952145571E-1,6.284439841E0
1.583070575E1,2.572488958E0,-5.730550836E0,-5.039013505E-1,6.301652870E0
1.584069175E1,2.700446502E0,-5.778797382E0,-8.173863691E-1,6.430787741E0
1.585067775E1,2.620336724E0,-6.090161616E0,-1.370152024E0,6.770047978E0
1.586066375E1,2.567321481E0,-6.613058816E0,-2.065557873E0,7.388519190E0
1.587064975E1,2.683059514E0,-7.011269989E0,-2.824397534E0,8.020843886E0
1.588063575E1,2.851208187E0,-7.131569434E0,-3.687739802E0,8.519864762E0
1.589062275E1,2.932333626E0,-7.262913101E0,-4.651504490E0,9.109609280E0
1.590060875E1,3.116828483E0,-7.667187837E0,-5.550170665E0,9.965178550E0
1.591059475E1,3.647167434E0,-8.195923482E0,-6.420309445E0,1.103156224E1
1.592058075E1,3.745504737E0,-8.549757212E0,-7.084382404E0,1.171817512E1
1.593056675E1,3.241099942E0,-8.561694303E0,-7.261379961E0,1.168481823E1
1.594055275E1,2.752736397E0,-8.418657959E0,-7.266229641E0,1.145641535E1
1.595053875E1,2.305671152E0,-8.499859412E0,-7.067177557E0,1.129197627E1
1.596052475E1,1.783256932E0,-8.752645070E0,-6.782312320E0,1.121554998E1
1.597051075E1,1.281798549E0,-8.981184078E0,-6.626251888E0,1.123440648E1
1.598049675E1,1.001476014E0,-9.171942472E0,-6.588570676E0,1.133740475E1
1.599048275E1,6.469043648E-1,-9.582813452E0,-6.760602778E0,1.174540544E1
1.600046875E1,-1.834856272E-2,-1.038369839E1,-7.119908332E0,1.259025908E1
1.601045475E1,-9.845448160E-1,-1.103033730E1,-7.296705329E0,1.326195981E1
1.602044075E1,-2.168941616E0,-1.147107468E1,-7.293494623E0,1.376535237E1
1.603042675E1,-3.819495112E0,-1.236290020E1,-7.135434444E0,1.477647688E1
1.604041275E1,-5.697488925E0,-1.338328260E1,-7.274602854E0,1.626325551E1
1.605039875E1,-7.631810428E0,-1.428559919E1,-6.908335605E0,1.760817922E1
1.606038475E1,-9.526879572E0,-1.527658647E1,-6.005500365E0,1.897897688E1
1.607037075E1,-1.137461551E1,-1.605837441E1,-4.363928777E0,2.015681376E1
1.608035675E1,-1.336534334E1,-1.575924957E1,-1.045369892E0,2.069007365E1
1.609034275E1,-1.492701887E1,-1.456085336E1,2.519889745E0,2.100438495E1
1.610032875E1,-1.566448608E1,-1.293391940E1,5.884781674E0,2.114930379E1
1.611031475E1,-1.527419847E1,-1.079955939E1,9.030793025E0,2.077226142E1
1.612030075E1,-1.432982636E1,-9.327802929E0,1.055112523E1,2.009174145E1
1.613028675E1,-1.383908943E1,-9.038720096E0,1.077777032E1,1.973269344E1
1.614027275E1,-1.395096187E1,-9.078855969E0,1.014809069E1,1.949458149E1
1.615025875E1,-1.359925536E1,-8.200190195E0,9.488079788E0,1.849882493E1
1.616024475E1,-1.321949274E1,-6.769829684E0,9.775155272E0,1.778030491E1
1.617023075E1,-1.302337245E1,-4.945162185E0,1.113611810E1,1.783468490E1
1.618021675E1,-1.189439906E1,-3.548898251E0,1.314165460E1,1.807690498E1
1.619020275E1,-1.016809635E1,-2.714910759E0,1.545792617E1,1.870049211E1
1.620018875E1,-7.812759533E0,-1.849090149E0,1.819671053E1,1.988915835E1
1.621017437E1,-5.202778228E0,-2.523978411E-1,2.020344921E1,2.086413109E1
1.622016037E1,-2.314682004E0,6.601569329E-1,2.169338057E1,2.182650500E1
1.623014638E1,1.306703741E0,1.512570901E-1,2.258923482E1,2.262750280E1
1.624013237E1,4.394105380E0,-1.310638186E0,2.153588699E1,2.201863672E1
1.625011837E1,6.626921979E0,-2.198919998E0,1.902290105E1,2.026381278E1
1.626010438E1,8.188941321E0,-3.178187410E0,1.584959256E1,1.812096077E1
1.627009037E1,8.980176018E0,-4.621253043E0,1.243435552E1,1.601913662E1
1.628007637E1,9.692921201E0,-5.532576978E0,9.449554238E0,1.462382319E1
1.629006238E1,1.041560548E1,-5.891955038E0,6.877790335E0,1.380231762E1
1.630004837E1,1.100671688E1,-5.863975527E0,4.991986688E0,1.343331518E1
1.631003437E1,1.162153758E1,-5.326245110E0,3.720161735E0,1.331422645E1
1.632002038E1,1.192223064E1,-4.208756245E0,2.776971937E0,1.294468175E1
1.633000637E1,1.161901509E1,-2.938274397E0,2.580717745E0,1.225948906E1
1.633999237E1,1.076228222E1,-1.928448998E0,2.971350927E0,1.133024980E1
1.634997838E1,9.654325485E0,-1.063828163E0,3.344165304E0,1.027234990E1
1.635996437E1,8.305433645E0,-3.371785577E-1,3.393838570E0,8.978421779E0
1.636995037E1,6.874838076E0,8.660620823E-2,3.112671697E0,7.547160015E0
1.637993638E1,5.445937614E0,1.892545815E-1,2.572681332E0,6.026005562E0
1.638992237E1,3.954208529E0,6.180210016E-3,1.947805182E0,4.407918819E0
1.639990837E1,2.554697343E0,-3.118323397E-1,1.389498999E0,2.924794931E0
1.640989438E1,1.462921608E0,-5.182781920E-1,8.706656134E-1,1.779553463E0
1.641988037E1,6.080180418E-1,-6.942456885E-1,4.932541555E-1,1.046404643E0
1.642986637E1,2.326080859E-1,-8.349088664E-1,2.661898148E-1,9.066622052E-1
1.643985338E1,4.284839630E-1,-8.440618055E-1,1.391286492E-1,9.567630945E-1
1.644983937E1,8.809675303E-1,-7.416457768E-1,1.077121443E-1,1.156608903E0
1.645982538E1,1.333628268E0,-7.308809797E-1,-1.714695990E-2,1.520869943E0
1.646981138E1,1.800190761E0,-5.918260784E-1,-2.442042840E-1,1.910649266E0
1.647979737E1,2.196420606E0,-2.985551767E-1,-4.437481195E-1,2.260599713E0
1.648978338E1,2.432240567E0,-5.751854874E-2,-5.776850259E-1,2.500564446E0
1.649976938E1,2.335592524E0,3.757091872E-3,-6.288142490E-1,2.418762889E0
