"Time (s)","Linear Acceleration x (m/s^2)","Linear Acceleration y (m/s^2)","Linear Acceleration z (m/s^2)","Absolute acceleration (m/s^2)"
3.056125017E-3,1.578213206E-1,-2.610846108E-1,-1.161963372E0,1.201345754E0
1.304212504E-2,1.920330870E-1,-1.886867255E-1,-1.235528947E0,1.264520132E0
2.302812500E-2,3.200143120E-1,3.328819871E-3,-1.041758067E0,1.089807373E0
3.301412502E-2,5.119044346E-1,1.564562881E-1,-6.311034340E-1,8.275362618E-1
4.300012504E-2,6.146698344E-1,2.806388694E-1,-1.869775844E-1,7.010975662E-1
5.298612500E-2,6.335961020E-1,3.479444146E-1,1.435690248E-1,7.369677069E-1
6.297212502E-2,5.705499610E-1,3.765408075E-1,3.313353986E-1,7.596666269E-1
7.295812503E-2,4.794167197E-1,2.993382651E-1,1.994742537E-1,5.993611315E-1
8.294412505E-2,5.275612316E-1,1.494513237E-1,-1.087447625E-1,5.590008717E-1
9.293012501E-2,8.249740085E-1,1.325856149E-1,-2.179198802E-1,8.635103556E-1
1.029161250E-1,9.518056709E-1,1.372294736E-1,-2.054723275E-1,9.833538737E-1
1.129021251E-1,7.898819438E-1,9.406298876E-2,-2.300107527E-1,8.280496829E-1
1.228881250E-1,7.297339752E-1,8.997695446E-2,-6.486199379E-2,7.381155771E-1
1.328746667E-1,6.148642543E-1,1.149474889E-1,-1.845743787E-1,6.521799427E-1
1.428606667E-1,5.291964054E-1,8.727671027E-2,-2.738835812E-1,6.022277606E-1
1.528466667E-1,4.764340550E-1,1.039757735E-1,-3.159022576E-1,5.810289206E-1
1.628326667E-1,3.390145469E-1,7.861172140E-2,-4.008546996E-1,5.308438150E-1
1.728186667E-1,2.255031341E-1,-3.870096624E-2,-3.999910659E-1,4.608061209E-1
1.828046667E-1,2.180903265E-1,-1.023613572E-1,-4.514834011E-1,5.117406564E-1
1.927906667E-1,2.514367050E-1,-4.490603149E-2,-5.765097356E-1,6.305556625E-1
2.027766667E-1,3.096132848E-1,3.334608614E-2,-7.214019853E-1,7.857437063E-1
2.127626667E-1,4.159288216E-1,5.277346015E-2,-6.655066967E-1,7.865627668E-1
2.227486667E-1,3.759917539E-1,1.549161315E-2,-6.175905186E-1,7.232066356E-1
2.327346667E-1,2.689140326E-1,8.750942945E-3,-5.474046350E-1,6.099534165E-1
2.427206667E-1,1.998812199E-1,3.383315921E-2,-4.435358655E-1,4.876692001E-1
2.527066667E-1,2.104874843E-1,5.190280974E-2,-4.192792761E-1,4.720105869E-1
2.626926667E-1,2.670856082E-1,8.109678805E-2,-3.701375216E-1,4.635873122E-1
2.726786667E-1,2.870386469E-1,1.183417976E-1,-3.025472170E-1,4.335098435E-1
2.826646667E-1,2.391622299E-1,1.062468320E-1,-2.696864498E-1,3.757894925E-1
2.926506667E-1,1.467159963E-1,1.292573798E-1,-2.775071007E-1,3.394749545E-1
3.026366667E-1,6.076601923E-2,2.271923947E-1,-2.558460903E-1,3.475141943E-1
3.126226667E-1,8.335205913E-3,2.872450536E-1,-2.820199817E-1,4.026344081E-1
3.226086667E-1,-3.424129486E-2,3.012789559E-1,-2.500643635E-1,3.930313746E-1
3.325946667E-1,-6.780021966E-2,3.421305281E-1,-1.384158736E-1,3.752454158E-1
3.425806667E-1,-2.002051556E-1,4.703319007E-1,1.085827947E-1,5.225748027E-1
3.525666667E-1,-3.044481468E-1,7.510608172E-1,5.798829943E-1,9.965165891E-1
3.625526667E-1,-2.040695804E-1,1.062160172E0,1.226437111E0,1.635229834E0
3.725386667E-1,8.164467216E-2,1.376409422E0,1.988488939E0,2.419763834E0
3.825246667E-1,5.317732733E-1,1.537330059E0,2.735181302E0,3.182354989E0
3.925106667E-1,7.770189464E-1,1.797998348E0,3.676446197E0,4.165670791E0
4.024966667E-1,9.795325828E-1,2.173424676E0,4.659511083E0,5.233956671E0
4.124826667E-1,1.211981624E0,2.260984976E0,5.109827964E0,5.717630134E0
4.224686667E-1,9.734163952E-1,1.986251795E0,5.143616100E0,5.599064409E0
4.324546667E-1,6.043278641E-1,1.298398794E0,4.539235903E0,4.759801906E0
4.424406667E-1,3.097995186E-1,5.317446220E-1,3.551951959E0,3.604870428E0
4.524266667E-1,-1.274780720E-1,1.419136781E-1,1.713794934E0,1.724379085E0
4.624126667E-1,1.912379242E0,1.763912004E-1,1.557960790E0,2.472963817E0
4.723986667E-1,3.377419004E0,1.819507331E-1,1.449700761E0,3.679904550E0
4.823846667E-1,3.264237374E0,1.492244518E-1,1.344592675E0,3.533474640E0
4.923706667E-1,2.902716894E0,4.803534436E-1,2.170392310E0,3.656105521E0
5.023566667E-1,2.066007231E0,6.411466116E-1,2.834168231E0,3.565384190E0
5.123426667E-1,1.575375552E0,4.159668285E-1,2.642981236E0,3.104864948E0
5.223286667E-1,1.499982138E0,-6.902638078E-3,1.969166815E0,2.475401383E0
5.323146667E-1,1.261998122E0,-3.013631558E-1,7.453492570E-1,1.496330354E0
5.423006667E-1,1.060834608E0,-6.764830899E-1,-6.224863923E-1,1.403740982E0
5.522866667E-1,1.058474672E0,-1.003330750E0,-1.501533551E0,2.093237738E0
5.622726667E-1,9.097641903E-1,-1.341005700E0,-2.183858009E0,2.719412248E0
5.722586667E-1,9.273339039E-1,-1.524082022E0,-2.638992265E0,3.185444138E0
5.822446667E-1,1.138517207E0,-1.445648641E0,-3.015531026E0,3.532640485E0
5.922306667E-1,1.346707905E0,-1.331327389E0,-2.799261231E0,3.379632855E0
6.022166667E-1,1.485419063E0,-1.550269362E0,-2.382972805E0,3.207548017E0
6.122026667E-1,1.582668200E0,-1.978760927E0,-2.098002026E0,3.289672618E0
6.221886667E-1,1.624188108E0,-2.433789495E0,-2.376753999E0,3.769652224E0
6.321746667E-1,1.408427020E0,-2.833490539E0,-2.885621682E0,4.282423122E0
6.421606667E-1,1.072669373E0,-3.423583941E0,-3.347063476E0,4.906565040E0
6.521466667E-1,8.233698249E-1,-3.971958044E0,-3.693154031E0,5.485779368E0
6.621326667E-1,5.433466673E-1,-4.399879505E0,-4.082805173E0,6.026895000E0
6.721186667E-1,1.069075674E-1,-4.928516332E0,-4.695242541E0,6.807863466E0
6.821046667E-1,-2.267263716E-1,-5.341027456E0,-5.320941685E0,7.542572476E0
6.920906667E-1,-5.492424148E-1,-5.530167341E0,-5.874765978E0,8.086859301E0
7.020766667E-1,-9.669698399E-1,-5.805862389E0,-6.141198453E0,8.506314548E0
7.120626667E-1,-1.608995873E0,-6.160053969E0,-6.162477055E0,8.860657768E0
7.220486667E-1,-2.208384594E0,-6.445641337E0,-6.180942562E0,9.199310067E0
7.320346667E-1,-2.816351180E0,-6.900528402E0,-6.287734355E0,9.751139909E0
7.420206667E-1,-3.743545920E0,-7.447703826E0,-6.461455132E0,1.054669762E1
7.520066667E-1,-4.903800151E0,-7.974479485E0,-6.376510876E0,1.132693559E1
7.619926667E-1,-5.949731961E0,-8.497287222E0,-6.436111545E0,1.220765057E1
7.719786667E-1,-6.922905697E0,-9.046457716E0,-6.145150001E0,1.294325651E1
7.819646667E-1,-8.267086435E0,-9.793714920E0,-5.576177326E0,1.397695688E1
7.919506667E-1,-9.446858672E0,-1.039697859E1,-4.837904662E0,1.485751070E1
8.019366667E-1,-1.105321160E1,-1.111001146E1,-4.450518147E0,1.629149941E1
8.119226667E-1,-1.272822605E1,-1.187928284E1,-4.578213151E0,1.800236470E1
8.219086667E-1,-1.388253892E1,-1.314509978E1,-4.280581688E0,1.959188390E1
8.318946667E-1,-1.480740706E1,-1.505718374E1,-3.109308379E0,2.134586340E1
8.418806667E-1,-1.535626882E1,-1.708598046E1,-1.286450009E0,2.300870865E1
8.518666667E-1,-1.530962909E1,-1.891427382E1,9.383500582E-1,2.435189926E1
8.618526667E-1,-1.544898344E1,-1.972909969E1,2.512478399E0,2.518374499E1
8.718386667E-1,-1.532766424E1,-2.017114919E1,4.486038812E0,2.572813820E1
8.818246667E-1,-1.576675739E1,-1.962738620E1,6.942013228E0,2.611544515E1
8.918106667E-1,-1.659338645E1,-1.682445555E1,1.129387247E1,2.619072993E1
9.017966667E-1,-1.579403465E1,-1.310528141E1,1.678169019E1,2.651084791E1
9.117826667E-1,-1.294394621E1,-9.389146653E0,2.088831721E1,2.630634171E1
9.217686667E-1,-9.146052756E0,-4.979971830E0,2.497074494E1,2.705528605E1
9.317546667E-1,-5.497576130E0,-1.076586276E0,2.778384741E1,2.834298076E1
9.417406667E-1,-2.694445505E0,9.174566410E-1,2.743480840E1,2.758206800E1
9.517266667E-1,-1.339095123E0,2.862948811E-1,2.532623227E1,2.536322498E1
9.617126667E-1,-9.209420201E-1,-1.934441810E0,2.141651257E1,2.152341074E1
9.716986667E-1,-8.433769503E-1,-4.309943773E0,1.660548785E1,1.717641193E1
9.816846667E-1,-5.706708522E-1,-6.721129394E0,1.255116300E1,1.424889253E1
9.916706667E-1,-1.548902576E-1,-8.687640989E0,9.357697404E0,1.276971408E1
1.001656667E0,4.270383120E-1,-9.586977255E0,8.298453823E0,1.268687631E1
1.011642667E0,1.171874330E0,-8.992890789E0,9.302584473E0,1.299166856E1
1.021628667E0,1.952186209E0,-7.670420178E0,1.203519534E1,1.440459314E1
1.031614667E0,2.758262601E0,-6.098900279E0,1.559192213E1,1.696798848E1
1.041600667E0,3.148109625E0,-3.988589864E0,1.929239454E1,1.995033660E1
1.051586667E0,3.053013725E0,-2.030351057E0,2.257180544E1,2.286765443E1
1.061572667E0,2.745405158E0,-1.062307522E0,2.520213330E1,2.537347571E1
1.071558667E0,2.535086659E0,-1.338735080E0,2.642651453E1,2.658156403E1
1.081544667E0,3.037851895E0,-3.344494502E0,2.516778909E1,2.557013484E1
1.091530667E0,4.351640561E0,-6.166401122E0,2.132176897E1,2.261811465E1
1.101516667E0,6.459677578E0,-8.785249144E0,1.619149212E1,1.952107717E1
1.111502667E0,9.076649230E0,-1.061427282E1,1.023372433E1,1.731408278E1
1.121488667E0,1.149377825E1,-1.154506301E1,4.205508701E0,1.682503260E1
1.131474125E0,1.338486486E1,-1.185696870E1,-8.880564022E-1,1.790337840E1
1.141460125E0,1.400010538E1,-1.201483650E1,-4.804981622E0,1.906428848E1
1.151446125E0,1.270595634E1,-1.168974535E1,-8.446606480E0,1.922073448E1
1.161432125E0,1.030091235E1,-1.089754586E1,-1.123894373E1,1.873977473E1
1.171418125E0,7.506566577E0,-1.013250201E1,-1.228292783E1,1.760359210E1
1.181404125E0,5.349386635E0,-8.983629384E0,-1.266104856E1,1.642022183E1
1.191390125E0,4.042737420E0,-7.525632593E0,-1.192549222E1,1.466956838E1
1.201376125E0,2.958734682E0,-5.934918625E0,-1.010614978E1,1.208766451E1
1.211362125E0,2.272053171E0,-4.347242285E0,-7.892855862E0,9.292895930E0
1.221348125E0,2.018622127E0,-2.898322712E0,-5.916795765E0,6.890833183E0
1.231334125E0,2.081811671E0,-2.036356586E0,-4.469641466E0,5.334639895E0
1.241320125E0,2.355338718E0,-1.646098210E0,-3.698493124E0,4.683600237E0
1.251306125E0,2.514406519E0,-1.434007419E0,-3.598656009E0,4.618326807E0
1.261292125E0,2.539315657E0,-1.565864471E0,-3.859758162E0,4.878297717E0
1.271278125E0,2.388408962E0,-1.717606734E0,-4.028779532E0,4.988560391E0
1.281264125E0,2.087924496E0,-1.645416425E0,-4.008729429E0,4.810066065E0
1.291250125E0,1.700701557E0,-1.573843582E0,-3.702401987E0,4.367739676E0
1.301236125E0,1.213640260E0,-1.500237954E0,-3.091466185E0,3.644283163E0
1.311222125E0,6.475401033E-1,-1.213384079E0,-2.368972524E0,2.739277264E0
1.321208125E0,2.140535002E-1,-8.434775224E-1,-1.689249492E0,1.900220271E0
1.331194125E0,-3.504869484E-2,-4.924978182E-1,-9.743636441E-1,1.092321850E0
1.341180125E0,-1.563300613E-1,1.986182213E-2,-1.650680673E-1,2.282127229E-1
1.351166125E0,-9.208483916E-2,5.745661211E-1,4.621668488E-1,7.431043273E-1
1.361152125E0,8.515069921E-2,9.675963691E-1,1.070170273E0,1.445253537E0
1.371138125E0,3.689036860E-1,1.386313435E0,1.635915869E0,2.175816077E0
1.381124125E0,7.157111827E-1,1.837716437E0,1.950468589E0,2.773764936E0
1.391110125E0,8.503025387E-1,1.889480668E0,2.007369014E0,2.884905884E0
1.401096125E0,7.266568049E-1,1.653741983E0,1.963074601E0,2.667687116E0
1.411082125E0,5.210418054E-1,1.490152092E0,1.949693833E0,2.508653795E0
1.421068125E0,3.620868558E-1,1.253510012E0,1.822553730E0,2.241449607E0
1.431054125E0,2.364403510E-1,8.755345899E-1,1.919502904E0,2.122959316E0
1.441040125E0,5.410165519E-2,6.153738391E-1,2.328491666E0,2.409042421E0
1.451026125E0,2.102236287E-1,8.309270588E-1,2.961377916E0,3.082919543E0
1.461012125E0,5.706517026E-1,1.417102827E0,3.849039046E0,4.141126099E0
1.470998125E0,1.071049694E0,1.939411212E0,4.685939328E0,5.183289562E0
1.480984125E0,1.688753795E0,2.288305507E0,5.486726621E0,6.180000040E0
1.490970125E0,2.232663987E0,2.476176253E0,6.091989455E0,6.944679463E0
1.500956125E0,2.482523698E0,2.343113213E0,6.121200390E0,7.008722969E0
1.510942125E0,2.404817711E0,1.851769343E0,5.630883876E0,6.396800071E0
1.520928125E0,2.217207457E0,1.190317106E0,4.715365441E0,5.344860612E0
1.530914125E0,1.915701922E0,5.686730048E-1,3.672416881E0,4.180902843E0
1.540900125E0,1.519061895E0,1.120148179E-1,2.912025077E0,3.286333277E0
1.550886125E0,1.644090569E0,9.602385253E-2,2.682676229E0,3.147857387E0
1.560872125E0,2.401698806E0,4.630573797E-1,2.904868670E0,3.797478279E0
1.570858125E0,3.511166461E0,1.141527061E0,3.824705274E0,5.315989501E0
1.580844125E0,4.498161845E0,1.795201625E0,5.007511631E0,6.966446841E0
1.590830125E0,4.850522661E0,2.152568535E0,6.241808569E0,8.192758729E0
1.600816125E0,4.495214263E0,1.933249708E0,7.207696674E0,8.711790691E0
1.610802125E0,3.072962086E0,1.003974237E0,7.584350917E0,8.244600602E0
1.620788125E0,1.122494082E0,-6.367784491E-1,7.154906257E0,7.270361979E0
1.630774125E0,-9.193448532E-1,-2.599548995E0,6.769250810E0,7.309282212E0
1.640760125E0,-3.539838867E0,-4.211683946E0,5.135866200E0,7.526344564E0
1.650746125E0,-4.428585241E0,-4.379748711E0,2.436329379E0,6.688068993E0
1.660732125E0,-3.383577291E0,-4.264652410E0,7.825567713E-1,5.499840959E0
1.670718125E0,-1.671109675E0,-4.708310775E0,-5.737410790E-1,5.028914070E0
1.680704125E0,-1.835125244E-1,-5.046487416E0,-1.330245069E0,5.222093836E0
1.690690125E0,4.437451959E-2,-5.179136181E0,-1.510715726E0,5.395153629E0
1.700676125E0,-6.582087868E-1,-5.639763458E0,-1.219784003E0,5.807585013E0
1.710662125E0,-1.929477670E0,-6.254615725E0,-1.002603357E0,6.621806056E0
1.720648125E0,-2.978248887E0,-6.743747594E0,-1.660862430E0,7.556888384E0
1.730634125E0,-3.462905881E0,-7.147499589E0,-3.410889051E0,8.643646894E0
1.740620125E0,-3.805940389E0,-7.743857113E0,-5.980851427E0,1.049871845E1
1.750606125E0,-3.898987716E0,-8.362398974E0,-8.568865913E0,1.259195318E1
1.760592125E0,-4.223067890E0,-8.873943805E0,-9.954895173E0,1.398860676E1
1.770578125E0,-4.593522331E0,-8.876807771E0,-1.026513323E1,1.432728599E1
1.780564125E0,-4.719831544E0,-8.585293665E0,-9.794416586E0,1.385332716E1
1.790550125E0,-4.918922805E0,-8.473981975E0,-8.529462696E0,1.299060837E1
1.800536125E0,-5.456643282E0,-8.767471270E0,-6.965275791E0,1.245626650E1
1.810522125E0,-6.294000816E0,-8.899920060E0,-5.270896536E0,1.210807060E1
1.820508125E0,-7.498806152E0,-9.094244086E0,-3.847645947E0,1.239926403E1
1.830494125E0,-8.820946981E0,-9.292833071E0,-2.788559364E0,1.311266241E1
1.840480125E0,-1.018092397E1,-9.310892782E0,-2.386322090E0,1.400137388E1
1.850466125E0,-1.118772446E1,-9.629414007E0,-2.318390601E0,1.494207910E1
1.860452125E0,-1.238517692E1,-1.041837940E1,-1.964023458E0,1.630314770E1
1.870438125E0,-1.362382302E1,-1.134071920E1,-1.247524509E0,1.777010926E1
1.880424125E0,-1.399169942E1,-1.242766981E1,-1.990467856E-1,1.871508080E1
1.890410125E0,-1.432651918E1,-1.395431817E1,1.218038755E0,2.003636109E1
1.900396125E0,-1.443772036E1,-1.540577836E1,3.004823313E0,2.132638598E1
1.910382125E0,-1.430605275E1,-1.615374717E1,4.935679171E0,2.213521226E1
1.920368125E0,-1.401001758E1,-1.636182502E1,6.577873195E0,2.252239611E1
1.930354125E0,-1.377041506E1,-1.554147470E1,9.163650536E0,2.269656929E1
1.940340125E0,-1.281294519E1,-1.339263932E1,1.233394596E1,2.226343583E1
1.950326125E0,-1.174547282E1,-1.116353687E1,1.380135384E1,2.128516044E1
1.960312125E0,-1.108019533E1,-8.898330202E0,1.535606767E1,2.092271071E1
1.970298125E0,-9.899814402E0,-5.637048596E0,1.825872025E1,2.152123387E1
1.980284125E0,-7.173074725E0,-1.773548362E0,2.035051136E1,2.165044543E1
1.990270125E0,-3.832227716E0,9.757669759E-1,2.185873515E1,2.221356326E1
2.000256125E0,-1.163543290E0,1.777907461E0,2.235414634E1,2.245490251E1
2.010242125E0,2.220980081E-1,1.791660843E0,2.074465112E1,2.082306236E1
2.020228125E0,3.607489398E-1,1.041919450E0,1.824746202E1,1.828074413E1
2.030214125E0,8.558861911E-3,-3.341718829E-1,1.573373115E1,1.573728185E1
2.040200125E0,-6.555070809E-1,-2.185384717E0,1.367089778E1,1.385997987E1
2.050186125E0,-1.368279453E0,-4.484305113E0,1.175488918E1,1.265537832E1
2.060172125E0,-1.876230585E0,-6.161420463E0,1.018228988E1,1.204833476E1
2.070158125E0,-1.923221149E0,-7.025223784E0,9.600586064E0,1.205088385E1
2.080144125E0,-1.320136988E0,-6.979220231E0,1.021575584E1,1.244242517E1
2.090130125E0,-6.397266883E-1,-6.107339566E0,1.167050684E1,1.318747802E1
2.100116125E0,-1.500073574E-1,-4.517167050E0,1.346283865E1,1.420124378E1
2.110102125E0,5.732215539E-2,-3.534150696E0,1.529472804E1,1.569784103E1
2.120088125E0,-1.019565837E-1,-2.461833326E0,1.707770782E1,1.725453919E1
2.130073792E0,-5.886625886E-2,-1.414925908E0,1.879915851E1,1.885242269E1
2.140060792E0,8.161083139E-1,-1.542536127E0,1.998164327E1,2.005770471E1
2.150046792E0,2.637831886E0,-2.735516640E0,1.956001809E1,1.992575008E1
2.160031792E0,4.955484860E0,-4.376637408E0,1.684069093E1,1.809200531E1
2.170018792E0,6.996109913E0,-6.262186115E0,1.333944252E1,1.631261032E1
2.180003792E0,8.755062894E0,-7.745258106E0,9.699844304E0,1.518970470E1
2.189989792E0,1.021158443E1,-8.484861889E0,5.854544553E0,1.451016988E1
2.199975792E0,1.106702623E1,-8.893357730E0,2.295305793E0,1.438190913E1
2.209961792E0,1.124872729E1,-9.103534142E0,-5.351330835E-1,1.448083447E1
2.219947792E0,1.109601088E1,-8.913536471E0,-3.056082344E0,1.455720541E1
2.229933792E0,1.068116614E1,-8.494266551E0,-4.884351143E0,1.449471491E1
2.239919792E0,9.881444789E0,-7.700500009E0,-5.925030398E0,1.385808922E1
2.249905792E0,8.842054844E0,-6.642168009E0,-6.187854556E0,1.267240600E1
2.259891792E0,7.715758903E0,-5.809941992E0,-5.954960541E0,1.134680204E1
2.269877792E0,6.559410027E0,-4.969276103E0,-5.504905615E0,9.900684356E0
2.279863792E0,5.295721475E0,-4.235878555E0,-4.740548814E0,8.274064063E0
2.289849792E0,4.189946921E0,-3.499719951E0,-3.980639990E0,6.756418406E0
2.299835792E0,3.276905367E0,-2.815391652E0,-3.553078133E0,5.593648465E0
2.309821792E0,2.420564262E0,-2.282990972E0,-3.056271794E0,4.517961532E0
2.319807792E0,1.778917714E0,-1.897881363E0,-2.716240416E0,3.760912642E0
2.329793792E0,1.302050380E0,-1.675320255E0,-2.594417186E0,3.351571823E0
2.339779792E0,9.705487014E-1,-1.635196661E0,-2.645131842E0,3.257691723E0
2.349765792E0,8.614805147E-1,-1.736081012E0,-2.952334027E0,3.531628826E0
2.359751792E0,9.133961152E-1,-1.845672451E0,-3.320583483E0,3.907310319E0
2.369737792E0,1.037308482E0,-1.910656067E0,-3.472007073E0,4.096516643E0
2.379723792E0,1.265346823E0,-1.837220301E0,-3.485307149E0,4.138097019E0
2.389709792E0,1.439777452E0,-1.525581248E0,-3.350439366E0,3.952948419E0
2.399695792E0,1.474157618E0,-1.160030283E0,-3.005041999E0,3.542469245E0
2.409681792E0,1.428500804E0,-8.153088534E-1,-2.601523892E0,3.077867709E0
2.419667792E0,1.253310622E0,-5.418845710E-1,-2.084972091E0,2.492295131E0
2.429653792E0,8.771904483E-1,-3.256855264E-1,-1.564375185E0,1.822855964E0
2.439639792E0,3.890841814E-1,9.153933048E-2,-1.083132380E0,1.154530945E0
2.449625792E0,-8.637740850E-2,4.440776101E-1,-4.809761721E-1,6.603060340E-1
2.459611792E0,-4.706465540E-1,6.711977917E-1,2.138771152E-1,8.472060403E-1
2.469597792E0,-7.514739230E-1,9.074504471E-1,8.693423885E-1,1.464218412E0
2.479583792E0,-8.287511636E-1,1.159259327E0,1.490964562E0,2.062446607E0
2.489569792E0,-8.077033800E-1,1.509384461E0,2.213865774E0,2.798540310E0
2.499555792E0,-9.430797248E-1,1.955789263E0,3.106791737E0,3.790338495E0
2.509541792E0,-9.856023581E-1,2.631054085E0,4.327788599E0,5.159807338E0
2.519527792E0,-8.226952755E-1,3.594481390E0,5.854823465E0,6.919254424E0
2.529513792E0,-6.319202900E-1,4.530524721E0,7.473777146E0,8.762552273E0
2.539499792E0,-1.605707545E-1,5.008066531E0,8.883200532E0,1.019890999E1
2.549485792E0,1.609193216E-1,5.401640278E0,9.935462537E0,1.131004105E1
2.559471792E0,1.383139128E-1,5.468162296E0,1.046187450E1,1.180553885E1
2.569457792E0,-3.091101319E-2,4.483524510E0,1.028301402E1,1.121799112E1
2.579443792E0,-1.919757843E-2,2.919974659E0,9.690563019E0,1.012095016E1
2.589429792E0,-2.454400930E-1,1.181978391E0,8.461956006E0,8.547632024E0
2.599415792E0,-3.241061935E-1,-3.035801277E-1,6.664784455E0,6.679562676E0
2.609401792E0,-1.476223147E-1,-9.306709099E-1,4.854293531E0,4.944907115E0
2.619387792E0,2.930753124E-1,-9.708342648E-1,3.588911040E0,3.729436252E0
2.629373792E0,8.809657761E-1,-7.358744287E-1,3.520569953E0,3.702975110E0
2.639359792E0,1.518734451E0,-7.696631491E-1,3.917561982E0,4.271560321E0
2.649345792E0,1.805135752E0,-1.634856938E0,4.188903193E0,4.845429006E0
2.659331792E0,1.206026235E0,-3.039169273E0,3.978001142E0,5.149324444E0
2.669317792E0,-1.341082299E-1,-4.091657565E0,3.036438331E0,5.097019167E0
2.679303792E0,-1.626842744E0,-5.038945093E0,1.802460651E0,5.593429123E0
2.689289792E0,-3.304003118E0,-6.437513123E0,-8.849614710E-2,7.236424765E0
2.699275792E0,-3.658805732E0,-6.640427878E0,-2.498883038E0,7.982891596E0
2.709261792E0,-2.077920933E0,-5.957502910E0,-3.385213342E0,7.160255981E0
2.719247792E0,1.523123664E-1,-5.239282395E0,-3.506671706E0,6.306348034E0
2.729233792E0,2.054968273E0,-5.173968996E0,-3.369135838E0,6.507221072E0
2.739219792E0,2.857610888E0,-5.557785494E0,-3.115232778E0,6.982807089E0
2.749205792E0,2.887935718E0,-5.971580082E0,-2.709997344E0,7.165474652E0
2.759191792E0,2.448526232E0,-6.702189678E0,-2.826117200E0,7.674735540E0
2.769177792E0,1.565672683E0,-7.795033114E0,-3.640869398E0,8.744701377E0
2.779163792E0,6.981990641E-1,-8.931797910E0,-4.810351997E0,1.016877486E1
2.789149792E0,-4.349872363E-1,-9.733296225E0,-6.155237617E0,1.152446178E1
2.799135792E0,-1.450274958E0,-9.973074167E0,-7.481583763E0,1.255147806E1
2.809121792E0,-2.168174461E0,-9.774600372E0,-8.816811830E0,1.334091315E1
2.819107792E0,-3.128888950E0,-9.756542416E0,-9.559448563E0,1.401296267E1
2.829093792E0,-3.890394064E0,-1.012776577E1,-9.541974744E0,1.444839394E1
2.839079792E0,-4.327523720E0,-1.045504261E1,-9.052148226E0,1.449057504E1
2.849065792E0,-4.539708066E0,-1.068463353E1,-7.820877807E0,1.399773099E1
2.859051792E0,-5.274201382E0,-1.071288611E1,-6.036977681E0,1.338014307E1
2.869037792E0,-6.406163861E0,-1.082931938E1,-3.642642274E0,1.309892882E1
2.879023792E0,-7.634372678E0,-1.085874958E1,-9.209140997E-1,1.330579466E1
2.889009792E0,-8.943603439E0,-1.103503144E1,4.971690126E-1,1.421292153E1
2.898995792E0,-1.008694401E1,-1.136053658E1,4.659130868E-1,1.519951663E1
2.908981792E0,-1.125298640E1,-1.205956419E1,7.461351228E-1,1.651119345E1
2.918967792E0,-1.203345521E1,-1.282155931E1,1.994016897E0,1.769668135E1
2.928953792E0,-1.228112455E1,-1.367921720E1,2.984266257E0,1.862398584E1
2.938939792E0,-1.229853639E1,-1.438994042E1,3.933904365E0,1.933390768E1
2.948925792E0,-1.247425107E1,-1.518022553E1,4.891776522E0,2.024785580E1
2.958911792E0,-1.281238853E1,-1.585495913E1,5.752459184E0,2.118083605E1
2.968897792E0,-1.303555570E1,-1.524547344E1,7.802131049E0,2.152262581E1
2.978883792E0,-1.323801087E1,-1.314511147E1,1.031745646E1,2.131874281E1
2.988869792E0,-1.253781030E1,-1.089921115E1,1.277981252E1,2.095979721E1
2.998855792E0,-1.138782554E1,-8.712838980E0,1.599219211E1,2.147897442E1
3.008841792E0,-8.752224655E0,-5.253378278E0,1.959961427E1,2.209851351E1
3.018827792E0,-4.916671042E0,-1.859819205E0,2.110279542E1,2.174765633E1
3.028813792E0,-1.921602640E0,5.872347716E-1,2.017789922E1,2.027769756E1
3.038799792E0,-6.339007419E-1,2.545437692E0,1.842930341E1,1.861505593E1
3.048785792E0,-6.167157751E-1,2.795123448E0,1.697509386E1,1.721472814E1
3.058771792E0,-1.951988573E0,1.598213899E0,1.572307050E1,1.592417951E1
3.068757792E0,-3.307627515E0,7.700446799E-2,1.414715818E1,1.452888206E1
3.078743792E0,-4.633471385E0,-1.507584980E0,1.265805946E1,1.356349287E1
3.088729792E0,-4.901836072E0,-2.886633543E0,1.161753574E1,1.293552422E1
3.098715792E0,-3.823228852E0,-3.781354601E0,1.148765037E1,1.268392023E1
3.108701792E0,-1.684536636E0,-3.940431904E0,1.173631257E1,1.249422667E1
3.118687792E0,1.119092939E-1,-3.762567205E0,1.242182493E1,1.297964446E1
3.128673792E0,7.285498410E-1,-3.679856001E0,1.287151207E1,1.340701115E1
3.138659625E0,-9.790358618E-3,-3.477738513E0,1.261517832E1,1.308577415E1
3.148645625E0,-9.572261129E-1,-3.398557273E0,1.235403231E1,1.284868039E1
3.158631625E0,-1.881777400E0,-3.357822645E0,1.267806396E1,1.324950432E1
3.168617625E0,-1.650253826E0,-2.963678795E0,1.369763125E1,1.411140786E1
3.178603625E0,-6.902443658E-1,-2.921949556E0,1.465585775E1,1.496022704E1
3.188589625E0,3.005717352E-1,-3.517103139E0,1.497309376E1,1.538355923E1
3.198575625E0,1.405634682E0,-4.258844079E0,1.415642484E1,1.484984600E1
3.208561625E0,2.652142069E0,-4.987197819E0,1.245952427E1,1.368012225E1
3.218547625E0,3.950677688E0,-5.698529145E0,1.043762843E1,1.253096867E1
3.228533625E0,5.483686654E0,-6.322252808E0,8.413093164E0,1.186683768E1
3.238519625E0,7.163533823E0,-6.891079302E0,6.054361453E0,1.163866330E1
3.248505625E0,9.346399999E0,-7.412696546E0,3.404086400E0,1.240528384E1
3.258491625E0,1.119287937E1,-7.536418952E0,4.494456464E-1,1.350111701E1
3.268477625E0,1.210009826E1,-7.554182793E0,-2.241179287E0,1.443956164E1
3.278463625E0,1.194576919E1,-7.456349519E0,-4.520747885E0,1.478971640E1
3.288449625E0,1.083889712E1,-7.360429455E0,-5.846189466E0,1.434696984E1
3.298435625E0,9.446998420E0,-7.033644360E0,-6.278463594E0,1.334679876E1
3.308421625E0,8.021180611E0,-6.491282948E0,-6.044992459E0,1.195901445E1
3.318406625E0,6.711399627E0,-5.722850053E0,-5.695620739E0,1.049923775E1
3.328393625E0,5.628336829E0,-4.531572835E0,-5.208866934E0,8.907615986E0
3.338378625E0,4.777352066E0,-3.424220410E0,-4.570122943E0,7.445428255E0
3.348364625E0,4.424974585E0,-2.783035792E0,-3.972912310E0,6.565799305E0
3.358350625E0,4.252348407E0,-2.556972202E0,-3.671502376E0,6.172560531E0
3.368336625E0,3.776298514E0,-2.557121306E0,-3.627996168E0,5.827663000E0
3.378322625E0,3.188582590E0,-2.731974104E0,-3.833418210E0,5.685581466E0
3.388308625E0,2.524828888E0,-2.898370366E0,-4.087768582E0,5.611164200E0
3.398294625E0,1.815737192E0,-2.878511468E0,-4.050561579E0,5.290536734E0
3.408280625E0,1.342402015E0,-2.877151113E0,-3.755506400E0,4.917709835E0
3.418266625E0,1.211760746E0,-2.707510231E0,-3.577058734E0,4.646969436E0
3.428252625E0,1.239188280E0,-2.181370457E0,-3.171419842E0,4.043744364E0
3.438238625E0,1.162226205E0,-1.651804216E0,-2.581405962E0,3.277633851E0
3.448224625E0,9.347008109E-1,-1.223454446E0,-1.932814676E0,2.471088618E0
3.458210625E0,5.835940759E-1,-8.575035310E-1,-1.280620919E0,1.647994020E0
3.468196625E0,3.836923542E-1,-5.929942060E-1,-6.425084281E-1,9.548188473E-1
3.478182625E0,3.720222985E-1,-3.928600940E-1,-2.625855911E-1,6.014073800E-1
3.488168625E0,3.940318760E-1,-2.471811014E-1,-8.927587330E-2,4.736346670E-1
3.498154625E0,3.830566522E-1,-1.954636484E-1,-6.961870372E-2,4.356434329E-1
3.508140625E0,3.843229764E-1,-1.491352817E-1,-1.503482866E-1,4.388052982E-1
3.518126625E0,3.784096507E-1,-1.398116040E-1,-1.574123079E-1,4.330355448E-1
3.528112625E0,4.104737714E-1,-2.232317832E-1,-9.921263158E-2,4.776654606E-1
3.538098625E0,3.798580426E-1,-1.429106283E-1,7.530570567E-2,4.127790323E-1
3.548084625E0,4.452961698E-1,2.171863469E-1,5.339963847E-1,7.284303172E-1
3.558070625E0,6.256807993E-1,6.364089051E-1,1.242558469E0,1.529851073E0
3.568056625E0,7.481301197E-1,1.033210607E0,1.940598489E0,2.322314649E0
3.578042625E0,7.288296302E-1,1.435686155E0,2.718368803E0,3.159417084E0
3.588028625E0,6.692907223E-1,1.761891207E0,3.314942674E0,3.813273610E0
3.598014625E0,6.706386517E-1,1.963678034E0,3.730706604E0,4.268952962E0
3.608000625E0,5.505021974E-1,2.241416684E0,4.150919681E0,4.749435295E0
3.617986625E0,2.538981270E-1,2.359113534E0,4.354828463E0,4.959275337E0
3.627972625E0,1.591983033E-1,2.374782610E0,4.542282595E0,5.128086165E0
3.637958625E0,4.159712139E-1,2.802695885E0,5.113306473E0,5.845856598E0
3.647944625E0,1.025043363E0,3.218813572E0,5.671962320E0,6.601714267E0
3.657930625E0,1.711376672E0,3.048618666E0,5.979526448E0,6.926588080E0
3.667916625E0,2.037141136E0,2.529204944E0,6.087029847E0,6.899185025E0
3.677902625E0,2.275604039E0,2.059653647E0,5.738786055E0,6.508011391E0
3.687888625E0,2.793452606E0,1.679084693E0,5.070280321E0,6.027474214E0
3.697874625E0,3.189623394E0,1.306251605E0,4.364629565E0,5.561472997E0
3.707860625E0,3.714186466E0,9.158795008E-1,3.845128428E0,5.423931138E0
3.717846625E0,4.300303761E0,7.624257579E-1,3.649639052E0,5.691552573E0
3.727832625E0,4.543680372E0,8.566053987E-1,4.058626644E0,6.152337309E0
3.737818625E0,4.754784738E0,1.259026275E0,4.642940658E0,6.763876331E0
3.747804625E0,5.042652812E0,1.485723703E0,5.649060531E0,7.716709609E0
3.757790625E0,5.272539604E0,6.307999635E-1,6.949376627E0,8.745937226E0
3.767776625E0,5.242527015E0,-8.484017551E-1,7.465678167E0,9.161889846E0
3.777762625E0,4.648280920E0,-2.992959312E0,6.970199146E0,8.896516009E0
3.787748625E0,2.698366063E0,-5.816729439E0,5.347100374E0,8.349071996E0
3.797734625E0,-8.530561388E-2,-7.090486313E0,2.292939133E0,7.452505824E0
3.807720625E0,-2.358969108E0,-7.115382587E0,4.244809592E-1,7.508234726E0
3.817706625E0,-4.247651339E0,-7.568096243E0,-3.850587389E-1,8.687168288E0
3.827692625E0,-4.588906538E0,-7.347155106E0,-1.228528660E0,8.749173335E0
3.837678625E0,-3.787404715E0,-6.842410002E0,-1.515963163E0,7.966250902E0
3.847664625E0,-2.690372919E0,-6.239344552E0,-1.930692721E0,7.063646457E0
3.857650625E0,-2.140261023E0,-5.807390267E0,-2.144790276E0,6.550314823E0
3.867636625E0,-2.579272898E0,-5.830401399E0,-2.320818365E0,6.784720115E0
3.877622625E0,-3.865438147E0,-6.028573478E0,-2.594011974E0,7.616705874E0
3.887608625E0,-4.831346133E0,-6.243047009E0,-3.091089332E0,8.477757644E0
3.897594625E0,-5.436973833E0,-6.551986987E0,-3.824237496E0,9.333488649E0
3.907580625E0,-5.771001289E0,-6.730251635E0,-4.842953733E0,1.010222470E1
3.917566625E0,-6.187490274E0,-6.633704749E0,-5.758287688E0,1.074471739E1
3.927552625E0,-6.832710056E0,-6.604182742E0,-6.559780741E0,1.154694244E1
3.937538625E0,-7.563660545E0,-6.835730143E0,-6.835857028E0,1.227457163E1
3.947524625E0,-8.221665848E0,-7.194173818E0,-6.630175955E0,1.277932547E1
3.957510625E0,-9.024149419E0,-7.715865907E0,-5.898101631E0,1.325735503E1
3.967496625E0,-1.003096979E1,-8.293071461E0,-4.718277354E0,1.384404314E1
3.977482625E0,-1.122335155E1,-8.881092610E0,-3.442736496E0,1.472038928E1
3.987468625E0,-1.245553179E1,-9.915974936E0,-2.209752842E0,1.607326472E1
3.997454625E0,-1.331425037E1,-1.117480679E1,-7.421946841E-1,1.739817297E1
4.007440625E0,-1.382970114E1,-1.240835529E1,7.137585050E-1,1.859401425E1
4.017426625E0,-1.383693415E1,-1.333164818E1,1.946039908E0,1.931270725E1
4.027412625E0,-1.343615079E1,-1.379781277E1,3.355203093E0,1.954909647E1
4.037398625E0,-1.263034132E1,-1.358272879E1,5.195190296E0,1.926151722E1
4.047384625E0,-1.155054068E1,-1.251539091E1,7.503279857E0,1.861045965E1
4.057370625E0,-1.103037940E1,-1.023114220E1,1.000706403E1,1.806894770E1
4.067356625E0,-1.064610857E1,-6.822850481E0,1.337972282E1,1.840945135E1
4.077342625E0,-9.390849363E0,-4.931728207E0,1.548117470E1,1.876637325E1
4.087328625E0,-7.624173964E0,-3.926590960E0,1.697352213E1,1.901700814E1
4.097314625E0,-5.899612552E0,-2.501646432E0,1.803947188E1,1.914382953E1
4.107300625E0,-4.706033285E0,-1.554668515E0,1.732416445E1,1.801916805E1
4.117286625E0,-4.193852277E0,-1.427689503E0,1.623466094E1,1.682827710E1
4.127272625E0,-4.553509249E0,-1.974586599E0,1.518810056E1,1.597848044E1
4.137258500E0,-5.168069156E0,-2.735078976E0,1.412460196E1,1.528705257E1
4.147244500E0,-5.669117650E0,-3.705768522E0,1.352251533E1,1.512382346E1
4.157230500E0,-5.603604861E0,-4.904945036E0,1.404139491E1,1.589401284E1
4.167216500E0,-4.890587198E0,-5.552365125E0,1.530678032E1,1.700129776E1
4.177202500E0,-3.374514984E0,-5.521291267E0,1.684750177E1,1.804744648E1
4.187188500E0,-4.024654979E-1,-5.492653359E0,1.874114244E1,1.953360282E1
4.197174500E0,2.843722289E0,-4.659696732E0,1.950464847E1,2.025415617E1
4.207160500E0,5.485240844E0,-3.742416531E0,1.949930645E1,2.059894417E1
4.217145500E0,7.038698108E0,-3.183532057E0,1.849355729E1,2.004220070E1
4.227131500E0,7.956672374E0,-3.079297544E0,1.650273707E1,1.857770275E1
4.237117500E0,8.422540510E0,-3.529657111E0,1.413496790E1,1.682839819E1
4.247103500E0,8.589760938E0,-4.243788083E0,1.137678716E1,1.487363494E1
4.257089500E0,8.921095752E0,-4.928982355E0,8.337533689E0,1.316796433E1
4.267075500E0,9.253734494E0,-5.107359855E0,5.229424574E0,1.179252340E1
4.277061500E0,9.589512023E0,-5.094629881E0,2.495830792E0,1.114195521E1
4.287047500E0,9.608006766E0,-4.715301414E0,2.401083094E-1,1.070539646E1
4.297033500E0,9.461480219E0,-4.194680535E0,-1.224607517E0,1.042183363E1
4.307019500E0,8.911686412E0,-3.584717417E0,-1.839225311E0,9.780138210E0
4.317005500E0,8.059455900E0,-2.953240638E0,-1.717509086E0,8.753644791E0
4.326991500E0,7.223271317E0,-2.271135304E0,-1.294129157E0,7.681697363E0
4.336977500E0,6.544641130E0,-1.545717743E0,-1.000973738E0,6.798788075E0
4.346963500E0,5.846521003E0,-9.297140130E-1,-9.590591419E-1,5.997163532E0
4.356949500E0,5.102644660E0,-5.052031234E-1,-1.151703263E0,5.255343293E0
4.366935500E0,4.140832941E0,-3.171906915E-1,-1.327323800E0,4.359919248E0
4.376921500E0,3.249395094E0,-2.602545620E-1,-1.523770950E0,3.598357796E0
4.386907500E0,2.633029860E0,-3.047484744E-1,-1.922641690E0,3.274487585E0
4.396893500E0,2.214830564E0,-5.157299754E-1,-2.352720773E0,3.272116574E0
4.406879500E0,2.064070926E0,-6.866294709E-1,-2.714423686E0,3.478497487E0
4.416865500E0,2.070807503E0,-8.331310205E-1,-2.951076876E0,3.700162934E0
4.426851500E0,2.047945182E0,-1.012106617E0,-2.976484197E0,3.752052432E0
4.436837500E0,1.892894126E0,-1.202488962E0,-3.000544905E0,3.745970849E0
4.446823500E0,1.752581124E0,-1.232864078E0,-2.935174788E0,3.634108621E0
4.456809500E0,1.659936085E0,-1.147141119E0,-2.684292984E0,3.358087160E0
4.466795500E0,1.557380746E0,-1.068387310E0,-2.232148263E0,2.923930933E0
4.476781500E0,1.434605443E0,-9.360289329E-1,-1.739901583E0,2.441618410E0
4.486767500E0,1.144439705E0,-7.193457388E-1,-1.204902400E0,1.810798257E0
4.496753500E0,9.224786684E-1,-4.711649462E-1,-7.310697716E-1,1.267843173E0
4.506739500E0,8.740122673E-1,-1.873052294E-1,-2.800734437E-1,9.367079727E-1
4.516725500E0,9.670208569E-1,1.259590568E-1,2.330665076E-1,1.002653987E0
4.526711500E0,1.142170255E0,2.916129237E-1,6.861403513E-1,1.363957320E0
4.536697500E0,1.320022675E0,3.049894711E-1,1.001604068E0,1.684840986E0
4.546683500E0,1.319713064E0,2.960480916E-1,9.202055633E-1,1.635868370E0
4.556669500E0,1.158633237E0,1.464256272E-1,7.995845211E-1,1.415346900E0
4.566655500E0,9.293140635E-1,-2.308095189E-2,7.807792908E-1,1.213990799E0
4.576641500E0,6.690208733E-1,8.391247820E-3,9.403772879E-1,1.154109521E0
4.586627500E0,4.376981516E-1,1.052361225E-1,1.312498185E0,1.387553891E0
4.596613500E0,2.271786538E-1,1.782205384E-1,1.715912211E0,1.740036614E0
4.606599500E0,7.733819783E-3,3.189865907E-1,2.139898496E0,2.163556754E0
4.616585500E0,-2.579962577E-1,4.675733671E-1,2.623604148E0,2.677402780E0
4.626571500E0,-5.368933877E-1,5.162094471E-1,3.039514843E0,3.129437199E0
4.636557500E0,-8.901410808E-1,5.788999677E-1,3.352356668E0,3.516499900E0
4.646543500E0,-1.315261287E0,6.989742588E-1,3.689318842E0,3.978636800E0
4.656529500E0,-1.612654476E0,5.243835988E-1,3.954277233E0,4.302550529E0
4.666515500E0,-1.955804173E0,2.722615270E-1,4.155229079E0,4.600567900E0
4.676501500E0,-2.256787553E0,2.260423936E-2,4.441357899E0,4.981893314E0
4.686487500E0,-2.415457596E0,-1.963449700E-1,4.647463480E0,5.241364664E0
4.696473500E0,-2.451369295E0,-1.404792830E-1,4.704659189E0,5.306860082E0
4.706459500E0,-2.284812672E0,1.160210377E-1,4.805157039E0,5.321969936E0
4.716445500E0,-1.844662345E0,3.425434877E-1,5.031582279E0,5.370003299E0
4.726431500E0,-1.454520621E0,6.854072566E-1,5.273056498E0,5.512761393E0
4.736417500E0,-1.127033275E0,8.823844568E-1,5.436499039E0,5.621772686E0
4.746403500E0,-7.073714451E-1,9.324747759E-1,5.566757462E0,5.688468354E0
4.756389500E0,-2.510663570E-1,9.786569622E-1,5.316879040E0,5.412024251E0
4.766375500E0,2.878378882E-1,9.801241748E-1,4.906407425E0,5.011619286E0
4.776361500E0,7.626397660E-1,9.315000451E-1,4.451989891E0,4.611889606E0
4.786347500E0,9.868431372E-1,7.942813888E-1,4.185687225E0,4.373181890E0
4.796333500E0,1.058344864E0,3.507154101E-1,3.871582401E0,4.028926090E0
4.806319500E0,8.215351879E-1,-3.514550829E-1,3.185266634E0,3.308226756E0
4.816305500E0,3.517633773E-1,-1.062220691E0,2.407023280E0,2.654394722E0
4.826291500E0,2.813140035E-1,-1.534253839E0,1.791224349E0,2.375196219E0
4.836277500E0,5.180255192E-1,-1.827168353E0,1.531885716E0,2.439993540E0
4.846263500E0,8.084684882E-1,-2.011560883E0,1.470260156E0,2.619477698E0
4.856249500E0,1.276573623E0,-2.204934152E0,1.225930742E0,2.827415960E0
4.866235500E0,1.752257480E0,-2.485379478E0,8.782231396E-1,3.165247749E0
4.876221500E0,2.053928638E0,-2.896543989E0,6.124642646E-1,3.603290497E0
4.886207500E0,2.160869535E0,-3.438522407E0,1.830014777E-1,4.065253133E0
4.896193500E0,2.378545586E0,-3.663783467E0,-2.081427509E-1,4.373112370E0
4.906179500E0,2.514412658E0,-3.668750677E0,-3.158274132E-1,4.458895547E0
4.916164500E0,2.447656751E0,-4.055199591E0,-3.151251626E-1,4.747101343E0
4.926150500E0,2.385984998E0,-4.577880444E0,-4.506305847E-1,5.181986269E0
4.936136500E0,2.701601327E0,-4.699098487E0,-5.618168521E-1,5.449386616E0
4.946122500E0,3.423472844E0,-4.583952777E0,-6.118602473E-1,5.753882371E0
4.956108500E0,3.609463418E0,-4.878388737E0,-6.998351151E-1,6.108737351E0
4.966094500E0,3.621221584E0,-5.556394442E0,-1.656026782E0,6.835875193E0
4.976080500E0,3.698469735E0,-6.226048568E0,-2.294093081E0,7.596395344E0
4.986066500E0,3.787195970E0,-6.352908005E0,-2.191143055E0,7.713844782E0
4.996052500E0,3.898143963E0,-6.520609658E0,-2.020080861E0,7.860954354E0
5.006038500E0,3.797321008E0,-7.186094720E0,-2.366506169E0,8.465220353E0
5.016024500E0,2.535675473E0,-7.968620574E0,-3.154138981E0,8.937402121E0
5.026010500E0,5.089217699E-1,-8.862869763E0,-4.022120723E0,9.746123173E0
5.035996500E0,-9.562758672E-1,-9.797804462E0,-4.842223123E0,1.097080492E1
5.045982500E0,-1.543676627E0,-1.032656759E1,-6.427565839E0,1.226109858E1
5.055968500E0,-2.151582987E0,-1.066881214E1,-8.023201994E0,1.352126592E1
5.065954500E0,-2.834917844E0,-1.074104279E1,-9.304419329E0,1.449065142E1
5.075940500E0,-3.147021750E0,-1.096316565E1,-9.974912531E0,1.515234724E1
5.085926500E0,-4.031446447E0,-1.158394232E1,-9.775925936E0,1.568467430E1
5.095912500E0,-5.681994388E0,-1.194969969E1,-8.731594509E0,1.585311091E1
5.105898500E0,-7.352870175E0,-1.195750923E1,-6.624170280E0,1.552180269E1
5.115884500E0,-8.638481108E0,-1.211352464E1,-4.308793334E0,1.548956213E1
5.125870500E0,-1.015231472E1,-1.269984366E1,-2.761852791E0,1.649191784E1
5.135856417E0,-1.178197816E1,-1.330893993E1,-2.131049320E0,1.790207425E1
5.145842417E0,-1.322012424E1,-1.397909750E1,-1.329135852E0,1.928609483E1
5.155828417E0,-1.428807374E1,-1.494781976E1,2.724229467E-1,2.067995601E1
5.165814417E0,-1.461457056E1,-1.526758995E1,2.771692486E0,2.131589207E1
5.175800417E0,-1.459502449E1,-1.583260172E1,5.020764345E0,2.211094959E1
5.185786417E0,-1.455413140E1,-1.658054714E1,6.724902602E0,2.306429273E1
5.195772417E0,-1.421428304E1,-1.683155992E1,8.234244379E0,2.351914183E1
5.205758417E0,-1.399112640E1,-1.671366602E1,9.184731503E0,2.365285485E1
5.215744417E0,-1.390841636E1,-1.631649974E1,9.749037514E0,2.355240841E1
5.225730417E0,-1.393515217E1,-1.523697276E1,1.088832831E1,2.334329664E1
5.235716417E0,-1.388121979E1,-1.237846783E1,1.327305908E1,2.284926314E1
5.245702417E0,-1.292297809E1,-8.863711177E0,1.657949230E1,2.281333609E1
5.255688417E0,-1.064399188E1,-5.472476957E0,2.117448696E1,2.432285890E1
5.265674417E0,-7.296658552E0,-2.045593725E0,2.479901222E1,2.593099857E1
5.275660417E0,-3.969042330E0,8.778591505E-1,2.652775556E1,2.683739460E1
5.285646417E0,-1.485591848E0,2.202841726E0,2.629616840E1,2.643005803E1
5.295632417E0,1.272551470E-1,1.757224251E0,2.440749903E1,2.447100406E1
5.305618417E0,8.576454721E-1,-7.923971236E-2,2.210886500E1,2.212563550E1
5.315604417E0,1.408743501E0,-2.951395549E0,1.917174075E1,1.944867444E1
5.325590417E0,1.794986739E0,-5.349881895E0,1.595810635E1,1.692644003E1
5.335576417E0,2.110580118E0,-7.281306102E0,1.277800457E1,1.485763668E1
5.345562417E0,2.769640113E0,-8.152396224E0,9.856859586E0,1.308778635E1
5.355548417E0,3.292303424E0,-8.075522879E0,8.097068700E0,1.190024593E1
5.365534417E0,3.646990556E0,-7.632481688E0,8.067325668E0,1.168918561E1
5.375520417E0,4.242316631E0,-6.884580706E0,8.678076698E0,1.186185976E1
5.385506417E0,4.849022558E0,-5.657176466E0,9.300089466E0,1.191672478E1
5.395492417E0,5.531756029E0,-4.379254037E0,9.862055422E0,1.212593616E1
5.405478417E0,6.219560498E0,-3.039493793E0,1.038434393E1,1.248022652E1
5.415464417E0,6.911151624E0,-2.033872688E0,1.079296841E1,1.297647186E1
5.425450417E0,7.102106484E0,-1.589063007E0,1.060473952E1,1.286178596E1
5.435436417E0,6.669677989E0,-1.470820904E0,9.305732614E0,1.154316153E1
5.445422417E0,6.385673463E0,-1.692741742E0,7.117315092E0,9.710735003E0
5.455408417E0,6.047123770E0,-2.486176161E0,4.820170934E0,8.122981326E0
5.465394417E0,5.527603337E0,-2.990266962E0,2.422875082E0,6.735459807E0
5.475380417E0,5.201371973E0,-3.180991734E0,9.228134215E-2,6.097663049E0
5.485366417E0,5.028266323E0,-3.291839448E0,-1.580969583E0,6.214429498E0
5.495352417E0,5.040103426E0,-3.232039096E0,-2.654054108E0,6.549253581E0
5.505338417E0,5.154888947E0,-3.073245384E0,-3.263405315E0,6.831363809E0
5.515324417E0,5.053009400E0,-2.807121935E0,-3.406013643E0,6.709229948E0
5.525309417E0,4.850401039E0,-2.398086396E0,-3.181782863E0,6.277017667E0
5.535295417E0,4.714259732E0,-1.844597148E0,-2.993618293E0,5.881201744E0
5.545281417E0,4.370917076E0,-1.264866620E0,-2.867942918E0,5.378652270E0
5.555267417E0,3.926126983E0,-7.848160623E-1,-2.739697106E0,4.851427581E0
5.565253417E0,3.524678791E0,-5.505231012E-1,-2.653178195E0,4.445873458E0
5.575239417E0,3.141419533E0,-5.603816530E-1,-2.659415420E0,4.153917989E0
5.585225417E0,2.741473491E0,-8.024008325E-1,-2.610502292E0,3.869657118E0
5.595211417E0,2.422463438E0,-1.125599611E0,-2.546185259E0,3.690306622E0
5.605197417E0,2.200319822E0,-1.364368250E0,-2.413940536E0,3.539776399E0
5.615183417E0,1.959875590E0,-1.519568849E0,-2.091041501E0,3.243864419E0
5.625169417E0,1.805681882E0,-1.566785115E0,-1.622588310E0,2.889307093E0
5.635155417E0,1.754526931E0,-1.407394402E0,-1.130249829E0,2.517258117E0
5.645141417E0,1.763334007E0,-1.083649420E0,-6.849697387E-1,2.180097803E0
5.655127417E0,1.751298975E0,-7.361887166E-1,-2.525903606E-1,1.916461275E0
5.665113417E0,1.729241816E0,-3.736132528E-1,2.317239869E-1,1.784253381E0
5.675099417E0,1.660551943E0,-2.835570686E-2,6.005955863E-1,1.766055452E0
5.685085417E0,1.503046664E0,2.525557159E-1,9.397446191E-1,1.790545619E0
5.695071417E0,1.291814537E0,3.767537192E-1,1.138827109E0,1.762854318E0
5.705057417E0,1.035880446E0,3.320480280E-1,1.074494289E0,1.529000382E0
5.715043417E0,7.122490463E-1,9.849620149E-2,8.500968629E-1,1.113402390E0
5.725029417E0,4.333327666E-1,-1.977632853E-1,5.864529258E-1,7.555227580E-1
5.735015417E0,2.301928934E-1,-3.501038644E-1,3.894988221E-1,5.720758835E-1
5.745001417E0,1.178623259E-1,-3.022226235E-1,3.662906384E-1,4.892840421E-1
5.754987417E0,-3.660473943E-2,-4.884610467E-2,7.349914992E-1,7.375217643E-1
5.764973417E0,-1.536060628E-1,2.591461857E-1,1.347198486E0,1.380469243E0
5.774959417E0,-8.922865704E-2,5.200748221E-1,1.873495842E0,1.946388000E0
5.784945417E0,-1.892243770E-1,6.711847086E-1,2.220595919E0,2.327518209E0
5.794931417E0,-4.368989834E-1,6.888158179E-1,2.518347834E0,2.647153899E0
5.804917417E0,-6.477982579E-1,6.970251625E-1,2.779923027E0,2.938274782E0
5.814903417E0,-8.477521294E-1,7.462243659E-1,3.120346752E0,3.318448181E0
5.824889417E0,-9.846250691E-1,8.411022373E-1,3.638150443E0,3.861745479E0
5.834875417E0,-9.586404812E-1,9.760554629E-1,4.224454849E0,4.440461081E0
5.844861417E0,-7.522624201E-1,1.071278466E0,4.689123137E0,4.868409606E0
5.854847417E0,-4.864069198E-1,1.139179477E0,5.105726143E0,5.253832983E0
5.864833417E0,-4.007555893E-1,1.209254483E0,5.559078314E0,5.703179214E0
5.874819417E0,-2.304643504E-1,1.051759876E0,5.935614443E0,6.032481370E0
5.884805417E0,-1.842896193E-3,7.705074871E-1,6.062228297E0,6.110998045E0
5.894791417E0,2.218472356E-1,6.024013527E-1,6.254391777E0,6.287250598E0
5.904777417E0,3.090098521E-1,6.550148915E-1,6.481850805E0,6.522186861E0
5.914763417E0,3.582982621E-1,6.984310524E-1,6.389665942E0,6.437702573E0
5.924749417E0,5.503538243E-1,6.374660817E-1,6.143790523E0,6.201242967E0
5.934735417E0,6.843995621E-1,6.334408584E-1,5.988155184E0,6.060334363E0
5.944721417E0,9.110656343E-1,5.612876791E-1,5.823726802E0,5.921222705E0
5.954707417E0,1.280849546E0,2.722092310E-1,5.465128176E0,5.619813111E0
5.964693417E0,1.589155831E0,-3.418925464E-2,4.902693273E0,5.153929229E0
5.974679417E0,1.929933168E0,-7.350262901E-1,4.274042162E0,4.746824420E0
5.984665417E0,2.176626319E0,-1.420003630E0,3.760055534E0,4.570790966E0
5.994651417E0,2.527808337E0,-1.721548634E0,3.522801250E0,4.665155232E0
6.004637417E0,2.652225099E0,-2.440834805E0,3.446218513E0,4.986822090E0
6.014623417E0,2.629282087E0,-3.437982709E0,3.987439132E0,5.884940122E0
6.024609417E0,1.542555131E0,-4.783297808E0,4.806021257E0,6.953938062E0
6.034595417E0,2.341453189E-1,-6.110019929E0,4.307929700E0,7.479667497E0
6.044581417E0,-9.553952765E-1,-6.914535992E0,3.378879054E0,7.755024937E0
6.054566417E0,-1.149325200E0,-7.670245931E0,1.816101328E0,7.965666644E0
6.064552417E0,-1.483516964E0,-9.191313128E0,-4.048151650E-1,9.319062985E0
6.074538417E0,-1.906902739E0,-9.973408628E0,-2.492108454E0,1.045541784E1
6.084524417E0,-2.617145314E0,-9.973685786E0,-3.647500725E0,1.093746402E1
6.094510417E0,-2.811583945E0,-9.920915834E0,-4.352093135E0,1.119242109E1
6.104496417E0,-2.492393214E0,-9.715840532E0,-5.255862175E0,1.132403057E1
6.114482417E0,-2.786037460E0,-9.655760391E0,-6.016721756E0,1.171309755E1
6.124468417E0,-3.145804945E0,-9.798096823E0,-6.664981506E0,1.226053704E1
6.134454500E0,-3.557981608E0,-9.923335412E0,-7.597574980E0,1.299442051E1
6.144440500E0,-4.674321495E0,-9.908867061E0,-8.694904400E0,1.398700434E1
6.154426500E0,-5.419787112E0,-9.803333005E0,-9.809626948E0,1.488986941E1
6.164412500E0,-5.649889666E0,-9.702756218E0,-1.099436873E1,1.571435253E1
6.174398500E0,-6.257467412E0,-9.978103942E0,-1.130382560E1,1.632467243E1
6.184384500E0,-7.263206046E0,-1.016203513E1,-1.028624168E1,1.618109662E1
6.194370500E0,-7.371231601E0,-1.025646766E1,-8.243851354E0,1.508281371E1
6.204356500E0,-6.977469574E0,-1.045450116E1,-5.747257501E0,1.382073243E1
6.214342500E0,-7.142615409E0,-1.050315467E1,-3.642234138E0,1.321359461E1
6.224328500E0,-8.228173800E0,-1.067471900E1,-2.920306488E0,1.379060041E1
6.234314500E0,-9.968665366E0,-1.115464676E1,-3.292302840E0,1.531795324E1
6.244300500E0,-1.198301245E1,-1.244237205E1,-3.569459692E0,1.763933820E1
6.254286500E0,-1.332476133E1,-1.420879017E1,-3.109300777E0,1.972578855E1
6.264272500E0,-1.430274557E1,-1.547493104E1,-1.650152231E0,2.113681679E1
6.274258500E0,-1.539354716E1,-1.703723807E1,6.759977710E-1,2.297141154E1
6.284244500E0,-1.611839023E1,-1.795868324E1,4.070720440E0,2.447217956E1
6.294230500E0,-1.658559445E1,-1.612333931E1,9.704297544E0,2.508420628E1
6.304216500E0,-1.671717552E1,-1.314324387E1,1.480063013E1,2.590882995E1
6.314202500E0,-1.537673290E1,-1.066715738E1,1.818959096E1,2.609776581E1
6.324188500E0,-1.317548659E1,-8.964712472E0,2.052038233E1,2.598163982E1
6.334174500E0,-9.529683897E0,-7.491257397E0,2.110013376E1,2.433412126E1
6.344160500E0,-4.389266809E0,-4.877379215E0,1.983613180E1,2.089321938E1
6.354146500E0,-1.423650831E0,-1.691509587E0,1.824204282E1,1.837553027E1
6.364132500E0,-1.675720205E0,1.514142340E-1,1.695402985E1,1.703731471E1
6.374118500E0,-3.027932678E0,-1.393742323E-2,1.638548168E1,1.666291033E1
6.384104500E0,-4.779490101E0,-5.447301185E-1,1.486631425E1,1.562522178E1
6.394090500E0,-5.815499185E0,-1.713690854E0,1.315656968E1,1.448627257E1
6.404076500E0,-5.590382552E0,-3.032918892E0,1.263349882E1,1.414412480E1
6.414062500E0,-4.235294710E0,-3.939592828E0,1.298177652E1,1.421212984E1
6.424048500E0,-2.425317902E0,-4.509101400E0,1.367967679E1,1.460642734E1
6.434034500E0,-1.254095026E0,-4.859785236E0,1.451458084E1,1.535784242E1
6.444020500E0,-6.260038579E-1,-5.108460885E0,1.519171414E1,1.603983890E1
6.454006500E0,-9.197486765E-1,-5.522011060E0,1.562293927E1,1.659562519E1
6.463992500E0,-1.049357766E0,-6.154938240E0,1.625836906E1,1.741605527E1
6.473978500E0,6.575237855E-2,-7.128725933E0,1.698718006E1,1.842246843E1
6.483964500E0,1.956053265E0,-8.006266118E0,1.715885548E1,1.903556573E1
6.493950500E0,4.413795878E0,-8.538063950E0,1.677806725E1,1.933607175E1
6.503936500E0,6.782590063E0,-8.771024038E0,1.576790344E1,1.927592202E1
6.513922500E0,8.640635222E0,-9.023026754E0,1.421904619E1,1.892767453E1
6.523908500E0,1.003159427E1,-9.325654662E0,1.203742664E1,1.823459236E1
6.533894500E0,1.125562701E1,-9.424274386E0,9.280176773E0,1.736743412E1
6.543880500E0,1.197993330E1,-9.329951196E0,6.311217942E0,1.644379102E1
6.553866500E0,1.213276783E1,-9.002986007E0,3.446112093E0,1.549624150E1
6.563852500E0,1.169782737E1,-8.715798841E0,7.581733704E-1,1.460750292E1
6.573837500E0,1.074153513E1,-7.979998087E0,-1.426681443E0,1.345720500E1
6.583823500E0,9.522536845E0,-6.978315666E0,-3.093926108E0,1.220442445E1
6.593809500E0,8.315210774E0,-6.027544953E0,-3.965648898E0,1.100910530E1
6.603795500E0,7.319141096E0,-5.104101786E0,-4.243030284E0,9.880535786E0
6.613781500E0,6.684485478E0,-4.070112914E0,-4.240318345E0,8.901037294E0
6.623767500E0,6.294733472E0,-3.116785798E0,-4.233292916E0,8.201145780E0
6.633753500E0,5.681925391E0,-2.508062290E0,-4.276940627E0,7.541012778E0
6.643739500E0,4.894412447E0,-2.201212691E0,-4.408652667E0,6.945273850E0
6.653725500E0,4.020301361E0,-1.971575283E0,-4.581277092E0,6.406093343E0
6.663711500E0,3.160532911E0,-1.795059099E0,-4.685268652E0,5.929835394E0
6.673697500E0,2.484305930E0,-1.722763540E0,-4.687540296E0,5.577878108E0
6.683683500E0,1.996989768E0,-1.783781866E0,-4.641119251E0,5.358155819E0
6.693669500E0,1.684980586E0,-1.876323994E0,-4.659522192E0,5.298197653E0
6.703655500E0,1.476414936E0,-1.945639520E0,-4.518625930E0,5.136467122E0
6.713641500E0,1.202430928E0,-1.889710317E0,-4.105476875E0,4.676728086E0
6.723627500E0,9.356113686E-1,-1.592818235E0,-3.498752822E0,3.956476952E0
6.733613500E0,7.245928109E-1,-1.167497177E0,-2.750046093E0,3.074221514E0
6.743599500E0,7.055440441E-1,-6.647474357E-1,-1.863873079E0,2.100881817E0
6.753585500E0,9.014952041E-1,-2.035445005E-1,-9.762096101E-1,1.344287607E0
6.763571500E0,1.127818556E0,-1.396914437E-2,-2.224070334E-1,1.149623731E0
6.773557500E0,1.131284201E0,1.007013327E-1,2.481581712E-1,1.162552012E0
6.783543500E0,9.590049089E-1,7.649415225E-2,4.681660920E-1,1.069916474E0
6.793529500E0,7.290760173E-1,-1.606782702E-1,4.308573478E-1,8.619787699E-1
6.803515500E0,5.491114372E-1,-4.485479526E-1,2.413835871E-1,7.489891003E-1
6.813501500E0,5.068100479E-1,-5.968812887E-1,8.810409129E-2,7.879632151E-1
6.823487500E0,5.356203027E-1,-6.448563775E-1,2.629756004E-1,8.785698736E-1
6.833473500E0,6.495177779E-1,-5.214698946E-1,7.060103595E-1,1.091904219E0
6.843459500E0,9.262679565E-1,-1.317573568E-1,1.222169813E0,1.539165807E0
6.853445500E0,1.171490679E0,3.392042890E-1,1.773729479E0,2.152572003E0
6.863431500E0,1.186836551E0,5.833853303E-1,2.513059613E0,2.839786622E0
6.873417500E0,1.053187473E0,7.807279084E-1,3.157025751E0,3.418413596E0
6.883403500E0,9.144790927E-1,9.320395969E-1,3.558856351E0,3.790834783E0
6.893389500E0,7.168132366E-1,9.435939874E-1,3.828110692E0,4.007321088E0
6.903375500E0,4.068907803E-1,9.156549677E-1,3.943489121E0,4.068794732E0
6.913361500E0,1.060057805E-1,8.144651002E-1,4.020917366E0,4.103945307E0
6.923347500E0,-9.087377116E-2,8.006946149E-1,4.177370145E0,4.254384943E0
6.933333500E0,-9.950660035E-2,8.396831180E-1,4.378058281E0,4.458964410E0
6.943319500E0,1.086183165E-1,6.673156790E-1,4.535607414E0,4.585721619E0
6.953305500E0,3.648636255E-1,4.972017570E-1,4.780095872E0,4.819714888E0
6.963291500E0,6.247169589E-1,4.029328001E-1,5.048702926E0,5.103138971E0
6.973277500E0,8.678085908E-1,2.786674806E-1,5.154073845E0,5.234044757E0
6.983263500E0,1.112173235E0,1.380846289E-1,5.229149755E0,5.347897141E0
6.993249500E0,1.441690222E0,2.250862277E-1,5.419999366E0,5.612978499E0
7.003235500E0,1.920156915E0,3.919154763E-1,5.626504896E0,5.958033037E0
7.013221500E0,2.432417592E0,5.317174324E-1,6.008056183E0,6.503546561E0
7.023207500E0,3.169807473E0,8.781374779E-1,6.654662924E0,7.423162633E0
7.033192500E0,4.314829999E0,9.711543998E-1,7.017376236E0,8.294845872E0
7.043178500E0,5.818250885E0,3.632652891E-1,7.033983498E0,9.135695315E0
7.053164500E0,7.376126305E0,-3.156908807E-1,6.548043625E0,9.868321809E0
7.063150500E0,8.635561008E0,-7.656048891E-1,5.713637765E0,1.038290524E1
7.073136500E0,9.320099223E0,-1.847487719E0,5.188278887E0,1.082569620E1
7.083122500E0,9.158388627E0,-3.327752462E0,4.341850567E0,1.066778726E1
7.093108500E0,8.521654909E0,-4.540720219E0,3.454622716E0,1.025529915E1
7.103094500E0,7.805983779E0,-5.523481634E0,3.209495156E0,1.008677804E1
7.113080500E0,7.089875278E0,-6.015793219E0,3.580889829E0,9.963878335E0
7.123066500E0,5.798607749E0,-6.720190331E0,3.713833294E0,9.621713343E0
7.133052250E0,2.566875046E0,-8.007758912E0,3.422016887E0,9.078725124E0
7.143038250E0,-2.078806202E0,-9.289704226E0,2.847820018E0,9.936303069E0
7.153024250E0,-6.509446739E0,-1.017233324E1,2.392764553E0,1.231156297E1
7.163010250E0,-9.228604916E0,-1.023538260E1,1.537081260E0,1.386696883E1
7.172996250E0,-1.009200536E1,-8.705474412E0,1.354832757E0,1.339662005E1
7.182982250E0,-9.491820837E0,-6.875542665E0,1.886220553E0,1.187120793E1
7.192968250E0,-8.222189174E0,-5.668342309E0,1.831167848E0,1.015321009E1
7.202954250E0,-7.314531151E0,-5.274874982E0,9.310917632E-1,9.066068823E0
7.212940250E0,-7.377178220E0,-5.221373543E0,-6.223355341E-1,9.059404046E0
7.222926250E0,-7.837780938E0,-5.169165509E0,-2.254551870E0,9.655779939E0
7.232912250E0,-8.082345995E0,-5.159687172E0,-3.630463693E0,1.025314367E1
7.242898250E0,-8.165782839E0,-5.460490749E0,-4.834599524E0,1.094853055E1
7.252884250E0,-8.667514873E0,-6.034755739E0,-5.721312236E0,1.201155713E1
7.262870250E0,-9.210614787E0,-6.580189278E0,-6.560749040E0,1.308349126E1
7.272856250E0,-9.530610096E0,-6.779640727E0,-6.944134598E0,1.360209772E1
7.282842250E0,-9.838209307E0,-7.429145349E0,-5.810787499E0,1.362893299E1
7.292828250E0,-1.027069277E1,-8.328124934E0,-4.178296344E0,1.386733410E1
7.302814250E0,-1.104374847E1,-8.823363635E0,-2.878558538E0,1.442574869E1
7.312800250E0,-1.200993537E1,-9.314830881E0,-2.388993976E0,1.538544488E1
7.322786250E0,-1.276745853E1,-1.027627218E1,-2.383968878E0,1.656179564E1
7.332772250E0,-1.280031754E1,-1.123759536E1,-2.523063029E0,1.721910351E1
7.342758250E0,-1.235511756E1,-1.203671094E1,-2.424206493E0,1.741861410E1
7.352744250E0,-1.150716019E1,-1.291653797E1,-8.242246878E-1,1.731851711E1
7.362730250E0,-1.115176175E1,-1.339626342E1,1.516720963E0,1.749634551E1
7.372716250E0,-1.114746872E1,-1.195890672E1,4.404425715E0,1.693164123E1
7.382702250E0,-1.034830871E1,-8.958881629E0,8.546091592E0,1.613644120E1
7.392688250E0,-9.529669864E0,-7.837418411E0,1.074022769E1,1.635824642E1
7.402674250E0,-8.925967067E0,-8.355800391E0,1.107541114E1,1.649718219E1
7.412660250E0,-8.400289516E0,-8.576654404E0,1.212699312E1,1.706422652E1
7.422646250E0,-6.970225459E0,-5.828411007E0,1.472267973E1,1.730062763E1
7.432632250E0,-4.665567629E0,-3.890961244E0,1.653902957E1,1.761949488E1
7.442618250E0,-2.984496052E0,-3.157225142E0,1.713334057E1,1.767559465E1
7.452604250E0,-1.447412454E0,-1.778753407E0,1.765263413E1,1.780096790E1
7.462590250E0,-1.493833499E0,-1.090509520E0,1.758347794E1,1.768048206E1
7.472576250E0,-2.718829856E0,-1.769952470E0,1.716053129E1,1.746449546E1
7.482561250E0,-3.256458823E0,-2.575068165E0,1.657515483E1,1.708716647E1
7.492547250E0,-2.836788953E0,-3.568613892E0,1.647825361E1,1.709722839E1
7.502533250E0,-1.417889569E0,-4.321891097E0,1.649066374E1,1.710646498E1
7.512519250E0,6.812175804E-1,-4.243817027E0,1.651520567E1,1.706534672E1
7.522505250E0,2.443839689E0,-3.845121704E0,1.608191764E1,1.671482540E1
7.532491250E0,3.533047911E0,-3.484411648E0,1.553788334E1,1.631101991E1
7.542477250E0,3.896093345E0,-3.467215279E0,1.506737193E1,1.594449190E1
7.552463250E0,3.329837286E0,-3.523403513E0,1.484717748E1,1.561860646E1
7.562449250E0,2.622911253E0,-3.857709882E0,1.430005000E1,1.504170931E1
7.572435250E0,2.151830032E0,-4.414268626E0,1.382625363E1,1.467247182E1
7.582421250E0,2.167448529E0,-4.791983554E0,1.365843503E1,1.463604410E1
7.592407250E0,2.953806649E0,-4.867079052E0,1.343595198E1,1.459240343E1
7.602393250E0,4.216279272E0,-4.769699815E0,1.260669284E1,1.412288043E1
7.612379250E0,5.504403924E0,-5.144593170E0,1.088790380E1,1.324053438E1
7.622365250E0,6.309625161E0,-5.835058122E0,8.706463761E0,1.223363332E1
7.632351250E0,6.737465930E0,-6.450481077E0,6.075935925E0,1.113189789E1
7.642337250E0,7.051852589E0,-6.914306781E0,3.274924915E0,1.040487369E1
7.652323250E0,7.772626584E0,-7.086634167E0,3.304834592E-1,1.052346555E1
7.662309250E0,8.729399464E0,-7.133114854E0,-2.174227499E0,1.148089751E1
7.672295250E0,9.914286261E0,-7.101775532E0,-4.225389234E0,1.290667277E1
7.682281250E0,1.064799722E1,-6.792233291E0,-5.813322267E0,1.390356047E1
7.692267250E0,1.012060643E1,-6.196335942E0,-6.787064937E0,1.367060731E1
7.702253250E0,8.919988289E0,-5.443056107E0,-6.939893028E0,1.254412875E1
7.712239250E0,7.602945063E0,-4.704289060E0,-6.317027736E0,1.094714340E1
7.722225250E0,6.438490777E0,-3.802280032E0,-5.414856155E0,9.232126738E0
7.732211250E0,5.514359393E0,-2.884544917E0,-4.572006916E0,7.722176256E0
7.742197250E0,4.723235793E0,-2.090414241E0,-3.834553154E0,6.432929810E0
7.752183250E0,3.958896534E0,-1.379722454E0,-3.086240528E0,5.205898233E0
7.762169250E0,3.280707811E0,-9.730462664E-1,-2.494560192E0,4.234701091E0
7.772155250E0,2.727381701E0,-8.976658626E-1,-2.372412441E0,3.724614844E0
7.782141250E0,2.257606894E0,-1.195110653E0,-2.590959728E0,3.638426950E0
7.792127250E0,1.863165566E0,-1.634623780E0,-2.940284670E0,3.845602004E0
7.802113250E0,1.685884127E0,-1.943408661E0,-3.231442680E0,4.130528333E0
7.812099250E0,1.574618630E0,-2.092364141E0,-3.265461196E0,4.185767355E0
7.822085250E0,1.384688494E0,-2.066238781E0,-3.086835775E0,3.964247725E0
7.832071250E0,1.316006368E0,-1.760479396E0,-2.747366315E0,3.518406192E0
7.842057250E0,1.399378893E0,-1.257171246E0,-2.275154534E0,2.952129567E0
7.852043250E0,1.538854574E0,-8.562232831E-1,-1.607487291E0,2.384367233E0
7.862029250E0,1.543248464E0,-4.964968751E-1,-8.390941572E-1,1.825432544E0
7.872015250E0,1.403402800E0,-2.294188683E-1,-2.166212136E-1,1.438435674E0
7.882001250E0,1.247381399E0,-1.117876536E-1,8.725741446E-2,1.255416540E0
7.891987250E0,1.068278406E0,4.430523008E-2,1.755076861E-1,1.083505724E0
7.901972250E0,7.986689933E-1,7.115791015E-2,1.709380871E-1,8.198508636E-1
7.911958250E0,6.257032380E-1,3.084844798E-2,1.267863464E-1,6.391642562E-1
7.921944250E0,5.305273779E-1,-4.237119041E-2,6.517481983E-2,5.361924781E-1
7.931930250E0,4.159099643E-1,-1.282327283E-1,-1.023631114E-1,4.471050632E-1
7.941916250E0,4.227678712E-1,-1.682264408E-1,-7.990571022E-2,4.619715693E-1
7.951902250E0,4.794642283E-1,-1.757928110E-1,7.640264332E-2,5.163588118E-1
7.961888250E0,6.053634059E-1,-1.342818191E-1,2.919432914E-1,6.853665775E-1
7.971874250E0,7.111743280E-1,-4.233121008E-2,5.581699437E-1,9.050494695E-1
7.981860250E0,5.799059446E-1,6.684419990E-2,8.758795756E-1,1.052579727E0
7.991846250E0,2.748222055E-1,2.196688554E-1,1.262953557E0,1.311042844E0
8.001832250E0,-1.071527119E-1,6.382010767E-1,1.780454362E0,1.894412852E0
8.011818250E0,-6.172595662E-1,1.061562148E0,2.683607106E0,2.951215116E0
8.021804250E0,-1.068914144E0,1.428702094E0,3.762976218E0,4.164583669E0
8.031790250E0,-1.472426404E0,1.844566743E0,4.977963311E0,5.509136476E0
8.041776250E0,-1.758390478E0,2.192751770E0,6.139822018E0,6.752592970E0
8.051762250E0,-1.937864623E0,2.462037393E0,7.158191223E0,7.813875415E0
8.061748250E0,-1.985543405E0,2.649296814E0,8.045948247E0,8.700485010E0
8.071734250E0,-1.792467759E0,2.474665333E0,8.682578470E0,9.204568325E0
8.081720250E0,-1.451428175E0,1.884645898E0,8.855533846E0,9.169460922E0
8.091706250E0,-1.248003689E0,1.136200540E0,8.404162127E0,8.571954615E0
8.101692250E0,-1.299755348E0,3.316828693E-1,7.641972304E0,7.758809070E0
8.111678250E0,-1.467099736E0,-4.946564640E-1,6.845886172E0,7.018776541E0
8.121664250E0,-1.455165862E0,-1.114341894E0,6.448735099E0,6.704136776E0
8.131650250E0,-1.168624520E0,-1.141319046E0,6.318700039E0,6.526428014E0
8.141637000E0,-4.482176580E-1,-8.705989552E-1,6.334077632E0,6.409319859E0
8.151623000E0,3.302032680E-1,-4.685596097E-1,6.809189047E0,6.833274309E0
8.161609000E0,1.121874204E0,-9.043683797E-2,7.654187722E0,7.736495992E0
8.171595000E0,2.010918566E0,5.224662602E-2,7.996951504E0,8.246075221E0
8.181581000E0,2.702820764E0,-3.420457435E-1,7.942173618E0,8.396449080E0
8.191567000E0,2.869777189E0,-1.277734149E0,7.955226942E0,8.553003062E0
8.201553000E0,2.542531918E0,-3.206125991E0,7.818783334E0,8.824799446E0
8.211539000E0,2.447838454E0,-5.020898831E0,6.737426754E0,8.751814522E0
8.221525000E0,2.705771854E0,-6.450734847E0,5.278172227E0,8.763120645E0
8.231511000E0,3.089140747E0,-7.367109899E0,4.099049031E0,8.978825189E0
8.241497000E0,3.450206606E0,-8.693692857E0,2.892128171E0,9.790231176E0
8.251483000E0,3.824076698E0,-1.044884807E1,1.325593609E0,1.120531959E1
8.261469000E0,3.875507930E0,-1.180484779E1,-6.214151824E-1,1.244026325E1
8.271455000E0,3.998292149E0,-1.213141010E1,-3.066017348E0,1.313613008E1
8.281441000E0,4.176125858E0,-1.247376926E1,-4.523811241E0,1.391042109E1
8.291427000E0,4.519657379E0,-1.299522863E1,-6.359920571E0,1.515756773E1
8.301412000E0,5.536862987E0,-1.208343253E1,-8.222829444E0,1.562949511E1
8.311398000E0,6.347282984E0,-1.135810648E1,-8.120500247E0,1.533744139E1
8.321384000E0,6.108845224E0,-1.130727663E1,-7.422949054E0,1.484158575E1
8.331370000E0,5.252398869E0,-1.140850714E1,-6.670507709E0,1.422101973E1
8.341356000E0,4.486748080E0,-1.153320837E1,-6.102827269E0,1.379819931E1
8.351342000E0,3.494238186E0,-1.176389857E1,-5.771945030E0,1.356150284E1
8.361328000E0,2.358721186E0,-1.208897218E1,-5.562828133E0,1.351487591E1
8.371314000E0,1.324807743E0,-1.248573032E1,-6.298455225E0,1.404703226E1
8.381300000E0,3.303869802E-1,-1.311738983E1,-7.423239661E0,1.507579379E1
8.391286000E0,-1.240559306E0,-1.395329257E1,-8.085535067E0,1.617433888E1
8.401272000E0,-3.304479082E0,-1.469303786E1,-8.489851318E0,1.728821908E1
8.411258000E0,-5.521642100E0,-1.506508333E1,-8.203814884E0,1.802076152E1
8.421244000E0,-7.211366386E0,-1.516875446E1,-6.945573013E0,1.817514516E1
8.431230000E0,-8.676661672E0,-1.542386731E1,-5.155982376E0,1.843269635E1
8.441216000E0,-1.012518363E1,-1.596175735E1,-3.871468381E0,1.929469639E1
8.451202000E0,-1.167246682E1,-1.659814258E1,-2.900330645E0,2.049772516E1
8.461188000E0,-1.285743548E1,-1.731295066E1,-2.133084735E0,2.167030129E1
8.471174000E0,-1.360675383E1,-1.793281633E1,-1.176448095E0,2.254137710E1
8.481160000E0,-1.448524419E1,-1.827487611E1,5.829826033E-1,2.332666424E1
8.491146000E0,-1.479958348E1,-1.803906024E1,3.648785943E0,2.361671028E1
8.501132000E0,-1.538008336E1,-1.723717191E1,6.406821672E0,2.397320220E1
8.511118000E0,-1.640863315E1,-1.566823298E1,8.712506858E0,2.430317967E1
8.521104000E0,-1.735602008E1,-1.412455284E1,1.000846853E1,2.451334062E1
8.531090000E0,-1.751693896E1,-1.315198780E1,1.081467795E1,2.442898264E1
8.541076000E0,-1.691778530E1,-1.263297958E1,1.258076161E1,2.457802261E1
8.551062000E0,-1.522232782E1,-1.187171304E1,1.418184854E1,2.395374005E1
8.561048000E0,-1.184501348E1,-1.033690664E1,1.672681290E1,2.295522278E1
8.571034000E0,-8.145485984E0,-7.122239617E0,1.993412178E1,2.268136791E1
8.581020000E0,-5.386245729E0,-4.107898499E0,2.300160386E1,2.397832882E1
8.591006000E0,-2.773003724E0,-9.809955561E-1,2.491217455E1,2.508522160E1
8.600992000E0,-6.406446281E-1,1.319148223E0,2.628835652E1,2.632922836E1
8.610978000E0,4.529124971E-1,2.175462138E0,2.654467039E1,2.663751661E1
8.620964000E0,9.554668318E-1,1.662963627E0,2.574759198E1,2.581892441E1
8.630950000E0,1.627405685E0,-2.398063007E-1,2.429075820E1,2.434639379E1
8.640936000E0,2.463866987E0,-2.776574911E0,2.242010761E1,2.272534343E1
8.650922000E0,2.932169319E0,-4.813789575E0,1.884282318E1,1.966779531E1
8.660908000E0,2.949644600E0,-6.218083491E0,1.438518663E1,1.594674136E1
8.670894000E0,2.430810923E0,-7.753599744E0,1.132691977E1,1.394009549E1
8.680880000E0,2.309304612E0,-8.860573561E0,9.143325030E0,1.293997852E1
8.690866000E0,2.840775000E0,-8.659033486E0,7.563019105E0,1.184263997E1
8.700851000E0,3.717001900E0,-8.026439597E0,7.206773399E0,1.140953192E1
8.710837000E0,5.075496622E0,-6.931262537E0,7.314866781E0,1.128318848E1
8.720823000E0,6.539041836E0,-5.547192094E0,7.525262464E0,1.140876783E1
8.730809000E0,7.786705509E0,-4.141104544E0,7.336319046E0,1.147183973E1
8.740795000E0,8.445546380E0,-2.993700739E0,6.728096352E0,1.120521210E1
8.750781000E0,8.424240296E0,-2.207810397E0,5.720049237E0,1.041927131E1
8.760767000E0,8.022623704E0,-1.907088389E0,3.983104007E0,9.157761448E0
8.770753000E0,7.007026665E0,-2.068615090E0,2.101689865E0,7.602281983E0
8.780739000E0,5.802939366E0,-2.459602905E0,5.672378057E-1,6.328152216E0
8.790725000E0,4.794456342E0,-2.718373773E0,-8.558335662E-1,5.577528007E0
8.800711000E0,4.119259931E0,-2.898759791E0,-1.917848727E0,5.389736028E0
8.810697000E0,3.763154266E0,-2.845059839E0,-2.723604400E0,5.447358667E0
8.820683000E0,3.706627185E0,-2.520415410E0,-3.132482064E0,5.468457078E0
8.830669000E0,3.727329545E0,-2.052853335E0,-3.016223044E0,5.215821489E0
8.840655000E0,3.955736991E0,-1.518840724E0,-2.663148283E0,5.004706891E0
8.850641000E0,4.231529396E0,-1.086868020E0,-2.400834002E0,4.985090473E0
8.860627000E0,4.275139099E0,-8.378780825E-1,-2.316205496E0,4.933929661E0
8.870613000E0,4.001455785E0,-6.466527884E-1,-2.318017548E0,4.669369720E0
8.880599000E0,3.635851318E0,-5.282097609E-1,-2.319199271E0,4.344779121E0
8.890585000E0,3.190369206E0,-5.553632071E-1,-2.304404061E0,3.974564384E0
8.900571000E0,2.768998381E0,-7.574312856E-1,-2.497648106E0,3.805167572E0
8.910557000E0,2.545014061E0,-8.873589756E-1,-2.889981074E0,3.951770885E0
8.920543000E0,2.282143126E0,-1.102752566E0,-3.065417424E0,3.977565141E0
8.930529000E0,1.839168886E0,-1.358915429E0,-2.902649651E0,3.695208835E0
8.940515000E0,1.641189765E0,-1.637175359E0,-2.758554377E0,3.603258144E0
8.950501000E0,1.754914309E0,-1.575785734E0,-2.616730746E0,3.522797852E0
8.960487000E0,2.054074526E0,-1.336877858E0,-2.314883441E0,3.371223800E0
8.970473000E0,2.508296763E0,-1.033224640E0,-1.792048221E0,3.251237093E0
8.980459000E0,2.791220432E0,-5.990416522E-1,-1.038068474E0,3.037655108E0
8.990445000E0,2.885094848E0,-8.545990728E-2,-2.275122374E-1,2.895313022E0
9.000431000E0,2.954446042E0,2.367076784E-1,5.479104191E-1,3.014131345E0
9.010417000E0,2.891438785E0,4.345271700E-1,8.695990813E-1,3.050481055E0
9.020403000E0,2.667731623E0,5.161416194E-1,6.871495807E-1,2.802743072E0
9.030389000E0,2.275776970E0,3.940977668E-1,3.923733133E-1,2.342739995E0
9.040375000E0,2.002994127E0,2.289614333E-1,1.521100527E-1,2.021768107E0
9.050360000E0,1.891238633E0,1.036605354E-2,-9.823322296E-3,1.891292553E0
9.060346000E0,1.830307138E0,-2.953086929E-1,-2.761797827E-1,1.874435039E0
9.070332000E0,1.740997351E0,-5.407053703E-1,-5.454095650E-1,1.902867748E0
9.080318000E0,1.509670975E0,-6.986566088E-1,-5.391132832E-1,1.748676826E0
9.090304000E0,1.244946764E0,-6.407992139E-1,-1.961325699E-1,1.413854329E0
9.100290000E0,1.017191283E0,-4.584821527E-1,3.990560961E-1,1.184959813E0
9.110276000E0,8.567971873E-1,-1.377689523E-1,1.010016457E0,1.331621173E0
9.120262000E0,6.943548122E-1,2.449782726E-1,1.567118114E0,1.731473980E0
9.130248000E0,4.940464532E-1,4.658396311E-1,2.083243654E0,2.191116743E0
9.140233500E0,2.264424893E-1,5.302008109E-1,2.543457533E0,2.607981081E0
9.150219500E0,-1.357776099E-1,5.048040144E-1,2.930331540E0,2.976592949E0
9.160205500E0,-4.884999306E-1,4.719531143E-1,3.302923722E0,3.372043452E0
9.170191500E0,-7.517575130E-1,5.534837658E-1,3.554240559E0,3.674793816E0
9.180177500E0,-9.077458777E-1,5.757444447E-1,3.723758942E0,3.875805065E0
9.190163500E0,-1.002083393E0,5.038715297E-1,3.973366054E0,4.128643293E0
9.200149500E0,-1.054568439E0,4.532998386E-1,4.310197835E0,4.460426069E0
9.210135500E0,-1.071533259E0,2.939667021E-1,4.864242568E0,4.989534618E0
9.220121500E0,-7.567070349E-1,1.867570712E-1,5.433201794E0,5.488821866E0
9.230107500E0,-4.372980559E-1,1.792213259E-1,5.881768019E0,5.900724100E0
9.240093500E0,-1.393207303E-1,1.108645975E-1,6.108990819E0,6.111584905E0
9.250079500E0,1.752265812E-1,-3.950890526E-3,5.953635562E0,5.956214937E0
9.260065500E0,3.172053096E-1,-2.228805848E-1,5.536397549E0,5.549954305E0
9.270051500E0,3.932429405E-1,-5.727131385E-1,4.922677302E0,4.971457751E0
9.280037500E0,4.840473490E-1,-9.159919135E-1,4.318887382E0,4.441410952E0
9.290023500E0,4.691005502E-1,-1.253882187E0,3.933063535E0,4.154667813E0
9.300009500E0,5.769226952E-1,-1.441740508E0,3.786646916E0,4.092694755E0
9.309995500E0,9.715400968E-1,-1.133400016E0,3.807031479E0,4.089251086E0
9.319981500E0,1.589280377E0,-9.811528462E-1,3.877331969E0,4.303739795E0
9.329967500E0,2.116744691E0,-9.865140121E-1,3.844085285E0,4.497867235E0
9.339953500E0,2.451209958E0,-8.743514058E-1,3.719286992E0,4.539385021E0
9.349939500E0,2.632595412E0,-8.037459844E-1,3.641423714E0,4.564705125E0
9.359925500E0,2.815069763E0,-1.065526414E0,3.654365941E0,4.734380080E0
9.369911500E0,3.149982195E0,-1.368592864E0,3.653550255E0,5.014365735E0
9.379897500E0,3.545133813E0,-1.551948975E0,3.552578781E0,5.253316607E0
9.389883500E0,3.877861726E0,-1.691923132E0,3.382193255E0,5.416608410E0
9.399868500E0,4.145118658E0,-2.098312513E0,3.330735419E0,5.716530637E0
9.409854500E0,4.340312165E0,-2.692396640E0,3.412559600E0,6.142708880E0
9.419840500E0,4.803442343E0,-3.232563592E0,2.871473467E0,6.462807871E0
9.429826500E0,5.404467992E0,-3.497992099E0,2.165039184E0,6.792026035E0
9.439812500E0,5.975565544E0,-3.669323119E0,1.810574539E0,7.242202420E0
9.449798500E0,6.251765208E0,-4.385010036E0,2.047507226E0,7.906020937E0
9.459784500E0,5.862883852E0,-5.810772881E0,1.928280160E0,8.476836256E0
9.469770500E0,5.505790883E0,-7.896981073E0,1.108118702E0,9.690406100E0
9.479756500E0,5.310452950E0,-9.633511151E0,-6.315451911E-1,1.101836181E1
9.489742500E0,4.585995210E0,-1.014309600E1,-3.239394894E0,1.159342174E1
9.499728500E0,3.236220733E0,-1.031165719E1,-5.675019829E0,1.220693445E1
9.509714500E0,1.703889166E0,-1.054615626E1,-6.626954139E0,1.257144269E1
9.519700500E0,7.921570954E-1,-1.056587425E1,-6.578374302E0,1.247157648E1
9.529686500E0,-2.700910771E-1,-1.060892496E1,-5.584901372E0,1.199222086E1
9.539672500E0,-1.144473765E0,-1.094584971E1,-6.046159564E0,1.255696984E1
9.549658500E0,-1.339700602E0,-1.119547436E1,-6.940433895E0,1.324020644E1
9.559644500E0,-1.451188293E0,-1.143727778E1,-7.815498369E0,1.392836262E1
9.569630500E0,-1.697171300E0,-1.152783478E1,-9.132533993E0,1.480454465E1
9.579616500E0,-1.739017484E0,-1.207004357E1,-1.081073459E1,1.629669034E1
9.589602500E0,-1.889601413E0,-1.267203431E1,-1.181899103E1,1.743099527E1
9.599588500E0,-2.640271052E0,-1.319755866E1,-1.186771471E1,1.794405858E1
9.609574500E0,-3.983321523E0,-1.352147570E1,-1.005168881E1,1.731281616E1
9.619560500E0,-5.665993482E0,-1.328768764E1,-7.096308385E0,1.609421380E1
9.629546500E0,-7.273870783E0,-1.293239211E1,-4.737020604E0,1.557547194E1
9.639532500E0,-8.459898371E0,-1.286818033E1,-3.286476966E0,1.574677352E1
9.649518500E0,-9.279172221E0,-1.267292308E1,-2.064419712E0,1.584196469E1
9.659504500E0,-1.004786473E1,-1.236099752E1,-6.655090356E-1,1.594354878E1
9.669490500E0,-1.065942268E1,-1.215947674E1,9.053197217E-1,1.619554785E1
9.679476500E0,-1.134968415E1,-1.237699082E1,2.372390807E0,1.695976032E1
9.689462500E0,-1.231724865E1,-1.296283271E1,3.077106593E0,1.814437189E1
9.699448500E0,-1.323435636E1,-1.295731996E1,4.010949617E0,1.895067401E1
9.709434500E0,-1.385479038E1,-1.218505012E1,5.613856199E0,1.928590273E1
9.719420500E0,-1.445627825E1,-1.203285411E1,7.549959934E0,2.026759616E1
9.729406500E0,-1.482671222E1,-1.147722362E1,1.002787661E1,2.126302816E1
9.739392500E0,-1.357354866E1,-1.090387488E1,1.213428927E1,2.122208017E1
9.749378500E0,-1.097105705E1,-1.026597640E1,1.312247573E1,1.994877775E1
9.759363500E0,-8.309289883E0,-8.029094818E0,1.272325241E1,1.718696639E1
9.769349500E0,-5.695020815E0,-5.743898860E0,1.262697917E1,1.499554064E1
9.779335500E0,-4.536089224E0,-4.182429741E0,1.328272920E1,1.464580893E1
9.789321500E0,-4.052217511E0,-2.607906128E0,1.381311259E1,1.462954957E1
9.799307500E0,-3.279183150E0,-1.415058348E0,1.506773445E1,1.548522050E1
9.809293500E0,-2.214511306E0,-2.134739497E-1,1.660064402E1,1.674906007E1
9.819279500E0,-6.042283883E-1,9.992882779E-1,1.858471188E1,1.862136366E1
9.829265500E0,1.352334096E0,1.411818990E0,2.076267926E1,2.085451726E1
9.839251500E0,3.311407740E0,1.309124634E0,2.207753328E1,2.236284205E1
9.849237500E0,4.216033689E0,1.871494925E-1,2.098604289E1,2.140616643E1
9.859223500E0,4.249883221E0,-1.219170191E0,1.780955702E1,1.835015544E1
9.869209500E0,3.223516780E0,-3.018655194E0,1.442027811E1,1.508137130E1
9.879195500E0,2.272940193E0,-5.411188781E0,1.165666531E1,1.305086462E1
9.889181500E0,2.078791584E0,-6.823796561E0,9.448025776E0,1.183852884E1
9.899167500E0,2.329891197E0,-7.026407261E0,7.924426734E0,1.084413810E1
9.909153500E0,2.614715211E0,-6.460597345E0,7.151792614E0,9.986200043E0
9.919139500E0,3.221345124E0,-5.723005589E0,7.111810523E0,9.680274082E0
9.929125500E0,3.981617352E0,-4.877562818E0,7.176809927E0,9.547276915E0
9.939111500E0,4.849063489E0,-4.187318598E0,6.820668885E0,9.357808386E0
9.949097500E0,5.553809388E0,-3.542899885E0,6.160867901E0,9.019602630E0
9.959083500E0,6.247051767E0,-3.106469555E0,5.495689234E0,8.881351757E0
9.969069500E0,6.835469942E0,-2.928599010E0,4.644555075E0,8.767681183E0
9.979055500E0,7.289988048E0,-2.817793103E0,3.707821187E0,8.650538808E0
9.989041500E0,7.684229547E0,-2.798025422E0,2.621637145E0,8.587741921E0
9.999027500E0,7.756397052E0,-2.787522068E0,1.171310731E0,8.324898998E0
1.000901350E1,7.123784451E0,-2.718314716E0,-3.114659750E-1,7.631156587E0
1.001899950E1,6.279923644E0,-2.533396521E0,-1.548504673E0,6.946467133E0
1.002898550E1,5.516308270E0,-2.403174058E0,-2.456647430E0,6.499232192E0
1.003897150E1,4.810886725E0,-2.198718562E0,-3.045452106E0,6.103586890E0
1.004895750E1,4.272590298E0,-1.910263134E0,-3.284940026E0,5.717951038E0
1.005894350E1,3.699737704E0,-1.587164416E0,-3.070373524E0,5.063036987E0
1.006892950E1,3.222081288E0,-1.261930295E0,-2.591984160E0,4.323500640E0
1.007891550E1,2.953392958E0,-8.853805701E-1,-2.201899447E0,3.788771555E0
1.008890050E1,2.713022986E0,-5.981986664E-1,-1.896951363E0,3.364039215E0
1.009888650E1,2.535072041E0,-4.274684113E-1,-1.767025647E0,3.119567138E0
1.010887250E1,2.377201603E0,-4.425066094E-1,-1.787844658E0,3.007206026E0
1.011885850E1,2.160148281E0,-6.070005898E-1,-1.923740382E0,2.955582407E0
1.012884450E1,1.919648500E0,-8.189999083E-1,-2.093182166E0,2.955879361E0
1.013883029E1,1.829422162E0,-1.039151524E0,-1.993045090E0,2.898076960E0
1.014881629E1,1.859198815E0,-1.208956275E0,-1.630535261E0,2.752606174E0
1.015880229E1,1.930812297E0,-1.208454438E0,-1.263844088E0,2.604937645E0
1.016878829E1,1.950993669E0,-1.084466130E0,-9.085374445E-1,2.409955056E0
1.017877429E1,1.939466468E0,-9.649915807E-1,-5.827288342E-1,2.243281486E0
1.018876029E1,1.967891245E0,-7.096761983E-1,-2.685129136E-1,2.109107736E0
1.019874629E1,1.889928565E0,-3.610255131E-1,2.342400438E-1,1.938307973E0
1.020873229E1,1.834877614E0,2.534585260E-2,9.021259725E-1,2.044810392E0
1.021871829E1,1.749443361E0,2.084360801E-1,1.652575171E0,2.415574956E0
1.022870429E1,1.633643349E0,2.147137970E-1,2.044523976E0,2.625827659E0
1.023869029E1,1.446602030E0,2.605309343E-1,1.946667314E0,2.439271906E0
1.024867629E1,1.072222353E0,2.137125892E-1,1.759468120E0,2.071487850E0
1.025866229E1,6.958905834E-1,5.141928155E-2,1.698717304E0,1.836449870E0
1.026864829E1,3.536474964E-1,-8.598414671E-2,1.715805207E0,1.753980426E0
1.027863429E1,1.198290369E-1,-1.093160355E-1,1.724595326E0,1.732206117E0
1.028862029E1,8.557853267E-2,-6.971415952E-2,1.834104905E0,1.837423345E0
1.029860629E1,1.350852996E-1,1.957481886E-1,2.265676197E0,2.278125111E0
1.030859229E1,2.706449546E-1,3.841938991E-1,2.824643701E0,2.863470915E0
1.031857829E1,4.176001020E-1,5.076834758E-1,3.461379173E0,3.523248237E0
1.032856429E1,5.169853726E-1,9.526842150E-1,4.037087256E0,4.180066339E0
1.033855029E1,5.713836278E-1,1.324702201E0,4.530039110E0,4.754215972E0
1.034853629E1,7.680513641E-1,1.412849270E0,5.064325517E0,5.313514740E0
1.035852229E1,9.393084168E-1,1.642369587E0,5.112934005E0,5.451767815E0
1.036850829E1,9.648601645E-1,1.317456039E0,5.064613785E0,5.321368089E0
1.037849429E1,9.369014105E-1,5.774183929E-1,4.896576501E0,5.018730685E0
1.038848029E1,9.285238123E-1,1.790709794E-2,4.281068176E0,4.380641718E0
1.039846629E1,7.721118169E-1,-4.125801212E-1,3.717417637E0,3.819106296E0
1.040845229E1,7.761538509E-1,-5.586323123E-1,3.705613278E0,3.827016413E0
1.041843829E1,9.171074892E-1,-7.355504930E-3,4.284666553E0,4.381724286E0
1.042842329E1,1.429399375E0,9.734503090E-1,5.447164945E0,5.715102275E0
1.043840929E1,2.067596943E0,2.165111690E0,6.709423268E0,7.347042013E0
1.044839529E1,2.511942210E0,2.857158021E0,8.460571386E0,9.276555061E0
1.045838129E1,2.764200156E0,2.282179964E0,1.027234168E1,1.087980475E1
1.046836729E1,2.691193283E0,2.762356237E-1,1.096324167E1,1.129209880E1
1.047835329E1,2.115725668E0,-2.000828903E0,9.610651461E0,1.004212293E1
1.048833929E1,1.831821274E0,-4.027918237E0,7.738214550E0,8.914014748E0
1.049832529E1,1.540350438E0,-5.413072169E0,5.520540485E0,7.883552310E0
1.050831129E1,1.766193295E0,-7.039781013E0,3.950216927E0,8.263302562E0
1.051829729E1,2.214949263E0,-8.507512248E0,2.008993371E0,9.017750232E0
1.052828329E1,2.409265687E0,-9.313603551E0,5.158039427E-1,9.633993251E0
1.053826929E1,2.385604637E0,-1.024961004E1,-5.734434557E-1,1.053918654E1
1.054825529E1,2.258029794E0,-1.039826030E1,-2.012434749E0,1.082923864E1
1.055824129E1,1.501598893E0,-1.085213989E1,-2.840009892E0,1.131765857E1
1.056822729E1,1.513167610E0,-1.056045154E1,-4.776279395E0,1.168869786E1
1.057821329E1,1.820880842E0,-9.585001481E0,-6.009902734E0,1.145891754E1
1.058819929E1,2.105504588E0,-8.947787706E0,-6.270918347E0,1.112746473E1
1.059818529E1,2.414462108E0,-8.996378653E0,-6.324404583E0,1.125888758E1
1.060817129E1,2.573867732E0,-9.050126259E0,-6.543884500E0,1.146089023E1
1.061815729E1,2.648512117E0,-8.784636941E0,-6.393478326E0,1.118306880E1
1.062814329E1,2.188864249E0,-8.652622599E0,-6.077085487E0,1.079768367E1
1.063812929E1,1.678980612E0,-8.810803816E0,-5.873404747E0,1.072129298E1
1.064811529E1,9.974326640E-1,-9.233199658E0,-5.912137873E0,1.100909724E1
1.065810129E1,6.762012541E-2,-9.831887298E0,-6.194610429E0,1.162083382E1
1.066808729E1,-6.428154069E-1,-1.028337772E1,-6.986971300E0,1.244904964E1
1.067807329E1,-1.917556366E0,-1.074984168E1,-7.994185186E0,1.353303792E1
1.068805929E1,-3.388401244E0,-1.173732882E1,-8.701960235E0,1.499900872E1
1.069804529E1,-4.787379749E0,-1.288006538E1,-9.575938881E0,1.674854305E1
1.070803129E1,-6.171160755E0,-1.384726033E1,-1.013652022E1,1.823674549E1
1.071801729E1,-7.477858502E0,-1.470735886E1,-9.621687496E0,1.909978122E1
1.072800329E1,-8.425402722E0,-1.549720543E1,-8.034340940E0,1.938301889E1
1.073798829E1,-9.457080774E0,-1.584460488E1,-5.603266892E0,1.928430658E1
1.074797429E1,-1.050734946E1,-1.546850963E1,-2.482641812E0,1.886379319E1
1.075796029E1,-1.160983379E1,-1.460349360E1,3.595938224E-1,1.865957056E1
1.076794629E1,-1.240750393E1,-1.411413544E1,2.323590530E0,1.893552339E1
1.077793229E1,-1.309599837E1,-1.410855369E1,3.394806869E0,1.954689679E1
1.078791829E1,-1.393254197E1,-1.349722262E1,3.942525499E0,1.979480365E1
1.079790429E1,-1.554809725E1,-1.230698913E1,5.787005119E0,2.065659066E1
1.080789029E1,-1.715977232E1,-1.170936042E1,7.352815796E0,2.203703264E1
1.081787629E1,-1.793468978E1,-1.102445967E1,8.733160393E0,2.279166293E1
1.082786229E1,-1.756352724E1,-9.261997780E0,1.110433264E1,2.275012737E1
1.083784829E1,-1.627508742E1,-7.715265983E0,1.382195358E1,2.270352837E1
1.084783429E1,-1.478350130E1,-6.176170065E0,1.537059801E1,2.220252847E1
1.085782029E1,-1.283843437E1,-3.904911531E0,1.624871648E1,2.107355021E1
1.086780629E1,-1.120895336E1,-2.368553718E0,1.740298609E1,2.083541713E1
1.087779229E1,-1.042464060E1,-1.992765885E0,1.859577013E1,2.141137348E1
1.088777829E1,-9.259857114E0,-1.209681622E0,1.901563530E1,2.118496328E1
1.089776429E1,-7.402856267E0,-1.140274003E0,2.005100762E1,2.140433163E1
1.090775029E1,-4.899694529E0,-1.790468596E0,2.022446177E1,2.088639840E1
1.091773629E1,-2.064605946E0,-2.007518410E0,1.980903580E1,2.001725824E1
1.092772229E1,6.079537225E-1,-2.599737568E0,1.945074182E1,1.963312508E1
1.093770829E1,2.240383189E0,-3.605466554E0,1.828751779E1,1.877370535E1
1.094769429E1,3.426533276E0,-4.473451804E0,1.626610727E1,1.721450397E1
1.095768029E1,3.520831323E0,-5.117179669E0,1.437026337E1,1.565523076E1
1.096766629E1,3.126008027E0,-5.991409160E0,1.318705355E1,1.481780319E1
1.097765229E1,3.408715641E0,-6.764552572E0,1.252283207E1,1.463556753E1
1.098763829E1,4.590325073E0,-6.797357790E0,1.171767750E1,1.430311585E1
1.099762429E1,6.049292502E0,-6.314589447E0,1.105687196E1,1.409689318E1
1.100761029E1,7.255919831E0,-5.411212755E0,1.061654505E1,1.395136641E1
1.101759629E1,8.313228568E0,-4.421995721E0,1.011328104E1,1.381818616E1
1.102758229E1,9.068325133E0,-3.600039461E0,9.246882142E0,1.344245640E1
1.103756829E1,9.410478466E0,-2.884675603E0,7.747267209E0,1.252591743E1
1.104755429E1,9.092299887E0,-2.474511551E0,5.825095051E0,1.107812516E1
1.105753929E1,8.133986265E0,-2.431930957E0,3.927287071E0,9.354122325E0
1.106752529E1,7.103669445E0,-2.594727674E0,2.220047450E0,7.881836205E0
1.107751129E1,6.149595054E0,-2.800761918E0,8.309507400E-1,6.808249833E0
1.108749729E1,5.519442378E0,-2.936521110E0,-1.906502205E-1,6.254897912E0
1.109748329E1,5.125618955E0,-2.938534306E0,-6.793154812E-1,5.947135702E0
1.110746929E1,5.027714930E0,-2.778331414E0,-6.094108486E-1,5.776540872E0
1.111745529E1,5.215182511E0,-2.448260184E0,-3.158560646E-1,5.769910884E0
1.112744129E1,5.589555171E0,-1.906613010E0,-2.343113798E-1,5.910431626E0
1.113742775E1,5.905938070E0,-1.434508672E0,-3.427783996E-1,6.087316046E0
1.114741375E1,6.145804889E0,-1.140290375E0,-5.413094974E-1,6.274089244E0
1.115739975E1,6.112056515E0,-1.109421608E0,-9.061833555E-1,6.277676275E0
1.116738575E1,5.723218428E0,-1.278105740E0,-1.376766102E0,6.023642449E0
1.117737175E1,5.066507113E0,-1.730948034E0,-1.913413029E0,5.685668372E0
1.118735775E1,4.282146695E0,-2.148330327E0,-2.380491539E0,5.349658258E0
1.119734375E1,3.515585494E0,-2.294438213E0,-2.782267175E0,5.036347755E0
1.120732975E1,2.911876265E0,-2.280578996E0,-2.955968072E0,4.734745102E0
1.121731575E1,2.422274573E0,-2.142345409E0,-2.761870918E0,4.252644933E0
1.122730175E1,2.117305731E0,-1.868975067E0,-2.411877639E0,3.713920450E0
1.123728775E1,1.910713955E0,-1.478142495E0,-1.834490821E0,3.033329792E0
1.124727375E1,1.743895231E0,-9.446394695E-1,-1.098583648E0,2.267245098E0
1.125725975E1,1.729795840E0,-4.456182783E-1,-2.277654219E-1,1.800734957E0
1.126724575E1,1.778430056E0,-5.991641879E-2,3.851215965E-1,1.820637824E0
1.127723175E1,1.744694253E0,1.796527773E-1,6.967863768E-1,1.887258438E0
1.128721775E1,1.526386410E0,2.980467613E-1,7.407995385E-1,1.722634988E0
1.129720375E1,1.162860627E0,2.923142242E-1,6.681706882E-1,1.372641436E0
1.130718975E1,7.060311171E-1,1.475645734E-1,5.948828566E-1,9.349550015E-1
1.131717575E1,2.473752290E-1,-6.942611106E-2,4.404812801E-1,5.099394542E-1
1.132716175E1,-8.502845585E-2,-3.201415985E-1,3.767238253E-1,5.016386369E-1
1.133714775E1,-3.458285996E-1,-3.968456293E-1,6.237710255E-1,8.161949314E-1
1.134713375E1,-3.041484770E-1,-1.606096385E-1,1.173625644E0,1.222987696E0
1.135711875E1,-9.713102281E-3,1.004586367E-1,1.904852121E0,1.907524019E0
1.136710475E1,2.885527834E-1,3.729025968E-1,2.557639369E0,2.600738011E0
1.137709075E1,4.454449815E-1,7.667056274E-1,3.143282456E0,3.265958259E0
1.138707675E1,4.846917853E-1,9.650858670E-1,3.744871484E0,3.897483713E0
1.139706275E1,4.969297153E-1,9.550111145E-1,4.329018853E0,4.460873188E0
1.140704875E1,5.149154583E-1,9.144627935E-1,4.599907490E0,4.718106511E0
1.141703475E1,4.020644885E-1,8.084868338E-1,4.708111385E0,4.793914854E0
1.142702075E1,2.964640662E-1,6.373658750E-1,4.835122849E0,4.885953251E0
1.143700675E1,3.836837661E-1,3.994711022E-1,4.822564784E0,4.854268379E0
1.144699275E1,5.015381983E-1,3.080736398E-1,4.707300961E0,4.743957448E0
1.145697875E1,5.885661095E-1,1.790836240E-1,4.530157809E0,4.571740454E0
1.146696475E1,6.687722205E-1,-4.813501015E-2,4.451128596E0,4.501346359E0
1.147695075E1,7.268239622E-1,-1.222986084E-1,4.301133481E0,4.363826216E0
1.148693675E1,8.905606185E-1,-1.945440276E-1,4.283097160E0,4.379025791E0
1.149692275E1,1.224005546E0,-2.937607522E-1,4.361202512E0,4.539225959E0
1.150690875E1,1.695214529E0,-1.495475104E-1,4.301914085E0,4.626292419E0
1.151689475E1,2.076150835E0,-3.957395554E-2,4.345706221E0,4.816339995E0
1.152688075E1,2.386190382E0,-1.227533756E-1,4.369328973E0,4.979960703E0
1.153686675E1,2.516157175E0,-2.254803300E-1,4.359912032E0,5.038920642E0
1.154685275E1,2.732835984E0,-2.489639175E-1,4.205857195E0,5.021913011E0
1.155683875E1,3.215636195E0,-1.383457071E-1,3.931760775E0,5.081161134E0
1.156682475E1,3.989654642E0,-2.884732613E-1,3.861374332E0,5.559745743E0
1.157681075E1,4.702234641E0,-8.917597362E-1,3.595075175E0,5.985884359E0
1.158679675E1,5.187415254E0,-2.001719434E0,2.846923347E0,6.246689543E0
1.159678275E1,5.495965807E0,-3.147956135E0,1.822705173E0,6.590714842E0
1.160676875E1,5.290953071E0,-4.017554924E0,9.087122762E-1,6.705273295E0
1.161675475E1,5.587118636E0,-4.666860448E0,5.973345941E-1,7.304265173E0
1.162674075E1,6.528703959E0,-4.648461599E0,7.482389510E-2,8.014846801E0
1.163672675E1,7.454347433E0,-4.189938735E0,-7.036480844E-2,8.551481361E0
1.164671275E1,8.146294069E0,-4.070008249E0,-3.562650025E-2,9.106500066E0
1.165669875E1,8.494279414E0,-4.321370695E0,-6.144464707E-1,9.550108477E0
1.166668475E1,8.046827084E0,-4.701404629E0,-8.431369221E-1,9.357644547E0
1.167666975E1,6.659330757E0,-5.505530097E0,-1.029168427E0,8.701536383E0
1.168665575E1,4.820736360E0,-7.049058205E0,-1.637893397E0,8.695482471E0
1.169664175E1,2.645606343E0,-8.037048200E0,-2.702668444E0,8.882442987E0
1.170662775E1,7.337735242E-1,-8.072075361E0,-4.059445839E0,9.065093752E0
1.171661375E1,-2.904493278E-1,-7.618948892E0,-5.211978237E0,9.235662412E0
1.172659975E1,-2.354814076E-1,-7.399635621E0,-5.925753114E0,9.482858682E0
1.173658575E1,4.829648101E-1,-7.551702989E0,-6.667720926E0,1.008563213E1
1.174657175E1,1.248589287E0,-7.872484748E0,-7.361733384E0,1.085035067E1
1.175655775E1,1.464440423E0,-8.110059459E0,-8.142452449E0,1.158521394E1
1.176654375E1,7.839683622E-1,-8.255455738E0,-8.428720433E0,1.182414834E1
1.177652975E1,-5.174014020E-1,-8.548695357E0,-8.490232556E0,1.205951680E1
1.178651575E1,-2.102629513E0,-9.033906668E0,-8.202692803E0,1.238211168E1
1.179650175E1,-4.352144591E0,-9.515065273E0,-7.785470577E0,1.304190100E1
1.180648775E1,-6.327014195E0,-9.457914587E0,-7.437121536E0,1.359389693E1
1.181647375E1,-7.753264114E0,-9.350139293E0,-6.365367837E0,1.371335542E1
1.182645975E1,-8.480482909E0,-9.168638796E0,-5.090488299E0,1.348686764E1
1.183644575E1,-8.259112587E0,-8.840212972E0,-4.185463861E0,1.280157857E1
1.184643175E1,-8.136445019E0,-8.703015658E0,-3.519678252E0,1.242305736E1
1.185641775E1,-7.906616700E0,-8.891458554E0,-2.838204564E0,1.223225359E1
1.186640375E1,-7.728777729E0,-9.125546570E0,-2.533399445E0,1.222406308E1
1.187638975E1,-8.320674997E0,-9.557917762E0,-2.220549726E0,1.286539022E1
1.188637575E1,-1.007018239E1,-1.042148310E1,-1.106293201E0,1.453408986E1
1.189636175E1,-1.224944668E1,-1.126960419E1,6.246726662E-1,1.665662446E1
1.190634775E1,-1.397391219E1,-1.130953717E1,2.589780344E0,1.816267643E1
1.191633375E1,-1.512107977E1,-1.059109679E1,4.611397269E0,1.902848837E1
1.192631975E1,-1.522502105E1,-9.474269249E0,7.238318542E0,1.933794971E1
1.193630575E1,-1.375646009E1,-8.137484069E0,9.781805311E0,1.873879816E1
1.194629175E1,-1.162694040E1,-6.691719069E0,1.254637063E1,1.836780507E1
1.195627775E1,-9.337629175E0,-4.981786805E0,1.451257173E1,1.796174426E1
1.196626275E1,-7.420651098E0,-3.244415021E0,1.574713063E1,1.770775013E1
1.197624875E1,-6.359848650E0,-1.814555616E0,1.660138544E1,1.787026261E1
1.198623475E1,-6.334366484E0,-4.370673832E-1,1.752979348E1,1.864427221E1
1.199622075E1,-6.059812812E0,5.093021312E-1,1.737296063E1,1.840653365E1
1.200620675E1,-5.419264371E0,5.741810820E-1,1.721115063E1,1.805330486E1
1.201619275E1,-4.309714855E0,2.237004375E-1,1.729715148E1,1.782737034E1
1.202617875E1,-2.681256233E0,-9.052495551E-1,1.729966345E1,1.752960259E1
1.203616475E1,-1.197504722E0,-2.406903412E0,1.705058609E1,1.726121918E1
1.204615075E1,-1.926008517E-1,-3.729033716E0,1.666480435E1,1.707801193E1
1.205613675E1,4.456738269E-1,-4.954939899E0,1.571615091E1,1.648476430E1
1.206612275E1,9.912118113E-1,-6.196507266E0,1.431358865E1,1.562875629E1
1.207610875E1,1.737759017E0,-7.100617783E0,1.279985210E1,1.474024400E1
1.208609475E1,2.637444800E0,-7.445241564E0,1.145701447E1,1.391585131E1
1.209608075E1,3.944242534E0,-7.373734210E0,1.032138813E1,1.328382694E1
1.210606675E1,5.551085755E0,-7.101615903E0,9.521995393E0,1.311167029E1
1.211605275E1,7.412203041E0,-6.527815767E0,9.034378538E0,1.338555670E1
1.212603875E1,9.178008959E0,-5.356764067E0,8.484498192E0,1.359843665E1
1.213602475E1,1.035297712E1,-4.676686109E0,8.028467996E0,1.391085284E1
1.214601000E1,1.152219572E1,-4.215676425E0,7.434138286E0,1.434570786E1
1.215599600E1,1.219233341E1,-3.500277191E0,6.213688139E0,1.412497273E1
1.216598200E1,1.237902916E1,-3.128250141E0,4.755349871E0,1.362496475E1
1.217596800E1,1.208643098E1,-2.926469454E0,3.015074651E0,1.279596470E1
1.218595400E1,1.108402058E1,-2.854234121E0,1.472428889E0,1.153993984E1
1.219594000E1,9.499425725E0,-2.910295763E0,4.199423504E-1,9.944106904E0
1.220592600E1,7.954159241E0,-2.721648798E0,-2.872345287E-1,8.411808669E0
1.221591200E1,6.739993681E0,-2.305807977E0,-8.136616927E-1,7.169819426E0
1.222589800E1,5.755447111E0,-1.947580503E0,-9.669411886E-1,6.152496772E0
1.223588400E1,5.131125863E0,-1.681945735E0,-7.823901987E-1,5.456145938E0
1.224587000E1,4.769245779E0,-1.296907315E0,-6.346222883E-1,4.983013078E0
1.225585500E1,4.537093776E0,-9.013031231E-1,-6.285587257E-1,4.668260203E0
1.226584100E1,4.268445499E0,-6.553821697E-1,-7.783462644E-1,4.388049188E0
1.227582700E1,3.959260231E0,-4.960876066E-1,-1.019284878E0,4.118347502E0
1.228581300E1,3.634177845E0,-5.534354532E-1,-1.360621939E0,3.919799927E0
1.229579900E1,3.254503514E0,-8.080078737E-1,-1.826352666E0,3.818407248E0
1.230578500E1,2.691200592E0,-1.010264671E0,-2.181966873E0,3.608902156E0
1.231577100E1,2.037644727E0,-9.778506312E-1,-2.355479490E0,3.264425143E0
1.232575700E1,1.518354675E0,-9.294622904E-1,-2.216547307E0,2.842953223E0
1.233574300E1,1.214499143E0,-1.034809090E0,-1.857165154E0,2.448448576E0
1.234572900E1,1.007348080E0,-9.904746967E-1,-1.748782918E0,2.248117429E0
1.235571500E1,7.937808672E-1,-7.946618964E-1,-1.810628918E0,2.130716470E0
1.236570100E1,6.017232218E-1,-5.691991446E-1,-1.655300558E0,1.850966893E0
1.237568700E1,6.133661976E-1,-3.369424033E-1,-1.204072680E0,1.392673435E0
1.238567300E1,7.230137703E-1,-1.235777691E-1,-5.836374915E-1,9.373649761E-1
1.239565900E1,8.818068981E-1,1.791798107E-1,9.111189902E-2,9.044281001E-1
1.240564500E1,1.146761781E0,5.488611764E-1,7.913615817E-1,1.497519391E0
1.241563100E1,1.302349173E0,8.056010136E-1,1.429707377E0,2.095034497E0
1.242561700E1,1.131526861E0,1.024774537E0,1.881448640E0,2.422883586E0
1.243560300E1,8.687491885E-1,1.077557718E0,2.205467418E0,2.603832237E0
1.244558900E1,5.192350888E-1,9.748073016E-1,2.271086626E0,2.525408643E0
1.245557500E1,1.960179645E-1,8.701035498E-1,2.231015657E0,2.402693092E0
1.246556100E1,-5.895104349E-2,6.645920460E-1,2.300467131E0,2.395267591E0
1.247554700E1,-2.439905682E-1,5.271273682E-1,2.556655868E0,2.621809277E0
1.248553300E1,-2.633989388E-1,5.278332733E-1,2.879233307E0,2.939042599E0
1.249551900E1,-1.061968383E-1,5.734890274E-1,3.205397428E0,3.258027026E0
1.250550500E1,1.376738620E-1,5.295588597E-1,3.555819308E0,3.597671139E0
1.251549100E1,4.462837645E-1,6.076276306E-1,3.645121493E0,3.722269635E0
1.252547700E1,6.636154148E-1,6.649933843E-1,3.623262847E0,3.743078316E0
1.253546300E1,8.083989063E-1,5.436680083E-1,3.716018983E0,3.841598727E0
1.254544800E1,9.845214272E-1,3.696209567E-1,3.744328278E0,3.889202533E0
1.255543400E1,1.194004067E0,2.681810841E-1,3.923181741E0,4.109613337E0
1.256542000E1,1.388592388E0,1.472160794E-1,4.293643198E0,4.515000920E0
1.257540600E1,1.710581304E0,-8.134631798E-2,4.632591671E0,4.938988886E0
1.258539200E1,2.117535381E0,-2.283875656E-1,4.719811664E0,5.178101883E0
1.259537800E1,2.503179865E0,-4.368250161E-1,4.628546568E0,5.280167503E0
1.260536400E1,2.804107111E0,-7.158410639E-1,4.397870402E0,5.264666104E0
1.261535000E1,3.028042606E0,-1.080876524E0,4.160352994E0,5.257934301E0
1.262533600E1,3.249533381E0,-1.478301101E0,4.057000533E0,5.404081297E0
1.263532200E1,3.568419473E0,-1.776318042E0,3.813482713E0,5.516482005E0
1.264530800E1,3.949219392E0,-1.823369709E0,3.496880543E0,5.581145441E0
1.265529400E1,4.482198361E0,-1.845622458E0,3.341038797E0,5.887186480E0
1.266528000E1,5.249742479E0,-1.922268345E0,3.243429472E0,6.463338644E0
1.267526600E1,6.073960735E0,-1.795389028E0,3.038248336E0,7.024768589E0
1.268525200E1,6.829048530E0,-1.666470494E0,2.749868923E0,7.548165792E0
1.269523800E1,7.291356297E0,-1.579893696E0,2.487196793E0,7.864228419E0
1.270522400E1,7.556536297E0,-1.544144696E0,2.346498166E0,8.061741580E0
1.271521000E1,7.463291334E0,-1.688540517E0,2.193600494E0,7.960136289E0
1.272519600E1,6.861764871E0,-2.268596589E0,1.811835199E0,7.450711001E0
1.273518200E1,6.227054874E0,-2.802285995E0,1.262844214E0,6.944335441E0
1.274516800E1,5.676378722E0,-3.023571533E0,7.173638982E-1,6.471311395E0
1.275515400E1,5.196505920E0,-3.310855178E0,1.318178755E-1,6.163019693E0
1.276514000E1,4.868717735E0,-3.681195598E0,-2.871789801E-1,6.110489766E0
1.277512600E1,4.905912750E0,-3.863662055E0,-6.434819895E-1,6.277733147E0
1.278511200E1,5.247070302E0,-4.039442514E0,-1.119437742E0,6.715801027E0
1.279509800E1,5.644938244E0,-4.483026912E0,-1.844952074E0,7.440880742E0
1.280508400E1,5.900028874E0,-5.308342690E0,-2.458784587E0,8.308698121E0
1.281506900E1,5.629557728E0,-6.424028274E0,-2.876239532E0,9.012924793E0
1.282505500E1,4.911166474E0,-7.527584978E0,-3.265160649E0,9.562707033E0
1.283504100E1,3.379070258E0,-8.320483208E0,-3.676002393E0,9.703687455E0
1.284502700E1,8.606961107E-1,-9.193835617E0,-4.300707804E0,1.018643700E1
1.285501300E1,-1.968487954E0,-1.002444780E1,-4.898937314E0,1.132978753E1
1.286499900E1,-4.490042986E0,-1.040685805E1,-4.884191221E0,1.234173830E1
1.287498500E1,-6.207616975E0,-1.057109932E1,-5.138422018E0,1.329232975E1
1.288497100E1,-6.936328565E0,-1.032074493E1,-6.043322495E0,1.382577942E1
1.289495700E1,-6.899460701E0,-1.026414622E1,-7.365810063E0,1.439480509E1
1.290494300E1,-6.449986403E0,-1.051883690E1,-8.664066769E0,1.507694622E1
1.291492900E1,-6.003604698E0,-1.117621129E1,-9.864410681E0,1.607039409E1
1.292491500E1,-6.178677936E0,-1.193814559E1,-1.023520251E1,1.689540623E1
1.293490100E1,-7.187616166E0,-1.259580649E1,-9.110433272E0,1.712647546E1
1.294488700E1,-8.545474711E0,-1.301869584E1,-6.919068754E0,1.704068930E1
1.295487300E1,-9.834830786E0,-1.283223398E1,-4.924850712E0,1.690101417E1
1.296485900E1,-1.077398133E1,-1.219570024E1,-3.787233392E0,1.670798955E1
1.297484500E1,-1.164699869E1,-1.153952453E1,-2.253818044E0,1.654970999E1
1.298483100E1,-1.266262731E1,-1.118259177E1,-6.043886751E-1,1.690437147E1
1.299481700E1,-1.361308753E1,-1.053991144E1,9.024551708E-1,1.724007861E1
1.300480300E1,-1.487702635E1,-8.730833201E0,3.487199893E0,1.759869098E1
1.301478900E1,-1.563814554E1,-6.770751205E0,6.263729196E0,1.815568703E1
1.302477500E1,-1.516461697E1,-5.655612336E0,9.007595952E0,1.852264408E1
1.303476100E1,-1.359179899E1,-4.635707653E0,1.162485412E1,1.847603904E1
1.304474700E1,-1.118421028E1,-3.830560675E0,1.299223953E1,1.756582030E1
1.305473300E1,-9.107981535E0,-3.033556530E0,1.323947852E1,1.635364132E1
1.306471900E1,-8.416764631E0,-2.194529178E0,1.320609326E1,1.581324711E1
1.307470500E1,-7.918949062E0,-1.203720093E0,1.344944969E1,1.565395775E1
1.308469000E1,-7.550020745E0,-3.339146054E-1,1.359285149E1,1.555248931E1
1.309467600E1,-7.005254374E0,-7.774393612E-1,1.424679239E1,1.589493927E1
1.310466200E1,-5.896949145E0,-1.791578690E0,1.529586006E1,1.649081861E1
1.311464800E1,-4.056152979E0,-2.313453212E0,1.617586602E1,1.683636197E1
1.312463400E1,-1.593327527E0,-3.004035693E0,1.664231478E1,1.698615802E1
1.313462000E1,7.184663176E-1,-3.604245071E0,1.652458694E1,1.692834162E1
1.314460613E1,2.715074481E0,-3.928155967E0,1.599968006E1,1.669705964E1
1.315459213E1,3.859190397E0,-4.208306886E0,1.514862951E1,1.618901398E1
1.316457812E1,3.911426791E0,-4.713750148E0,1.432073394E1,1.557569005E1
1.317456413E1,3.382837034E0,-5.056691977E0,1.338574545E1,1.470346562E1
1.318455013E1,3.011938789E0,-5.413082110E0,1.283462082E1,1.425134115E1
1.319453612E1,3.567627175E0,-5.592245475E0,1.263207677E1,1.426781471E1
1.320452213E1,4.558474705E0,-5.509991523E0,1.224883155E1,1.418356699E1
1.321450813E1,5.444441897E0,-5.205293115E0,1.157131233E1,1.380696538E1
1.322449412E1,6.220162176E0,-4.659617794E0,1.035225675E1,1.294494787E1
1.323448013E1,6.618098531E0,-4.380489553E0,8.943371304E0,1.195708188E1
1.324446613E1,6.763446279E0,-4.373879276E0,7.254736354E0,1.084002883E1
1.325445213E1,6.741671832E0,-4.373455353E0,5.282619619E0,9.616824884E0
1.326443813E1,6.754781874E0,-4.356389669E0,3.390275862E0,8.723484369E0
1.327442413E1,6.972404716E0,-4.231473847E0,1.706975327E0,8.332680434E0
1.328441013E1,7.276670430E0,-3.918337907E0,1.927984875E-1,8.266829849E0
1.329439613E1,7.341237724E0,-3.588732407E0,-7.059168041E-1,8.201895521E0
1.330438213E1,7.130251472E0,-3.299390835E0,-1.090843688E0,7.931986251E0
1.331436813E1,7.110642250E0,-3.093598664E0,-1.146701555E0,7.838782454E0
1.332435413E1,7.138221227E0,-2.695555891E0,-1.351599101E0,7.749002773E0
1.333434013E1,7.143466179E0,-2.190347688E0,-1.723379690E0,7.667905164E0
1.334432613E1,7.015232062E0,-1.745013657E0,-1.981363522E0,7.495622386E0
1.335431113E1,6.643602916E0,-1.405233856E0,-2.229886560E0,7.147344679E0
1.336429713E1,6.129152019E0,-1.312148814E0,-2.624590573E0,6.795345073E0
1.337428313E1,5.440795573E0,-1.482002096E0,-3.028043776E0,6.400596518E0
1.338426913E1,4.804878419E0,-1.798423294E0,-3.397619380E0,6.153454348E0
1.339425513E1,4.247105209E0,-1.981326685E0,-3.614748716E0,5.918611862E0
1.340424113E1,3.930132034E0,-1.973390259E0,-3.599531338E0,5.683030245E0
1.341422713E1,3.646251468E0,-1.943334840E0,-3.193136401E0,5.221859836E0
1.342421313E1,3.340142127E0,-1.750624207E0,-2.584219642E0,4.571588969E0
1.343419913E1,2.997698188E0,-1.281645059E0,-1.932005421E0,3.789650832E0
1.344418513E1,2.648816465E0,-6.901711294E-1,-1.189242387E0,2.984436682E0
1.345417113E1,2.363332008E0,-3.276273137E-1,-4.743331504E-1,2.432626106E0
1.346415713E1,2.125950255E0,-9.925919004E-2,7.874737680E-2,2.129722523E0
1.347414313E1,1.843808651E0,1.242547031E-1,4.341083997E-1,1.898293886E0
1.348412913E1,1.610407391E0,7.840154597E-3,7.037170815E-1,1.757467258E0
1.349411513E1,1.224775625E0,-2.942581858E-1,9.242512518E-1,1.562339140E0
1.350410112E1,9.137806427E-1,-3.675910592E-1,8.390795392E-1,1.293898266E0
1.351408713E1,7.147680268E-1,-2.768055445E-1,8.434345454E-1,1.139691394E0
1.352407313E1,6.540490776E-1,-2.304077969E-1,1.017003295E0,1.230919839E0
1.353405912E1,8.168984190E-1,-1.444775359E-1,1.272709637E0,1.519205913E0
1.354404513E1,1.087893183E0,-9.181503584E-2,1.672389046E0,1.997204722E0
1.355403113E1,1.315981664E0,-1.069541510E-2,2.038586129E0,2.426469768E0
1.356401712E1,1.416315207E0,9.613644797E-2,2.410723983E0,2.797638487E0
1.357400313E1,1.176353662E0,1.734026154E-1,2.969910173E0,3.199100317E0
1.358398913E1,8.509663439E-1,2.451790513E-1,3.600461045E0,3.707772407E0
1.359397512E1,6.718041480E-1,2.264019243E-1,4.075863066E0,4.137056729E0
1.360396113E1,5.758098239E-1,8.865277939E-2,4.398442259E0,4.436858188E0
1.361394713E1,4.016174689E-1,3.354406921E-2,4.603797058E0,4.621403374E0
1.362393312E1,3.216582566E-1,1.231022351E-1,4.731348805E0,4.743867590E0
1.363391813E1,3.263418764E-1,1.639398836E-1,4.830864907E0,4.844649735E0
1.364390413E1,2.221912712E-1,7.445058692E-2,4.996494892E0,5.001986911E0
1.365389013E1,2.930342357E-1,-4.057901882E-2,5.027124361E0,5.035821191E0
1.366387613E1,3.782031709E-1,-6.641157903E-2,5.002885898E0,5.017600567E0
1.367386213E1,4.654784194E-1,-6.895065933E-2,4.960619300E0,4.982887536E0
1.368384813E1,5.603914471E-1,-9.891149998E-2,4.789960710E0,4.823644438E0
1.369383413E1,7.822400714E-1,1.294719726E-2,4.619955254E0,4.685728727E0
1.370382013E1,1.138838073E0,2.699096672E-1,4.552918096E0,4.700943157E0
1.371380613E1,1.611550960E0,5.634194277E-1,4.705795888E0,5.005901805E0
1.372379213E1,2.395759789E0,7.106676668E-1,4.814317871E0,5.424239123E0
1.373377813E1,3.211616234E0,5.101669344E-1,4.548132150E0,5.591087120E0
1.374376413E1,3.787016460E0,1.155544299E-1,3.753574480E0,5.333307405E0
1.375375013E1,4.095042518E0,-3.622113284E-1,2.860988240E0,5.008575045E0
1.376373613E1,4.151017621E0,-1.077082851E0,2.054297597E0,4.755122856E0
1.377372213E1,3.956441580E0,-1.883277065E0,1.360117325E0,4.588036793E0
1.378370813E1,3.864314020E0,-2.330139703E0,6.605236995E-1,4.560566351E0
1.379369413E1,4.026528061E0,-2.247099009E0,9.809815228E-2,4.612158435E0
1.380368013E1,4.387436045E0,-2.044628934E0,-9.179777741E-2,4.841335494E0
1.381366613E1,4.881877770E0,-1.873920935E0,1.643892056E-1,5.231762040E0
1.382365213E1,5.603186200E0,-1.905726280E0,5.397488755E-1,5.942963663E0
1.383363813E1,6.403950105E0,-2.119899849E0,6.903041536E-1,6.780934459E0
1.384362413E1,6.886990929E0,-3.332516481E0,3.635003471E-1,7.659532796E0
1.385361013E1,6.947376294E0,-4.968582623E0,-1.492731591E0,8.670703446E0
1.386359613E1,6.285349860E0,-5.810474673E0,-3.964893438E0,9.433324905E0
1.387358213E1,5.242380835E0,-6.744432303E0,-5.515253432E0,1.016798625E1
1.388356813E1,4.448408471E0,-7.533661405E0,-5.869728602E0,1.053556387E1
1.389355313E1,4.786557338E0,-8.192350833E0,-5.862718960E0,1.115335003E1
1.390353913E1,5.596519790E0,-8.100168893E0,-5.932776790E0,1.149485147E1
1.391352513E1,5.373791159E0,-7.829966134E0,-6.118162762E0,1.129681002E1
1.392351113E1,4.543000925E0,-8.291002716E0,-6.117596751E0,1.126075368E1
1.393349713E1,3.671616397E0,-9.288466955E0,-6.301479989E0,1.180953155E1
1.394348313E1,2.579111515E0,-1.007544488E1,-7.285355884E0,1.269814223E1
1.395346913E1,6.399549490E-1,-1.062738461E1,-8.046092674E0,1.334505352E1
1.396345513E1,-1.010167315E0,-1.108678398E1,-8.396342645E0,1.394402333E1
1.397344113E1,-1.860982216E0,-1.143477985E1,-8.749369460E0,1.451788245E1
1.398342713E1,-2.313357317E0,-1.182044699E1,-8.665683525E0,1.483808141E1
1.399341313E1,-2.877767994E0,-1.202880433E1,-7.622978793E0,1.452871254E1
1.400339913E1,-3.870274379E0,-1.128510165E1,-5.483524101E0,1.313017820E1
1.401338513E1,-5.391095409E0,-9.846060948E0,-3.054278478E0,1.163346221E1
1.402337113E1,-7.051886503E0,-8.272608545E0,-6.314589447E-1,1.088870496E1
1.403335713E1,-8.479723940E0,-7.033402285E0,7.912142318E-1,1.104538301E1
1.404334313E1,-9.640572833E0,-6.945204638E0,8.618684775E-1,1.191298994E1
1.405332913E1,-1.059120555E1,-7.322078152E0,2.348750514E-1,1.287795131E1
1.406331513E1,-1.196412126E1,-7.880218860E0,-3.105596566E-1,1.432949735E1
1.407330113E1,-1.369705823E1,-8.815498545E0,-8.093663281E-1,1.630881640E1
1.408328713E1,-1.547491467E1,-9.578542646E0,-9.519840109E-1,1.822437206E1
1.409327313E1,-1.649438608E1,-9.623336996E0,-1.443794489E-2,1.909642887E1
1.410325913E1,-1.685917866E1,-9.387548609E0,1.984019912E0,1.939830686E1
1.411324513E1,-1.673537556E1,-8.751987258E0,4.494057099E0,1.941305296E1
1.412323113E1,-1.596886991E1,-7.016127856E0,8.008752354E0,1.919299274E1
1.413321713E1,-1.445610049E1,-5.898705649E0,1.130853846E1,1.927839755E1
1.414320350E1,-1.207776892E1,-5.066553306E0,1.386705082E1,1.907452654E1
1.415318950E1,-9.065367612E0,-3.824317018E0,1.526009615E1,1.815700485E1
1.416317450E1,-7.030610824E0,-2.635170818E0,1.607445425E1,1.774152455E1
1.417316050E1,-5.959298590E0,-2.598726000E0,1.639189257E1,1.763407947E1
1.418314650E1,-4.740538289E0,-2.312131449E0,1.555150735E1,1.642157227E1
1.419313250E1,-3.696923146E0,-2.274951928E0,1.472905437E1,1.535537983E1
1.420311850E1,-2.666635562E0,-2.522641152E0,1.511157220E1,1.555102176E1
1.421310450E1,-9.874546829E-1,-2.390081265E0,1.577306069E1,1.598364785E1
1.422309050E1,1.228832715E0,-2.360713040E0,1.546121698E1,1.568860180E1
1.423307650E1,3.289249424E0,-1.919400286E0,1.453815447E1,1.502867907E1
1.424306250E1,4.090174127E0,-2.410849991E0,1.384488519E1,1.463634408E1
1.425304850E1,4.470815586E0,-3.369618818E0,1.258597499E1,1.377495152E1
1.426303450E1,4.018276471E0,-3.973052058E0,1.102285754E1,1.238689133E1
1.427302050E1,3.812610600E0,-5.101982170E0,1.052394503E1,1.230120485E1
1.428300650E1,4.381523341E0,-5.838493946E0,1.073413723E1,1.298104235E1
1.429299250E1,5.861784575E0,-6.012682500E0,1.109204413E1,1.391209230E1
1.430297850E1,7.564083883E0,-5.656829141E0,1.114950121E1,1.461254455E1
1.431296450E1,9.124345552E0,-5.018103277E0,1.087421430E1,1.505601471E1
1.432295050E1,1.020338430E1,-4.312983449E0,1.009058683E1,1.498435250E1
1.433293650E1,1.083665062E1,-3.709416892E0,8.691807715E0,1.437846625E1
1.434292250E1,1.116238380E1,-3.368311381E0,6.768579549E0,1.348176556E1
1.435290850E1,1.101468547E1,-3.271531483E0,4.734629678E0,1.242750709E1
1.436289450E1,1.027194290E1,-3.248401360E0,2.711754432E0,1.110938947E1
1.437288050E1,9.182779702E0,-3.120812775E0,9.872269338E-1,9.748719529E0
1.438286650E1,7.970174764E0,-3.074755427E0,-3.148404032E-1,8.548504617E0
1.439285250E1,6.969860008E0,-2.997000615E0,-1.060065699E0,7.660594005E0
1.440283850E1,6.221301214E0,-2.594151138E0,-1.338651611E0,6.872131915E0
1.441282450E1,5.847064794E0,-2.117963251E0,-1.227351615E0,6.338795393E0
1.442280950E1,5.768339052E0,-1.599640620E0,-1.062581756E0,6.079610639E0
1.443279550E1,5.763404002E0,-1.127790417E0,-1.047561429E0,5.965410452E0
1.444278150E1,5.641383137E0,-8.813482571E-1,-1.101865105E0,5.815159942E0
1.445276750E1,5.237236454E0,-7.882936938E-1,-1.287829952E0,5.450555808E0
1.446275350E1,4.601691476E0,-8.386381475E-1,-1.608196558E0,4.946228315E0
1.447273950E1,3.897744598E0,-9.474236944E-1,-2.054118673E0,4.506598288E0
1.448272550E1,3.194361978E0,-1.018832377E0,-2.486723168E0,4.174417321E0
1.449271150E1,2.523556534E0,-1.009592022E0,-2.719478604E0,3.844889792E0
1.450269750E1,1.991244732E0,-9.638458919E-1,-2.793426586E0,3.563325214E0
1.451268350E1,1.572770618E0,-8.782548608E-1,-2.731723258E0,3.272193603E0
1.452266950E1,1.313746858E0,-8.349299164E-1,-2.499934952E0,2.944947120E0
1.453265550E1,1.184915155E0,-6.883288910E-1,-2.093210818E0,2.501869724E0
1.454264150E1,1.213033246E0,-3.736261898E-1,-1.462082825E0,1.936164346E0
1.455262750E1,1.426176243E0,-1.150271572E-2,-7.700812250E-1,1.620844250E0
1.456261350E1,1.671941149E0,2.103085595E-1,-1.506155044E-1,1.691833895E0
1.457259950E1,1.666393311E0,3.013670296E-1,3.181095815E-1,1.723044532E0
1.458258550E1,1.589398052E0,3.785578045E-1,5.200145227E-1,1.714615783E0
1.459257150E1,1.541793823E0,4.081068550E-1,6.598851836E-1,1.726015021E0
1.460255750E1,1.448968690E0,3.640556864E-1,7.979198188E-1,1.693730452E0
1.461254350E1,1.285274718E0,2.756875934E-1,9.563922268E-1,1.625613989E0
1.462252950E1,1.036475985E0,1.148081059E-1,1.113877040E0,1.525839254E0
1.463251550E1,8.103527534E-1,-3.819408573E-2,1.245740524E0,1.486606816E0
1.464250150E1,7.356791317E-1,-4.684343331E-2,1.544501084E0,1.711403427E0
1.465248750E1,8.059904382E-1,5.100540832E-2,1.946555048E0,2.107438894E0
1.466247350E1,8.880689737E-1,1.836040333E-1,2.333298662E0,2.503329700E0
1.467245950E1,8.206204641E-1,2.287952627E-1,2.656949649E0,2.790187567E0
1.468244450E1,5.191891882E-1,2.316248766E-1,2.779897299E0,2.837434843E0
1.469243050E1,3.487840748E-1,3.099882375E-1,2.892164424E0,2.929566196E0
1.470241650E1,3.557276434E-1,3.675606537E-1,3.131948213E0,3.173443335E0
1.471240250E1,4.158270800E-1,4.824817570E-1,3.466648684E0,3.524677844E0
1.472238850E1,3.668800378E-1,5.943120953E-1,3.730065749E0,3.794891082E0
1.473237450E1,1.878610986E-1,6.670713385E-1,3.906448764E0,3.967444758E0
1.474236050E1,1.263326025E-1,5.371980277E-1,4.061388869E0,4.098709698E0
1.475234650E1,1.837089908E-1,3.715181954E-1,3.981044033E0,4.002559975E0
1.476233250E1,2.303267947E-1,2.525882410E-1,3.799644107E0,3.814989724E0
1.477231850E1,1.990234333E-1,7.676173545E-2,3.749780222E0,3.755842702E0
1.478230450E1,1.601224923E-1,-1.412712152E-1,3.699293607E0,3.705451385E0
1.479229050E1,2.311489132E-1,-2.663602977E-1,3.660461664E0,3.677411755E0
1.480227650E1,2.659331220E-1,-3.241386821E-1,3.717066219E0,3.740637324E0
1.481226250E1,4.084315217E-1,-5.031085777E-1,3.906722413E0,3.960102848E0
1.482224850E1,6.055932015E-1,-5.292430004E-1,4.128955784E0,4.206556448E0
1.483223450E1,8.513236088E-1,-4.512883599E-1,4.318801428E0,4.424981225E0
1.484222050E1,1.074374567E0,-3.485972928E-1,4.490190336E0,4.630076677E0
1.485220650E1,1.255874041E0,-4.057002872E-1,4.550766905E0,4.738279409E0
1.486219250E1,1.333524480E0,-5.225766264E-1,4.279843184E0,4.513139877E0
1.487217850E1,1.394135841E0,-6.564427084E-1,3.903350909E0,4.196508083E0
1.488216450E1,1.314604791E0,-9.924795607E-1,3.603294021E0,3.961935037E0
1.489215050E1,1.120807672E0,-1.363510610E0,3.467301818E0,3.890700826E0
1.490213650E1,1.082526463E0,-1.749035518E0,3.217610507E0,3.818901172E0
1.491212250E1,1.401008950E0,-1.770177734E0,3.005961181E0,3.759276248E0
1.492210850E1,2.197952869E0,-1.744381865E0,2.924358024E0,4.052867473E0
1.493209450E1,3.313304577E0,-1.763643909E0,2.838669418E0,4.706003731E0
1.494207950E1,4.742129316E0,-1.550936822E0,2.469675611E0,5.567090183E0
1.495206550E1,5.977235509E0,-1.558254028E0,2.239364312E0,6.570407329E0
1.496205150E1,6.382404284E0,-1.998405525E0,2.161048459E0,7.028430802E0
1.497203750E1,6.164173917E0,-2.220715494E0,2.082837857E0,6.875087703E0
1.498202350E1,5.886256342E0,-2.550841981E0,1.835193656E0,6.672536571E0
1.499200950E1,5.338567532E0,-3.104871804E0,1.458839960E0,6.345766009E0
1.500199550E1,4.678662761E0,-3.674139470E0,1.346770470E0,6.099424299E0
1.501198150E1,4.098036000E0,-4.619067646E0,9.070107365E-1,6.241182056E0
1.502196750E1,3.855883797E0,-5.262243242E0,4.605723131E-1,6.539967175E0
1.503195350E1,3.352367193E0,-5.887262648E0,4.206089330E-1,6.787867055E0
1.504193950E1,2.701921170E0,-6.467729194E0,-3.648697650E-1,7.018905106E0
1.505192550E1,2.306157641E0,-6.572676775E0,-1.676660437E0,7.164470202E0
1.506191150E1,1.606977414E0,-6.959300521E0,-2.435555938E0,7.546268805E0
1.507189750E1,5.911020470E-1,-8.027916604E0,-2.751483924E0,8.506909569E0
1.508188350E1,-1.762608075E-1,-9.146063865E0,-3.749622931E0,9.886416147E0
1.509186950E1,-9.105646741E-1,-9.693309456E0,-5.252936229E0,1.106267216E1
1.510185550E1,-1.799592299E0,-9.747686808E0,-6.459664714E0,1.183144956E1
1.511184150E1,-2.406991705E0,-9.852813313E0,-6.846353365E0,1.223699692E1
1.512182750E1,-2.674895339E0,-9.571718361E0,-7.341803150E0,1.235616975E1
1.513181350E1,-2.503666645E0,-9.487916651E0,-7.779920985E0,1.252262271E1
1.514180342E1,-2.177576199E0,-9.882471560E0,-8.417657501E0,1.316290394E1
1.515178942E1,-2.407477609E0,-1.019807736E1,-8.820425994E0,1.369659246E1
1.516177542E1,-3.538963539E0,-1.040425136E1,-9.292758227E0,1.439194444E1
1.517176142E1,-4.908051662E0,-1.054485117E1,-9.262773120E0,1.486882050E1
1.518174742E1,-6.124901678E0,-1.060666676E1,-8.409577818E0,1.485721372E1
1.519173242E1,-7.119616556E0,-1.091561259E1,-7.743940144E0,1.515942436E1
1.520171842E1,-8.546067034E0,-1.113192097E1,-7.057108067E0,1.570852318E1
1.521170442E1,-1.007799427E1,-1.120637825E1,-6.022150311E0,1.623007012E1
1.522169042E1,-1.136311403E1,-1.129404672E1,-4.893740602E0,1.675185210E1
1.523167642E1,-1.222221970E1,-1.133628701E1,-4.084835619E0,1.716333125E1
1.524166242E1,-1.250361578E1,-1.142216156E1,-3.579049711E0,1.730941302E1
1.525164842E1,-1.285659933E1,-1.168368412E1,-2.824191127E0,1.760047376E1
1.526163442E1,-1.326370003E1,-1.173392574E1,-2.044360254E0,1.782666992E1
1.527162042E1,-1.375916735E1,-1.196516675E1,-1.195780744E0,1.827319876E1
1.528160642E1,-1.439543329E1,-1.202896338E1,1.009942782E-1,1.875992163E1
1.529159242E1,-1.485271479E1,-1.197523331E1,1.045113199E0,1.910763228E1
1.530157842E1,-1.513401849E1,-1.188290695E1,2.018341314E0,1.934723998E1
1.531156442E1,-1.526775133E1,-1.170965862E1,3.403674756E0,1.953983975E1
1.532155042E1,-1.528129582E1,-1.084516416E1,5.397613301E0,1.950050812E1
1.533153642E1,-1.474809173E1,-9.472311017E0,8.113218709E0,1.931463703E1
1.534152242E1,-1.270585694E1,-8.200697733E0,1.179854683E1,1.918061394E1
1.535150842E1,-1.022804785E1,-6.636621341E0,1.548482921E1,1.970882141E1
1.536149442E1,-7.527158716E0,-4.358844915E0,1.897253313E1,2.087138378E1
1.537148042E1,-4.391978163E0,-2.260625080E0,2.207240644E1,2.261837802E1
1.538146642E1,-1.629808306E0,-9.159294945E-1,2.330593506E1,2.338080005E1
1.539145242E1,3.202762307E-1,-3.192857489E-1,2.318686002E1,2.319126986E1
1.540143842E1,2.035941433E0,1.384927645E-1,2.210826157E1,2.220224014E1
1.541142442E1,2.823822752E0,-5.016937342E-1,2.018348916E1,2.038624306E1
1.542141042E1,2.619742062E0,-2.389805277E0,1.837190363E1,1.871098770E1
1.543139642E1,1.980470360E0,-3.667281564E0,1.614108678E1,1.667050987E1
1.544138142E1,1.269230982E0,-4.785133541E0,1.356585840E1,1.444094749E1
1.545136742E1,4.995536533E-1,-5.775598955E0,1.153463392E1,1.290948786E1
1.546135342E1,-1.982390293E-1,-5.909301973E0,1.034280063E1,1.191354999E1
1.547133942E1,-4.078693119E-1,-5.714437664E0,1.009089673E1,1.160376456E1
1.548132542E1,-1.673373717E-1,-5.410566638E0,1.031286055E1,1.164720249E1
1.549131142E1,7.398537514E-1,-4.708251426E0,1.039801706E1,1.143825921E1
1.550129742E1,1.890859149E0,-4.049000081E0,9.958000045E0,1.091473842E1
1.551128342E1,3.234869149E0,-3.564823435E0,9.222053695E0,1.040281783E1
1.552126942E1,4.354719120E0,-3.356618704E0,8.276805092E0,9.936597520E0
1.553125542E1,5.173437485E0,-3.351737448E0,7.021621900E0,9.343541803E0
1.554124142E1,5.714021927E0,-3.480463901E0,5.556855787E0,8.697259441E0
1.555122742E1,5.914043480E0,-3.762712801E0,4.027189089E0,8.084068893E0
1.556121342E1,5.886598404E0,-3.895305725E0,2.592567127E0,7.519764077E0
1.557119942E1,5.816006139E0,-3.791163598E0,1.236270958E0,7.051752599E0
1.558118542E1,5.952212350E0,-3.655174319E0,8.824033141E-2,6.985479047E0
1.559117142E1,5.975535724E0,-3.364926135E0,-7.345283997E-1,6.897049155E0
1.560115742E1,5.856882269E0,-3.049950661E0,-1.105165858E0,6.695271505E0
1.561114342E1,5.622267419E0,-2.769269692E0,-9.442709488E-1,6.338011769E0
1.562112942E1,5.348120713E0,-2.543030978E0,-6.468458927E-1,5.957164705E0
1.563111542E1,5.180893854E0,-2.120664372E0,-4.708657515E-1,5.617881546E0
1.564110142E1,5.161523198E0,-1.617067515E0,-3.836165231E-1,5.422489346E0
1.565108742E1,5.128615068E0,-1.333009194E0,-1.727080393E-1,5.301833088E0
1.566107342E1,4.897156837E0,-1.145814971E0,-1.032939881E-1,5.030477779E0
1.567105942E1,4.602955644E0,-1.044262722E0,-1.570807707E-1,4.722537417E0
1.568104542E1,4.207010851E0,-1.114886708E0,-2.220655560E-1,4.357892356E0
1.569103042E1,3.756101939E0,-1.468286721E0,-3.296315199E-1,4.046334713E0
1.570101642E1,3.405934705E0,-1.834152852E0,-6.105972487E-1,3.916291217E0
1.571100242E1,3.104480333E0,-2.070702546E0,-8.637208754E-1,3.830355195E0
1.572098842E1,2.910222673E0,-2.106526682E0,-8.523158813E-1,3.692328943E0
1.573097442E1,2.787102823E0,-1.951610843E0,-6.447683769E-1,3.463012169E0
1.574096042E1,2.790273768E0,-1.629250920E0,-3.106035107E-1,3.246006901E0
1.575094642E1,2.922717295E0,-1.186015894E0,4.628948271E-2,3.154528935E0
1.576093242E1,3.112998556E0,-8.820824482E-1,4.703242993E-1,3.269561806E0
1.577091842E1,3.340894079E0,-6.000414895E-1,7.650894570E-1,3.479509292E0
1.578090442E1,3.423473136E0,-4.147648602E-1,9.948680753E-1,3.589144841E0
1.579089042E1,3.287607818E0,-3.916527171E-1,9.876093417E-1,3.455015084E0
1.580087642E1,3.092603761E0,-3.137077975E-1,7.170925874E-1,3.190114791E0
1.581086242E1,2.843275269E0,-3.788067497E-1,3.744369793E-1,2.892734323E0
1.582084842E1,2.632055714E0,-6.540048581E-1,-6.574492335E-2,2.712888134E0
1.583083442E1,2.389995165E0,-9.947182404E-1,-6.999818802E-1,2.681700188E0
1.584082042E1,2.224493380E0,-1.226087886E0,-1.491918828E0,2.945756964E0
1.585080642E1,2.186666281E0,-1.332264990E0,-1.957127983E0,3.222854227E0
1.586079242E1,2.305966291E0,-1.418241279E0,-2.212044366E0,3.496001879E0
1.587077842E1,2.501873012E0,-1.292964684E0,-2.323373598E0,3.650916476E0
1.588076442E1,2.661428909E0,-1.053920349E0,-2.250213236E0,3.641072856E0
1.589075042E1,2.872972400E0,-7.948397979E-1,-2.083269382E0,3.636722705E0
1.590073642E1,2.963750716E0,-5.984335052E-1,-1.817591783E0,3.527829482E0
1.591072242E1,2.951258432E0,-4.998417018E-1,-1.554552448E0,3.372892138E0
1.592070842E1,2.892975433E0,-5.087992707E-1,-1.362262083E0,3.237891526E0
1.593069342E1,2.751329265E0,-5.019759355E-1,-1.203286230E0,3.044616612E0
1.594067942E1,2.547336575E0,-4.916914871E-1,-9.513653755E-1,2.763291556E0
1.595066542E1,2.346619058E0,-4.801613626E-1,-5.581605881E-1,2.459414397E0
1.596065142E1,2.284824221E0,-3.904025093E-1,-3.310342669E-2,2.318174212E0
1.597063742E1,2.283403493E0,-2.493050294E-1,6.163479853E-1,2.378228196E0
1.598062342E1,2.147907135E0,-1.800943152E-1,1.254649342E0,2.494009621E0
1.599060942E1,1.891189224E0,-1.581483261E-1,1.777410886E0,2.600153271E0
1.600059542E1,1.637219944E0,-6.780511670E-2,2.173721715E0,2.722159579E0
1.601058142E1,1.493596979E0,-1.644185878E-2,2.815917901E0,3.187553278E0
1.602056742E1,1.408458303E0,5.689340830E-3,3.381088132E0,3.662723592E0
1.603055342E1,1.370998847E0,1.851191200E-1,3.951118568E0,4.186316383E0
1.604053942E1,1.288751619E0,1.006746548E-1,4.502792255E0,4.684672263E0
1.605052542E1,1.263637974E0,1.788038347E-1,5.011421664E0,5.171373012E0
1.606051142E1,1.353938864E0,3.877073814E-1,5.523427255E0,5.700150533E0
1.607049742E1,1.447511564E0,3.773422415E-1,5.968509125E0,6.153111251E0
1.608048342E1,1.513129456E0,4.190725771E-1,6.193209436E0,6.389133407E0
1.609046942E1,1.655977373E0,6.620305270E-1,6.175682407E0,6.428032255E0
1.610045542E1,1.980379436E0,8.739836159E-1,6.059693529E0,6.434721108E0
1.611044142E1,2.483727640E0,8.285583517E-1,6.051979297E0,6.594078051E0
1.612042742E1,3.276515942E0,7.689904270E-1,5.802437090E0,6.707844600E0
1.613041342E1,4.236123553E0,6.152370143E-1,5.547342367E0,7.006872817E0
1.614039942E1,5.070190859E0,2.690926650E-1,5.461253811E0,7.456845137E0
1.615038175E1,5.692659125E0,-2.586971927E-1,4.843855666E0,7.479052738E0
1.616036775E1,5.709342400E0,-1.210339141E0,3.751004629E0,6.937690337E0
1.617035275E1,5.249219738E0,-2.438870433E0,2.857141941E0,6.454894029E0
1.618033875E1,4.693122340E0,-3.374006569E0,2.085414725E0,6.144776009E0
1.619032475E1,4.269801176E0,-4.138904237E0,1.272972177E0,6.081298260E0
1.620031075E1,4.058271718E0,-4.956199974E0,4.899475551E-1,6.424448313E0
1.621029675E1,4.275634651E0,-5.755892084E0,-4.453830010E-1,7.183989934E0
1.622028275E1,5.100513350E0,-7.011150121E0,-1.983988922E0,8.894249518E0
1.623026875E1,5.816928245E0,-7.923493518E0,-3.336655725E0,1.038035044E1
1.624025475E1,6.095366807E0,-8.746773881E0,-4.552356763E0,1.159238983E1
1.625024075E1,4.305929952E0,-9.677269374E0,-4.759817436E0,1.161233987E1
1.626022675E1,7.435126466E-1,-1.095241730E1,-4.779325502E0,1.197289472E1
1.627021275E1,-1.500603697E0,-1.082648231E1,-5.212455955E0,1.210926206E1
1.628019875E1,-2.885513216E0,-1.009434308E1,-5.465012401E0,1.183589073E1
1.629018475E1,-3.565175437E0,-1.031359379E1,-5.573356630E0,1.225328514E1
1.630017075E1,-3.108488599E0,-1.053803682E1,-6.607414498E0,1.282071947E1
1.631015675E1,-2.513167201E0,-1.019473510E1,-8.570989621E0,1.355398451E1
1.632014275E1,-2.240648945E0,-1.063107304E1,-9.996806846E0,1.476402278E1
1.633012875E1,-2.887039340E0,-1.140432287E1,-1.077559282E1,1.595327480E1
1.634011475E1,-4.143542249E0,-1.174562953E1,-1.066081315E1,1.639456289E1
1.635010075E1,-5.969933506E0,-1.199339242E1,-8.390546885E0,1.580768310E1
1.636008675E1,-8.207844200E0,-1.199340178E1,-5.728811874E0,1.562144930E1
1.637007275E1,-1.050256410E1,-1.172203250E1,-4.234790095E0,1.629856883E1
1.638005875E1,-1.302626916E1,-1.200184282E1,-2.999755239E0,1.796458880E1
1.639004475E1,-1.533137371E1,-1.224623422E1,-1.268413980E0,1.966291297E1
1.640003075E1,-1.673414648E1,-1.225389173E1,1.352879056E-1,2.074145182E1
1.641001575E1,-1.679549312E1,-1.250791115E1,1.100263553E0,2.097014569E1
1.642000175E1,-1.595127681E1,-1.250573248E1,2.509013924E0,2.042380296E1
1.642998775E1,-1.523903098E1,-1.204453568E1,3.512617739E0,1.973923474E1
1.643997375E1,-1.471672610E1,-1.113990476E1,4.461529039E0,1.898906913E1
1.644995975E1,-1.396250311E1,-1.021091785E1,5.573753071E0,1.817363639E1
1.645994575E1,-1.344362236E1,-8.924052688E0,7.269469584E0,1.769787802E1
1.646993175E1,-1.298430603E1,-8.259248242E0,9.337468961E0,1.799988087E1
1.647991775E1,-1.240379680E1,-7.162933314E0,1.114749679E1,1.815016455E1
1.648990375E1,-1.109787147E1,-5.906385967E0,1.287870999E1,1.799748086E1
1.649988975E1,-8.628004652E0,-4.625349310E0,1.501170877E1,1.792171088E1
1.650987575E1,-5.933073828E0,-3.493102365E0,1.683679552E1,1.819012953E1
1.651986175E1,-3.304130588E0,-1.772129096E0,1.854821005E1,1.892336694E1
1.652984775E1,-1.089954765E0,-2.952569085E-1,2.009834434E1,2.013004280E1
1.653983375E1,4.636954571E-1,4.705342144E-1,2.091066994E1,2.092110259E1
