"Time (s)","Linear Acceleration x (m/s^2)","Linear Acceleration y (m/s^2)","Linear Acceleration z (m/s^2)","Absolute acceleration (m/s^2)"
4.711416666E-3,5.348208421E-1,3.869073361E-1,9.457637429E-1,1.153342827E0
1.469741663E-2,4.627675040E-1,3.106152052E-1,5.490652442E-1,7.823734472E-1
2.468341665E-2,1.761405011E-1,2.568424559E-1,-2.181438285E-1,3.802371012E-1
3.467041667E-2,-5.918171614E-2,3.192854565E-1,-7.539528501E-1,8.209083862E-1
4.465641663E-2,-7.726481527E-2,4.644893628E-1,-8.276919405E-1,9.522574065E-1
5.464241665E-2,5.076625720E-2,6.159217232E-1,-5.919165641E-1,8.557464583E-1
6.462841667E-2,1.771507537E-1,6.963302940E-1,-2.152804470E-1,7.500692893E-1
7.461541664E-2,2.960968611E-1,7.405779290E-1,1.003038682E-1,8.038593696E-1
8.460141666E-2,4.728830409E-1,8.011322790E-1,3.520766419E-1,9.946804817E-1
9.458741668E-2,5.623081644E-1,8.781997508E-1,5.359329826E-1,1.172454449E0
1.045734166E-1,5.201791218E-1,1.027445253E0,4.534328628E-1,1.237671777E0
1.145604167E-1,4.941423476E-1,1.143440562E0,2.928314835E-1,1.279602773E0
1.245464166E-1,5.639743285E-1,1.261240908E0,2.450147080E-1,1.403149272E0
1.345324166E-1,6.895922551E-1,1.448780410E0,3.369494565E-1,1.639523434E0
1.445184167E-1,7.369725358E-1,1.609853659E0,2.593414097E-1,1.789417584E0
1.545044166E-1,8.708382525E-1,1.775003588E0,-3.208601117E-2,1.977378697E0
1.644914167E-1,1.176941307E0,2.032561158E0,1.669928245E-1,2.354651207E0
1.744774167E-1,1.674622390E0,2.326736332E0,1.133938399E0,3.082836096E0
1.844634166E-1,2.196881366E0,2.515454632E0,1.758142118E0,3.774236804E0
1.944494167E-1,2.131840740E0,2.551938334E0,1.669050286E0,3.720599825E0
2.044364167E-1,2.004391612E0,2.425936099E0,1.311239864E0,3.409120366E0
2.144224166E-1,2.094741326E0,2.001268029E0,6.768105340E-1,2.975077721E0
2.244084167E-1,1.349435777E0,1.875212000E0,7.922228765E-1,2.442337824E0
2.343944167E-1,9.893154131E-1,1.954699050E0,8.580777276E-1,2.352847370E0
2.443804166E-1,1.459722158E0,1.730930200E0,8.610415350E-1,2.422457566E0
2.543674167E-1,2.186254344E0,1.661048371E0,1.320683556E0,3.046800749E0
2.643534166E-1,2.723105047E0,1.374425461E0,2.005898439E0,3.650749922E0
2.743394166E-1,1.710135600E0,6.709025073E-1,1.969935724E0,2.693570252E0
2.843254167E-1,6.530392635E-1,1.510914677E-1,2.523374101E0,2.610882181E0
2.943124166E-1,3.392727745E-1,-3.335047156E-1,2.168422968E0,2.219997653E0
3.042984167E-1,-6.802738398E-2,-4.492830938E-1,1.533746300E0,1.599643941E0
3.142844167E-1,1.169907984E-1,-2.595812917E-1,1.501024112E0,1.527790129E0
3.242704166E-1,3.492103368E-1,-3.945391220E-1,2.326010107E0,2.384938573E0
3.342564167E-1,1.355552696E-1,-1.202234901E0,3.111228020E0,3.338185701E0
3.442434167E-1,-2.687690216E-1,-2.073694566E0,3.371435548E0,3.967243828E0
3.542294166E-1,-1.086265172E0,-2.316187955E0,3.257789065E0,4.142208138E0
3.642154167E-1,-1.603400087E0,-2.670639151E0,3.080238361E0,4.380761769E0
3.742014167E-1,-1.629020832E0,-3.324093567E0,2.945731644E0,4.730818304E0
3.841884166E-1,-1.841902459E0,-3.613452973E0,3.042133226E0,5.069933099E0
3.941744167E-1,-1.931452859E0,-3.849477003E0,3.204288796E0,5.368095568E0
4.041604166E-1,-2.271606151E0,-4.540212681E0,3.582353972E0,6.213451993E0
4.141464166E-1,-2.654312263E0,-4.827626719E0,3.258800633E0,6.400869854E0
4.241324167E-1,-2.710813031E0,-5.111133648E0,2.693809327E0,6.381912185E0
4.341194166E-1,-2.629520361E0,-5.806057686E0,2.991230291E0,7.040748670E0
4.441054167E-1,-2.883957857E0,-6.617885692E0,3.929277463E0,8.219053798E0
4.540914167E-1,-2.620040270E0,-7.918266692E0,4.609361268E0,9.529416022E0
4.640774166E-1,-2.761083005E0,-8.774254040E0,4.367328056E0,1.018256685E1
4.740644167E-1,-3.103933910E0,-8.914567335E0,2.785628740E0,9.841932939E0
4.840504167E-1,-2.867186288E0,-9.658609155E0,2.355189468E0,1.034680653E1
4.940364166E-1,-2.738130637E0,-9.632189680E0,2.114543799E0,1.023463399E1
5.040224167E-1,-3.324877093E0,-8.827262558E0,2.467280153E-1,9.435902006E0
5.140084167E-1,-2.946776834E0,-9.004892199E0,-8.113364013E-1,9.509460762E0
5.239954166E-1,-2.380855675E0,-9.383238627E0,-6.884159414E-1,9.705027428E0
5.339814167E-1,-3.025554323E0,-1.060601889E1,-5.228428209E-1,1.104151168E1
5.439674166E-1,-3.252385945E0,-1.114127535E1,-1.140250175E0,1.166216966E1
5.539534166E-1,-2.019456378E0,-1.175112825E1,-2.084420114E0,1.210421523E1
5.639404167E-1,-4.555945784E-1,-1.162920678E1,-3.228219695E0,1.207755850E1
5.739264166E-1,2.074693270E0,-9.015810705E0,-5.513550138E0,1.076979248E1
5.839124167E-1,3.348834890E0,-6.627916591E0,-7.700788862E0,1.069794946E1
5.938984167E-1,3.307305626E0,-5.539136969E0,-9.057913581E0,1.112052640E1
6.038844166E-1,3.335229004E0,-5.386890677E0,-9.570888641E0,1.147798994E1
6.138714167E-1,3.740711775E0,-6.356758981E0,-9.073137392E0,1.169286669E1
6.238574167E-1,4.030610295E0,-7.477372014E0,-8.328133121E0,1.189599566E1
6.338434166E-1,4.059755741E0,-8.138075808E0,-7.787957983E0,1.197339484E1
6.438294167E-1,4.799764736E0,-8.487472086E0,-7.527655145E0,1.231830004E1
6.538164166E-1,6.056043697E0,-7.923005276E0,-7.323383836E0,1.237261608E1
6.638024166E-1,6.869406597E0,-7.240749815E0,-7.719653149E0,1.261785440E1
6.737884167E-1,7.331589818E0,-6.043767468E0,-8.759056542E0,1.292286369E1
6.837744166E-1,7.863874138E0,-4.500000794E0,-1.028610369E1,1.370745975E1
6.937614167E-1,8.687187830E0,-3.632490338E0,-1.143472839E1,1.481267133E1
7.037474167E-1,9.217048479E0,-3.487433197E0,-1.255659624E1,1.596196360E1
7.137334166E-1,1.083101273E1,-3.435840290E0,-1.373674679E1,1.782733989E1
7.237194167E-1,1.224939522E1,-3.633377945E0,-1.441529628E1,1.926265520E1
7.337054167E-1,1.299523564E1,-4.303013069E0,-1.367293729E1,1.934790131E1
7.436924166E-1,1.452123965E1,-5.007943155E0,-1.196334241E1,1.946965478E1
7.536784167E-1,1.566140460E1,-4.982166874E0,-1.013314988E1,1.930757124E1
7.636644167E-1,1.613910925E1,-4.515375755E0,-9.205759844E0,1.912081274E1
7.736504166E-1,1.640130659E1,-3.555242187E0,-9.967266712E0,1.951893979E1
7.836374167E-1,1.736035287E1,-1.490538300E0,-1.149130839E1,2.087231958E1
7.936234166E-1,2.067101596E1,-3.939386129E-1,-1.360688831E1,2.475062622E1
8.036094166E-1,2.542060633E1,-3.058816502E0,-1.525481144E1,2.980390673E1
8.135954167E-1,2.684359642E1,-8.193037881E0,-9.844260006E0,2.974246112E1
8.235814166E-1,2.328465353E1,-1.116668969E1,2.348435934E0,2.593039144E1
8.335684167E-1,1.546483173E1,-1.056898730E1,1.376945845E1,2.324784934E1
8.435544167E-1,1.171764826E1,-8.747576119E0,1.573019826E1,2.147702274E1
8.535404166E-1,8.502698236E0,-6.326722419E0,1.599786391E1,1.918996987E1
8.635264167E-1,5.073848877E0,-2.242954502E0,1.374950775E1,1.482645442E1
8.735134167E-1,6.382336457E0,-2.687918842E0,9.523116889E0,1.177492597E1
8.834994166E-1,5.570000328E0,-1.625129510E0,8.655221102E0,1.042011525E1
8.934854167E-1,5.184493985E0,-4.708464557E-1,8.948245543E0,1.035238004E1
9.034714167E-1,4.613947240E0,-4.954392600E-1,9.305368332E0,1.039826183E1
9.134574166E-1,3.640626154E0,-2.984787244E-1,9.696275164E0,1.036151535E1
9.234445833E-1,2.740356380E0,-5.622518849E-1,8.463337119E0,8.913683608E0
9.334305833E-1,1.596290019E0,-1.141842518E0,6.212938526E0,6.515562239E0
9.434165833E-1,1.063422878E-1,-1.639486179E0,3.266198530E0,3.656128615E0
9.534025833E-1,-1.013398779E0,-1.942341544E0,1.223442167E0,2.509278481E0
9.633895833E-1,-1.074721161E0,-2.073498099E0,1.323444757E0,2.684385585E0
9.733755833E-1,-8.527724026E-1,-1.902490430E0,2.353579144E0,3.144205050E0
9.833615833E-1,-7.104539511E-1,-1.653166324E0,3.043169353E0,3.535333566E0
9.933475833E-1,-8.412285371E-1,-1.484364810E0,3.098308012E0,3.537020904E0
1.003334583E0,-1.135426661E0,-1.286336573E0,2.788337170E0,3.273939470E0
1.013320583E0,-1.205319161E0,-1.212582133E0,2.181734739E0,2.771843462E0
1.023306583E0,-9.470445755E-1,-1.097407188E0,1.231266911E0,1.901897518E0
1.033292583E0,-6.028885719E-1,-5.202460724E-1,2.414151621E-1,8.321129049E-1
1.043278583E0,-3.149292809E-1,-2.474483192E-1,-8.313582909E-1,9.228042753E-1
1.053265583E0,-3.641517270E-1,-3.053217208E-1,-1.595043831E0,1.664329492E0
1.063251583E0,-3.608483425E-1,-2.492720658E-1,-1.999205716E0,2.046746585E0
1.073237583E0,-2.382506490E-1,-2.809797621E-1,-2.098588502E0,2.130677521E0
1.083223583E0,-7.906955838E-2,-1.831792331E-1,-2.142378300E0,2.151648532E0
1.093210583E0,1.764542042E-1,2.046040159E-1,-2.466804044E0,2.481556181E0
1.103196583E0,6.902798876E-1,7.046467888E-1,-2.967421013E0,3.127075453E0
1.113182583E0,1.508752962E0,1.436404193E0,-3.457180873E0,4.036296829E0
1.123168583E0,2.384138594E0,2.200872091E0,-3.962784348E0,5.121680836E0
1.133154583E0,2.889298996E0,2.663870999E0,-4.553174788E0,6.014620357E0
1.143141583E0,3.269760362E0,2.840391423E0,-4.828655244E0,6.486529713E0
1.153127583E0,3.384044776E0,2.770492637E0,-4.778297853E0,6.477616759E0
1.163113583E0,3.340858119E0,2.770274536E0,-4.496611163E0,6.249421247E0
1.173099583E0,3.361169592E0,2.738904809E0,-4.252088791E0,6.072834565E0
1.183086583E0,3.709235628E0,2.580665120E0,-4.041926996E0,6.062626102E0
1.193072583E0,4.163782386E0,2.484197756E0,-4.078506008E0,6.335813563E0
1.203058583E0,4.497223951E0,2.752386734E0,-4.799356016E0,7.129829884E0
1.213044583E0,5.525717610E0,2.998510074E0,-5.545833201E0,8.383369469E0
1.223030583E0,7.162035767E0,3.356384815E0,-5.251055764E0,9.493874972E0
1.233017583E0,9.202216431E0,4.137390393E0,-5.735621542E0,1.160586666E1
1.243003583E0,1.173062089E1,3.549234758E0,-7.314353396E0,1.427250151E1
1.252989583E0,1.324805755E1,9.096238571E-1,-7.090026137E0,1.505346854E1
1.262975583E0,1.190177825E1,-2.263022146E0,-4.473504721E0,1.291455920E1
1.272962583E0,7.688275235E0,-5.237707740E0,-7.359761703E-1,9.331924742E0
1.282948583E0,1.845630351E0,-7.121880013E0,3.385160133E0,8.098569963E0
1.292934583E0,-3.380358984E0,-6.827961532E0,5.606068293E0,9.459169480E0
1.302920583E0,-5.551779234E0,-6.139481125E0,4.091392686E0,9.233362078E0
1.312907583E0,-5.423512373E0,-5.686076329E0,1.570086746E0,8.013184315E0
1.322893583E0,-4.213161537E0,-4.995805505E0,1.862870282E-1,6.537851760E0
1.332879583E0,-3.254791197E0,-5.241086261E0,1.865858209E-1,6.172314412E0
1.342865583E0,-3.727832113E0,-6.295528108E0,1.072281702E0,7.394605769E0
1.352851583E0,-4.121525143E0,-7.304752852E0,1.682335160E0,8.554334301E0
1.362838583E0,-3.938775095E0,-7.580567769E0,3.214388984E0,9.127499849E0
1.372824583E0,-2.811450044E0,-7.558929563E0,5.757394234E0,9.909049190E0
1.382810583E0,-1.956335685E0,-7.558767010E0,7.870097330E0,1.108605611E1
1.392796583E0,-1.991037156E0,-7.712732384E0,8.966232748E0,1.199348988E1
1.402783583E0,-1.699973871E0,-8.091549513E0,9.320558814E0,1.245937002E1
1.412769583E0,-6.177062935E-1,-8.320996594E0,9.308134065E0,1.250047620E1
1.422755583E0,6.002698964E-1,-9.017229824E0,9.011390795E0,1.276228513E1
1.432741583E0,1.385910562E0,-1.018853237E1,8.673505345E0,1.345201230E1
1.442727583E0,2.129448937E0,-1.042189007E1,7.506689368E0,1.301924463E1
1.452714583E0,2.369290613E0,-1.103511330E1,6.668930715E0,1.310961100E1
1.462700583E0,1.082388322E0,-1.184958600E1,4.777652321E0,1.282225466E1
1.472686583E0,-3.427664128E-1,-1.206858762E1,1.160608572E0,1.212910995E1
1.482672583E0,-1.654118105E0,-1.311896507E1,-7.444043469E-1,1.324377170E1
1.492659583E0,-1.724112785E0,-1.428094598E1,-1.302060320E0,1.444345333E1
1.502645583E0,-1.194880857E0,-1.514110064E1,-8.843213470E-1,1.521389802E1
1.512631583E0,9.486482475E-2,-1.666618663E1,7.357199161E-1,1.668268743E1
1.522617583E0,1.906350470E0,-1.637972802E1,1.924876788E0,1.660225325E1
1.532604583E0,3.803033153E0,-1.491774519E1,2.404053479E0,1.558145230E1
1.542590583E0,4.963234760E0,-1.359662996E1,5.916189408E-1,1.448627138E1
1.552576583E0,5.775482596E0,-9.266212453E0,-4.580113496E0,1.184045320E1
1.562562583E0,6.114035212E0,-4.196021009E0,-1.058621905E1,1.292501654E1
1.572548583E0,5.315894954E0,-3.095800726E0,-1.373727304E1,1.505175710E1
1.582535583E0,4.991991366E0,-3.975944676E0,-1.243718440E1,1.397897241E1
1.592521583E0,5.175455943E0,-6.031626894E0,-8.642456045E0,1.174129097E1
1.602507583E0,5.609981250E0,-7.784087711E0,-4.464997022E0,1.058301042E1
1.612493583E0,6.466872577E0,-8.176876761E0,-2.044074326E0,1.062355846E1
1.622480583E0,6.144074113E0,-8.560136604E0,-1.589236962E0,1.065604333E1
1.632466583E0,6.002028873E0,-8.493553775E0,-2.050436096E0,1.060042898E1
1.642452583E0,6.898980060E0,-6.646247612E0,-3.352837894E0,1.014938693E1
1.652438583E0,7.800288591E0,-4.046309192E0,-5.545859513E0,1.039103835E1
1.662425583E0,8.378519747E0,-1.641991711E0,-8.355100479E0,1.194585426E1
1.672411583E0,8.200977815E0,-1.050693051E0,-9.576000277E0,1.265147321E1
1.682397583E0,8.220237374E0,-2.181690592E0,-8.876054649E0,1.229294198E1
1.692383583E0,8.395644488E0,-3.544787073E0,-7.522599642E0,1.181701600E1
1.702369583E0,8.000488485E0,-4.917386157E0,-7.291329399E0,1.188915418E1
1.712356583E0,8.618878902E0,-6.053356317E0,-7.597096678E0,1.298630333E1
1.722342583E0,1.017241277E1,-6.010077565E0,-7.893007890E0,1.420910227E1
1.732328583E0,1.162063944E1,-4.366911734E0,-9.310604514E0,1.551762016E1
1.742314583E0,1.343837156E1,-1.939704742E0,-1.164426103E1,1.788689742E1
1.752301583E0,1.490151565E1,1.320893325E-1,-1.382459302E1,2.032712445E1
1.762287583E0,1.607767022E1,1.243837109E0,-1.475236020E1,2.185567985E1
1.772273583E0,1.757908083E1,6.587813023E-1,-1.362314942E1,2.224968035E1
1.782259583E0,1.858462417E1,-1.894993131E0,-9.763847927E0,2.107870918E1
1.792245583E0,1.719197995E1,-4.750124799E0,-5.293039942E0,1.860494913E1
1.802232583E0,1.358393215E1,-5.803385509E0,-2.452146828E0,1.497382783E1
1.812218583E0,1.262120329E1,-6.089726583E0,-1.810800827E0,1.413005810E1
1.822204583E0,1.357047536E1,-4.902127848E0,-2.719423056E0,1.468277633E1
1.832190583E0,1.433094786E1,-2.606639914E0,-5.200210716E0,1.546650671E1
1.842177583E0,1.668750441E1,-2.079505529E0,-5.615643693E0,1.772942753E1
1.852163583E0,1.869647439E1,-3.933970438E0,-2.839683909E0,1.931574701E1
1.862149583E0,1.670101147E1,-6.633108333E0,3.778720431E0,1.836302368E1
1.872135583E0,1.204830714E1,-7.442285796E0,9.708205823E0,1.716969956E1
1.882122583E0,7.756261396E0,-8.480194057E0,1.472995718E1,1.868274392E1
1.892108583E0,2.407403203E0,-6.740511745E0,1.833827630E1,1.968559032E1
1.902094583E0,2.110685952E0,-5.736579316E0,1.784533731E1,1.886317579E1
1.912080583E0,1.808210071E0,-4.523411876E0,1.595864196E1,1.668559654E1
1.922066583E0,1.423567508E0,-2.622622985E0,1.277392321E1,1.311784319E1
1.932053417E0,1.039836526E0,-1.637604545E0,7.828852825E0,8.065602593E0
1.942039417E0,6.953729586E-1,-2.199675751E-1,2.762098959E0,2.856767394E0
1.952025417E0,7.408015850E-1,7.706659466E-1,5.093275666E-2,1.070190233E0
1.962011417E0,8.729795028E-1,4.123643589E-1,4.115960348E-1,1.049546985E0
1.971998417E0,6.014400704E-1,-5.203852361E-1,2.218599679E0,2.356844392E0
1.981984417E0,-2.227050953E-1,-1.296525346E0,3.684821164E0,3.912605595E0
1.991970417E0,-1.086158022E0,-1.885053449E0,4.500528798E0,4.998792375E0
2.001956417E0,-1.652466705E0,-2.107106726E0,4.540996208E0,5.271735153E0
2.011942417E0,-1.887690543E0,-2.038566248E0,3.964443203E0,4.841067841E0
2.021929417E0,-1.773250008E0,-1.856142476E0,2.862282228E0,3.844780883E0
2.031915417E0,-1.522455912E0,-1.484707457E0,1.871793133E0,2.832990958E0
2.041901417E0,-1.225688960E0,-1.145530357E0,5.764150107E-1,1.773924319E0
2.051887417E0,-1.057233600E0,-8.758070701E-1,-1.063263541E0,1.736464877E0
2.061874417E0,-8.798311239E-1,-6.693190813E-1,-2.144928855E0,2.413050069E0
2.071860417E0,-6.274264124E-1,-6.327207738E-1,-1.905467248E0,2.103522026E0
2.081846417E0,-5.565297997E-1,-7.469578260E-1,-1.056534566E0,1.408522879E0
2.091832417E0,-5.810176465E-1,-7.357744414E-1,-3.871681219E-1,1.014319816E0
2.101819417E0,-3.877136672E-1,-5.218359303E-1,-2.380430728E-1,6.923143292E-1
2.111805417E0,-1.212139499E-1,-3.278832024E-1,-5.215546793E-1,6.278690147E-1
2.121791417E0,1.980212206E-1,2.616979837E-2,-1.091797369E0,1.109918356E0
2.131777417E0,6.928538319E-1,5.562596583E-1,-1.597673909E0,1.828122851E0
2.141763417E0,1.094165199E0,9.698870158E-1,-2.136717026E0,2.589099835E0
2.151750417E0,1.416592365E0,1.336825526E0,-2.507670819E0,3.175255793E0
2.161736417E0,1.736972128E0,1.595554293E0,-2.914091483E0,3.748972505E0
2.171722417E0,1.733414097E0,1.425116143E0,-3.472344457E0,4.134350793E0
2.181708417E0,1.473498344E0,1.117465476E0,-3.798815557E0,4.225035633E0
2.191695417E0,1.614949508E0,1.115090922E0,-4.164983404E0,4.604191181E0
2.201681417E0,2.137009094E0,1.439123148E0,-4.211444210E0,4.937017889E0
2.211667417E0,2.595859987E0,1.917311953E0,-4.235680334E0,5.324994093E0
2.221653417E0,3.223365921E0,2.374951887E0,-4.591896220E0,6.092289818E0
2.231639417E0,3.631246051E0,2.622948090E0,-4.969136939E0,6.690151454E0
2.241626417E0,3.596347529E0,2.703711587E0,-5.539684854E0,7.136657493E0
2.251612417E0,4.098687673E0,2.575732993E0,-6.187825320E0,7.856387419E0
2.261598417E0,5.052570859E0,2.464504334E0,-6.191472228E0,8.362809471E0
2.271584417E0,5.489782961E0,2.063868320E0,-5.910318804E0,8.326412058E0
2.281571417E0,5.406316881E0,1.091885077E0,-5.859449197E0,8.046963411E0
2.291557417E0,5.266684787E0,-3.118606621E-1,-5.048958449E0,7.302547989E0
2.301543417E0,4.792760064E0,-1.150610418E0,-3.327873791E0,5.947200799E0
2.311529417E0,3.916249866E0,-1.170322552E0,-2.216818618E0,4.649833618E0
2.321516417E0,3.459880240E0,-1.034270707E0,-2.432014572E0,4.353754937E0
2.331502417E0,3.300694764E0,-1.104544299E0,-2.617369554E0,4.354908428E0
2.341488417E0,3.345968877E0,-1.332010928E0,-2.966414123E0,4.665766131E0
2.351474417E0,3.206760998E0,-1.899977297E0,-3.311555382E0,4.985943128E0
2.361460417E0,2.709732173E0,-2.981634425E0,-2.970422974E0,5.005617338E0
2.371447417E0,2.071298669E0,-4.115649276E0,-2.213458807E0,5.111579700E0
2.381433417E0,9.312746349E-1,-5.307693064E0,-8.883487630E-1,5.461505437E0
2.391419417E0,-3.540456918E-1,-6.330362896E0,7.137516345E-1,6.380304392E0
2.401405417E0,-1.686643973E0,-6.724183980E0,1.953636026E0,7.202507328E0
2.411392417E0,-2.299014975E0,-6.723657146E0,2.723693862E0,7.609963437E0
2.421378417E0,-2.511891631E0,-7.008481452E0,3.606515544E0,8.272567086E0
2.431364417E0,-2.705371319E0,-7.351255174E0,4.113517381E0,8.847655726E0
2.441350417E0,-2.709236621E0,-7.576068921E0,4.124606918E0,9.041524517E0
2.451337417E0,-2.416650136E0,-7.821611048E0,4.598854406E0,9.389742229E0
2.461323417E0,-2.369206121E0,-7.943051285E0,5.923556315E0,1.018792034E1
2.471309417E0,-2.082779677E0,-7.753160618E0,6.588653707E0,1.038555865E1
2.481295417E0,-1.462314375E0,-7.579108889E0,7.388817687E0,1.068531149E1
2.491281417E0,-8.910887682E-1,-7.765450296E0,9.391806552E0,1.221893153E1
2.501268417E0,-3.423772806E-1,-8.211981105E0,1.114436268E1,1.384740681E1
2.511254417E0,1.635337579E-1,-8.906941397E0,1.133031700E1,1.441306462E1
2.521240417E0,5.636394292E-1,-9.881565242E0,1.011296062E1,1.415044146E1
2.531226417E0,4.645159677E-1,-1.124055405E1,8.069290332E0,1.384482853E1
2.541213417E0,5.455560377E-1,-1.252278997E1,5.841642671E0,1.382905236E1
2.551199417E0,7.362325707E-1,-1.344232779E1,3.895837821E0,1.401484096E1
2.561185417E0,1.202550943E0,-1.394374290E1,1.813474904E0,1.411250460E1
2.571171417E0,1.898269910E0,-1.369891530E1,-3.784423220E-1,1.383498926E1
2.581158417E0,3.229216061E0,-1.205000984E1,-2.527128598E0,1.272858800E1
2.591144417E0,3.454127749E0,-9.922363604E0,-3.683952852E0,1.113354421E1
2.601130417E0,3.536701836E0,-9.780877942E0,-3.579142681E0,1.099927705E1
2.611116417E0,3.349295943E0,-1.032356563E1,-4.213878990E0,1.164261855E1
2.621102417E0,3.564332269E0,-1.059650547E1,-5.358232888E0,1.239762285E1
2.631089417E0,4.264908518E0,-1.048697893E1,-6.288704993E0,1.295044332E1
2.641075417E0,4.492689143E0,-1.097685866E1,-6.643985324E0,1.359478660E1
2.651061417E0,4.713025970E0,-1.173848774E1,-6.588224521E0,1.426216710E1
2.661047417E0,5.567582504E0,-1.067043182E1,-6.755842559E0,1.380208313E1
2.671034417E0,6.305839673E0,-9.244204118E0,-7.245343387E0,1.333093862E1
2.681020417E0,7.025528424E0,-8.135766742E0,-7.705088904E0,1.322562457E1
2.691006417E0,8.065166291E0,-6.672871739E0,-8.220756022E0,1.330995695E1
2.700992417E0,7.992039258E0,-3.864434180E0,-8.676948770E0,1.241354031E1
2.710979417E0,7.978414076E0,-1.506060319E0,-1.055138484E1,1.331371590E1
2.720965417E0,8.965759708E0,-1.953567029E0,-1.166296276E1,1.484001252E1
2.730951417E0,9.492734756E0,-2.263058399E0,-9.972778298E0,1.395312701E1
2.740937417E0,8.539690645E0,-2.731583802E0,-7.363595138E0,1.160217220E1
2.750923417E0,7.280175251E0,-3.738659402E0,-5.453398662E0,9.834535209E0
2.760910417E0,6.366606862E0,-5.017982824E0,-4.358640555E0,9.203889506E0
2.770896417E0,5.630885046E0,-5.484090112E0,-3.634001259E0,8.659565572E0
2.780882417E0,5.479420525E0,-4.979919205E0,-4.060714685E0,8.444705343E0
2.790868417E0,5.807190292E0,-4.123267028E0,-5.616422542E0,9.070225590E0
2.800855417E0,6.687275770E0,-2.645969748E0,-8.187679492E0,1.089765611E1
2.810841417E0,8.253274727E0,-1.355292056E0,-1.070600978E1,1.358572802E1
2.820827417E0,9.926690544E0,-1.068737924E0,-1.236081742E1,1.588934213E1
2.830813417E0,1.171593853E1,-1.678581832E0,-1.275426955E1,1.739977714E1
2.840799417E0,1.345868011E1,-2.439643435E0,-1.207521134E1,1.824551066E1
2.850786417E0,1.439191093E1,-3.641973060E0,-1.038301544E1,1.811623795E1
2.860772417E0,1.391998683E1,-4.764725296E0,-7.722677913E0,1.661650970E1
2.870758417E0,1.268084723E1,-4.710593821E0,-5.093136503E0,1.445453631E1
2.880744417E0,1.203786869E1,-3.773111781E0,-3.828824052E0,1.318357116E1
2.890731417E0,1.236183484E1,-2.527270685E0,-5.225757785E0,1.365688845E1
2.900717417E0,1.421048703E1,-1.686304396E0,-6.242741784E0,1.561260354E1
2.910703417E0,1.598958776E1,-1.697632938E0,-5.691024828E0,1.705686483E1
2.920689417E0,1.784177986E1,-3.316177314E0,-2.460687271E0,1.831341373E1
2.930676042E0,1.675068357E1,-4.820613276E0,3.506008632E0,1.777964592E1
2.940662042E0,1.246313551E1,-4.620678847E0,9.207871274E0,1.616988909E1
2.950648042E0,9.031504047E0,-5.063565964E0,1.153572969E1,1.550099432E1
2.960634042E0,6.042975755E0,-6.046806266E0,1.194967630E1,1.469272560E1
2.970620042E0,3.265773145E0,-4.232588911E0,1.177265653E1,1.292963746E1
2.980607042E0,2.745775287E0,-2.628634508E0,1.150494293E1,1.211662961E1
2.990593042E0,3.367955578E0,-1.931699027E0,1.025192086E1,1.096250279E1
3.000579042E0,2.989514133E0,-7.544440162E-1,7.811190140E0,8.397682533E0
3.010565042E0,2.206161921E0,1.664257908E-1,4.274962513E0,4.813538455E0
3.020552042E0,2.327652444E0,2.537405080E-1,1.249637693E0,2.654043050E0
3.030538042E0,1.806023505E0,4.084853160E-1,5.925404620E-1,1.944141290E0
3.040524042E0,1.191259969E0,3.861998230E-1,1.600352519E0,2.032087302E0
3.050510042E0,5.079379758E-1,-6.611253780E-1,2.821313712E0,2.941920939E0
3.060497042E0,-2.828920940E-1,-1.434334863E0,3.698432897E0,3.976902103E0
3.070483042E0,-1.079802683E0,-1.927239355E0,4.162007756E0,4.711956486E0
3.080469042E0,-1.584899497E0,-2.200363383E0,4.006070700E0,4.837572520E0
3.090455042E0,-1.742808526E0,-1.958076401E0,3.402466137E0,4.295139179E0
3.100441042E0,-1.478398019E0,-1.456294082E0,2.384479925E0,3.161043762E0
3.110428042E0,-1.091439812E0,-1.067706256E0,8.770174438E-1,1.760794454E0
3.120414042E0,-8.526509267E-1,-7.771627879E-1,-4.546894294E-1,1.240055676E0
3.130400042E0,-7.528252146E-1,-6.630754244E-1,-9.505093431E-1,1.381985106E0
3.140386042E0,-6.442573303E-1,-6.558506048E-1,-4.754961616E-1,1.035038223E0
3.150373042E0,-5.846294716E-1,-7.847746933E-1,3.172909713E-1,1.028754829E0
3.160359042E0,-6.379885304E-1,-1.003519616E0,7.217972571E-1,1.391068749E0
3.170345042E0,-8.096405625E-1,-1.237685984E0,7.259604746E-1,1.647544551E0
3.180331042E0,-8.684793395E-1,-1.251718132E0,5.088206130E-1,1.606223229E0
3.190318042E0,-5.959163520E-1,-8.337632507E-1,2.297540599E-1,1.050268720E0
3.200304042E0,-8.412593812E-2,-3.115378958E-1,-1.608001846E-1,3.605408900E-1
3.210290042E0,3.655240685E-1,1.971991020E-1,-6.803732425E-1,7.971217470E-1
3.220276042E0,7.138795424E-1,5.973416108E-1,-1.183545445E0,1.505729332E0
3.230262042E0,8.849211252E-1,8.703083485E-1,-1.735794498E0,2.133894224E0
3.240249042E0,8.688787043E-1,9.463712686E-1,-2.226288183E0,2.570394494E0
3.250235042E0,7.647482720E-1,6.831769824E-1,-2.584561120E0,2.780562333E0
3.260221042E0,5.099046868E-1,2.506607795E-1,-2.697728131E0,2.756913253E0
3.270207042E0,4.727473855E-1,9.897464991E-2,-2.621985639E0,2.666101041E0
3.280194042E0,7.412190762E-1,3.372030795E-1,-2.537351870E0,2.664820097E0
3.290180042E0,1.363695236E0,8.525339824E-1,-2.703495825E0,3.145690475E0
3.300166042E0,2.317750623E0,1.646406358E0,-3.246529666E0,4.315388363E0
3.310152042E0,3.480828182E0,2.476844882E0,-4.030884529E0,5.873581147E0
3.320139042E0,4.841466494E0,3.374039898E0,-5.008179967E0,7.739884342E0
3.330125042E0,5.894235452E0,4.070638579E0,-6.158758811E0,9.446820634E0
3.340111042E0,6.332538060E0,4.259929907E0,-7.508776824E0,1.070652934E1
3.350097042E0,6.936641976E0,4.338615303E0,-8.691878466E0,1.193688971E1
3.360083042E0,7.984777601E0,3.569063836E0,-9.659620723E0,1.303085425E1
3.370070042E0,8.044942526E0,1.276581663E0,-9.458588771E0,1.248261441E1
3.380056042E0,7.081058847E0,-2.125743556E-1,-7.807570714E0,1.054252070E1
3.390042042E0,6.088660051E0,-7.570243925E-1,-6.096470761E0,8.649382804E0
3.400028042E0,5.477621337E0,-7.568904912E-1,-4.383500869E0,7.056365821E0
3.410015042E0,5.751217235E0,-2.342470604E-1,-3.264188257E0,6.617121455E0
3.420001042E0,6.070200976E0,5.763717413E-2,-3.059952908E0,6.798086034E0
3.429987042E0,6.249367849E0,-5.730242103E-1,-3.780086925E0,7.326118510E0
3.439973042E0,5.744846109E0,-1.857583230E0,-4.115823523E0,7.307111300E0
3.449959042E0,4.749843548E0,-3.087640936E0,-3.634374311E0,6.730766443E0
3.459946042E0,3.959162582E0,-4.133627125E0,-2.873542212E0,6.404614462E0
3.469932042E0,2.435257730E0,-5.492653359E0,-1.807916395E0,6.274414939E0
3.479918042E0,7.976885614E-1,-6.729807832E0,-3.525200070E-1,6.786080669E0
3.489904042E0,-8.000563914E-1,-7.562283525E0,1.252955988E0,7.707017650E0
3.499891042E0,-2.376093848E0,-7.741808249E0,2.398992714E0,8.446098684E0
3.509877042E0,-3.044259274E0,-7.492513964E0,2.700819847E0,8.526412368E0
3.519863042E0,-3.159849372E0,-7.705272506E0,2.710841097E0,8.758112348E0
3.529849042E0,-3.466767675E0,-7.869959920E0,2.866718511E0,9.064922629E0
3.539836042E0,-3.459858897E0,-7.942188821E0,3.016781453E0,9.173328578E0
3.549822042E0,-3.039589103E0,-8.111662180E0,3.321350053E0,9.277366621E0
3.559808042E0,-2.582287722E0,-8.104967119E0,3.325930762E0,9.133483306E0
3.569794042E0,-2.091294685E0,-8.002667157E0,2.913389817E0,8.769494587E0
3.579781042E0,-1.919601722E0,-8.399911201E0,3.053993426E0,9.141676805E0
3.589767042E0,-2.129441335E0,-9.040568985E0,3.907482551E0,1.007644917E1
3.599753042E0,-2.672903193E0,-9.590691991E0,4.935196191E0,1.111224306E1
3.609739042E0,-3.235401830E0,-9.651813521E0,6.088137894E0,1.186131326E1
3.619725042E0,-3.106717477E0,-9.922142580E0,6.813146442E0,1.243059014E1
3.629712042E0,-2.145597777E0,-1.018531055E1,7.279713321E0,1.270190407E1
3.639698042E0,-6.951661134E-1,-1.028880393E1,7.738119825E0,1.289268167E1
3.649684042E0,1.121072331E0,-1.046308721E1,7.877499320E0,1.314488466E1
3.659670042E0,2.871507381E0,-1.053602421E1,7.519335142E0,1.325872399E1
3.669657042E0,3.694809085E0,-1.015237903E1,6.612106889E0,1.266658485E1
3.679643042E0,4.061550544E0,-8.947897634E0,4.662881418E0,1.087674253E1
3.689629042E0,2.369500528E0,-7.633990270E0,1.739425035E0,8.180338602E0
3.699615042E0,-2.934987970E-1,-8.106749935E0,3.117150664E-2,8.112121036E0
3.709601042E0,-9.239587449E-1,-1.015392855E1,-1.388420991E-1,1.019682509E1
3.719588042E0,2.342680008E-1,-1.225935888E1,1.774301337E0,1.238930615E1
3.729574042E0,2.345359421E0,-1.429988160E1,4.184090935E0,1.508290229E1
3.739560042E0,5.192163193E0,-1.455737778E1,5.388408029E0,1.636797933E1
3.749546042E0,6.908140308E0,-1.223335982E1,4.164687535E0,1.465339951E1
3.759533042E0,7.805662183E0,-1.051067887E1,1.394982079E0,1.316619563E1
3.769519042E0,7.633631251E0,-8.004637084E0,-2.858126028E0,1.142433479E1
3.779505042E0,7.319926962E0,-5.498483618E0,-8.444758176E0,1.245506297E1
3.789491042E0,7.528363827E0,-5.492818835E0,-1.185411058E1,1.507870214E1
3.799478042E0,8.216883996E0,-5.700372187E0,-1.309241637E1,1.647491402E1
3.809464042E0,8.979840973E0,-6.305063163E0,-1.254084033E1,1.666325423E1
3.819450042E0,9.512565004E0,-7.908355662E0,-1.089138289E1,1.648190534E1
3.829436042E0,9.605483108E0,-8.718865120E0,-9.061490908E0,1.582385959E1
3.839423042E0,9.629104689E0,-8.410711008E0,-7.716531905E0,1.493333792E1
3.849409042E0,1.026379305E1,-7.251169553E0,-7.778198980E0,1.477921808E1
3.859395042E0,1.124358759E1,-4.534552576E0,-8.671272293E0,1.490541486E1
3.869381042E0,1.141734462E1,-1.297739520E0,-9.813417113E0,1.511102384E1
3.879367042E0,1.056339269E1,-8.609703451E-2,-1.039861113E1,1.482308305E1
3.889354042E0,9.452412942E0,-3.031269684E-1,-9.951932974E0,1.372883703E1
3.899340042E0,8.358887136E0,-1.320134210E0,-8.617828742E0,1.207810915E1
3.909326042E0,7.186354921E0,-2.998833425E0,-7.130816313E0,1.055865712E1
3.919312042E0,6.300359663E0,-4.986102051E0,-6.096988825E0,1.008608042E1
3.929298958E0,5.258699829E0,-6.646850460E0,-5.478388492E0,1.009194161E1
3.939284958E0,5.385178612E0,-7.467528226E0,-5.722492204E0,1.084025108E1
3.949270958E0,6.879072044E0,-7.172702258E0,-6.752088062E0,1.201498993E1
3.959256958E0,8.894763401E0,-5.051140046E0,-8.023335895E0,1.300018271E1
3.969243958E0,1.213214685E1,-2.147546800E0,-9.994621156E0,1.586484783E1
3.979229958E0,1.591264659E1,-4.002126753E-2,-1.062463408E1,1.913365550E1
3.989215958E0,1.941533108E1,8.376081605E-1,-9.368978437E0,2.157392930E1
3.999201958E0,2.226073123E1,-2.538831800E-2,-7.021684465E0,2.334191192E1
4.009187958E0,2.312448426E1,-1.830338859E0,-2.988336504E0,2.338850290E1
4.019174958E0,2.069752958E1,-3.915863950E0,2.407960589E0,2.120188660E1
4.029160958E0,1.646261231E1,-5.454441805E0,6.262238156E0,1.843865955E1
4.039146958E0,1.322912193E1,-6.120090004E0,6.326104953E0,1.588976943E1
4.049132958E0,1.156744264E1,-5.782525567E0,7.205285867E0,1.480403579E1
4.059119958E0,9.307990808E0,-4.188264678E0,7.666156973E0,1.276519552E1
4.069105958E0,7.291225319E0,-2.636636715E0,7.300969704E0,1.064978772E1
4.079091958E0,6.192330015E0,-2.426243078E0,6.777747399E0,9.495760437E0
4.089077958E0,4.564538267E0,-2.845966158E0,7.171771966E0,8.964867322E0
4.099063958E0,2.533306766E0,-2.428541034E0,9.116776916E0,9.768883051E0
4.109050958E0,1.245266022E0,-2.306651146E0,1.070296105E1,1.101928773E1
4.119036958E0,7.652321291E-1,-2.629443178E0,1.126000657E1,1.158823971E1
4.129022958E0,2.829023266E-1,-2.224711774E0,1.026907776E1,1.051110529E1
4.139008958E0,-1.803757855E-1,-1.671092134E0,6.970784453E0,7.170559269E0
4.148995958E0,-3.519213983E-1,-1.805097452E0,3.227499903E0,3.714697983E0
4.158981958E0,-1.522532803E0,-1.298901654E0,6.184325176E-1,2.094686235E0
4.168967958E0,-1.490648520E0,-1.040442443E0,-3.690967172E-1,1.854935545E0
4.178953958E0,-1.330143620E0,-1.129508402E0,-1.958109730E-1,1.755965039E0
4.188940958E0,-1.449834370E0,-1.193310295E0,8.225903910E-1,2.050040027E0
4.198926958E0,-1.730048147E0,-1.452295756E0,1.826271974E0,2.904737317E0
4.208912958E0,-1.880877367E0,-1.802637529E0,2.189140822E0,3.402872209E0
4.218898958E0,-1.992728755E0,-1.954524218E0,2.322194214E0,3.630939105E0
4.228884958E0,-1.858089598E0,-1.831770696E0,2.105325664E0,3.352652232E0
4.238871958E0,-1.174943314E0,-1.540623211E0,1.058835445E0,2.207972864E0
4.248857958E0,-6.222256064E-1,-1.179124365E0,-2.661599940E-1,1.359536729E0
4.258843958E0,-3.470603156E-1,-7.531003261E-1,-1.367697070E0,1.599439352E0
4.268829958E0,-1.974701205E-1,-6.130530792E-1,-2.072574239E0,2.170343868E0
4.278816958E0,-1.130512369E-1,-7.380302972E-1,-2.266715248E0,2.386517822E0
4.288802958E0,-6.697722405E-2,-1.032803641E0,-2.130466352E0,2.368555717E0
4.298788958E0,9.139022648E-2,-9.964854151E-1,-1.844841562E0,2.098755761E0
4.308774958E0,6.423011443E-1,-5.849601316E-1,-1.852811902E0,2.046372659E0
4.318761958E0,1.303493473E0,8.930160105E-2,-2.458684600E0,2.784277280E0
4.328747958E0,2.102272248E0,9.621979272E-1,-3.581717210E0,4.263105867E0
4.338733958E0,2.900618913E0,1.994513910E0,-5.233039908E0,6.306852027E0
4.348719958E0,3.562757614E0,2.869381333E0,-6.821629583E0,8.213478022E0
4.358705958E0,3.902159246E0,2.936167061E0,-7.832733622E0,9.230365095E0
4.368692958E0,3.847597415E0,2.127752075E0,-7.728725688E0,8.891824083E0
4.378678958E0,3.235140167E0,1.001370179E0,-6.823263295E0,7.617466516E0
4.388664958E0,2.477092804E0,4.099213922E-1,-6.091850291E0,6.588980519E0
4.398650958E0,2.586368786E0,3.330047786E-1,-5.775868512E0,6.337259088E0
4.408637958E0,3.411775196E0,8.938854915E-1,-5.633230948E0,6.646241959E0
4.418623958E0,4.727561563E0,1.893776325E0,-6.266940486E0,8.075318580E0
4.428609958E0,6.320247213E0,2.232279825E0,-7.698602588E0,1.020769709E1
4.438595958E0,7.453052859E0,1.231756908E0,-7.858143282E0,1.090025861E1
4.448582958E0,7.562677628E0,1.969371468E-1,-6.732668874E0,1.012727541E1
4.458568958E0,7.275522621E0,-7.420058191E-1,-6.288975134E0,9.645465789E0
4.468554958E0,7.273267935E0,-2.087891605E0,-5.449737135E0,9.325199872E0
4.478540958E0,7.235192621E0,-3.212400638E0,-3.593140916E0,8.693571864E0
4.488526958E0,6.272104747E0,-3.943350542E0,-1.466368250E0,7.552453065E0
4.498513958E0,4.737831028E0,-3.987129815E0,4.862975769E-1,6.211339014E0
4.508499958E0,3.405327472E0,-3.462227604E0,1.742381387E0,5.159376713E0
4.518485958E0,1.791473148E0,-3.375335641E0,2.227549428E0,4.423148560E0
4.528471958E0,7.965626800E-1,-3.670194354E0,2.111045995E0,4.308288975E0
4.538458958E0,1.489879319E-1,-3.718599944E0,1.320060974E0,3.948764860E0
4.548444958E0,-1.225570554E-1,-3.714287623E0,-3.173237157E-1,3.729832049E0
4.558430958E0,7.168394029E-3,-3.757533630E0,-1.807382690E0,4.169621392E0
4.568416958E0,-1.295652357E-1,-4.294078231E0,-1.319947245E0,4.494235834E0
4.578403958E0,-7.365456891E-1,-4.931667981E0,7.673432663E-1,5.045063361E0
4.588389958E0,-1.610409145E0,-5.368661397E0,2.852294599E0,6.289000500E0
4.598375958E0,-2.460830821E0,-5.779265159E0,4.225312344E0,7.570261456E0
4.608361958E0,-2.761311924E0,-5.757486035E0,5.005289104E0,8.113347521E0
4.618347958E0,-2.611866155E0,-5.619230960E0,4.906657101E0,7.903979080E0
4.628334958E0,-2.359320233E0,-5.583381681E0,4.897520826E0,7.792705127E0
4.638320958E0,-2.520022185E0,-5.964082782E0,5.825343558E0,8.709501869E0
4.648306958E0,-2.426158878E0,-6.610862601E0,6.731923939E0,9.742101989E0
4.658292958E0,-1.632974719E0,-6.818593708E0,6.970931218E0,9.887047519E0
4.668279958E0,2.651893562E-1,-6.733254765E0,6.698088441E0,9.501128033E0
4.678265958E0,2.461608793E0,-6.703921623E0,6.459732542E0,9.629653550E0
4.688251958E0,3.085033078E0,-6.582724630E0,6.587588929E0,9.810505621E0
4.698237958E0,1.994553671E0,-6.626056591E0,7.329660237E0,1.008001932E1
4.708224958E0,3.444606435E-1,-7.355454644E0,8.054131426E0,1.091285477E1
4.718210958E0,-1.096699090E0,-8.442643238E0,8.510094963E0,1.203755332E1
4.728196958E0,-1.823061853E0,-9.594262301E0,8.673442780E0,1.306147133E1
4.738182958E0,-1.431734899E0,-1.047603762E1,8.200843329E0,1.338099624E1
4.748168958E0,-2.734257442E-1,-1.173185816E1,7.586598587E0,1.397382323E1
4.758155958E0,5.055754083E-1,-1.303324488E1,6.693242269E0,1.466016953E1
4.768141958E0,1.086002486E0,-1.416473023E1,4.850988100E0,1.501169775E1
4.778127958E0,2.690154818E0,-1.477741903E1,2.638143834E0,1.525020816E1
4.788113958E0,4.770133971E0,-1.352949574E1,7.176732159E-1,1.436372124E1
4.798100958E0,5.035716845E0,-1.203418962E1,-4.147671260E-2,1.304537789E1
4.808086958E0,4.966430263E0,-1.087654149E1,-8.394952031E-1,1.198621444E1
4.818072958E0,5.318895745E0,-9.328154347E0,-1.959205499E0,1.091529210E1
4.828058958E0,4.254360141E0,-9.106160712E0,-3.725372189E0,1.071914834E1
4.838045958E0,3.055313435E0,-1.071913445E1,-5.401247345E0,1.238580867E1
4.848031958E0,3.018993748E0,-1.243658564E1,-6.666480732E0,1.443000177E1
4.858017958E0,4.397922442E0,-1.317584210E1,-6.547685190E0,1.535632502E1
4.868003958E0,7.577804375E0,-1.234506269E1,-5.854918774E0,1.562382046E1
4.877989958E0,1.007619800E1,-9.617659349E0,-6.725071002E0,1.546789312E1
4.887976958E0,1.229179923E1,-5.959391561E0,-9.409987299E0,1.658766219E1
4.897962958E0,1.338528586E1,-2.310405058E0,-1.286673840E1,1.870980508E1
4.907948958E0,1.190643029E1,1.014385496E0,-1.429344148E1,1.863047315E1
4.917934958E0,1.185690789E1,2.419086671E-1,-1.795959658E1,2.152189336E1
4.927922708E0,1.186146755E1,-2.881700247E0,-1.799778591E1,2.174669875E1
4.937908708E0,9.977634995E0,-3.483631045E0,-1.420746285E1,1.770708576E1
4.947894708E0,7.471116078E0,-6.066417827E0,-1.056034044E1,1.428774968E1
4.957880708E0,5.686921252E0,-8.605105201E0,-6.972491255E0,1.245008205E1
4.967867708E0,4.441885318E0,-9.354355136E0,-5.104394732E0,1.154509206E1
4.977853708E0,4.593773761E0,-9.064295232E0,-5.179416847E0,1.140572507E1
4.987839708E0,5.204558120E0,-7.510452636E0,-5.976518641E0,1.091847513E1
4.997825708E0,5.824233171E0,-5.614917469E0,-7.326617346E0,1.091459170E1
5.007812708E0,6.968557248E0,-4.246560540E0,-8.463594396E0,1.175697651E1
5.017798708E0,7.965823851E0,-2.990559615E0,-8.814893943E0,1.225153671E1
5.027784708E0,9.604131231E0,-2.613051093E0,-9.199188159E0,1.355331825E1
5.037770708E0,1.148149442E1,-3.707145249E0,-9.146422884E0,1.514016815E1
5.047756708E0,1.243859942E1,-5.393146613E0,-5.594738143E0,1.466648836E1
5.057743708E0,1.242280960E1,-4.793862557E0,-1.789683607E0,1.343541157E1
5.067729708E0,1.281404096E1,-3.918406612E0,-7.408369607E-1,1.342022337E1
5.077715708E0,1.365759654E1,-2.884109300E0,-8.548845631E-1,1.398495110E1
5.087701708E0,1.477867618E1,-1.261881763E0,-1.359352509E0,1.489461159E1
5.097688708E0,1.585288103E1,-2.841004211E-1,-2.131601297E0,1.599807095E1
5.107674708E0,1.632553135E1,-5.090966016E-2,-3.328642700E0,1.666149537E1
5.117660708E0,1.710692869E1,-8.271596977E-1,-2.655064507E0,1.733149070E1
5.127646708E0,1.602897227E1,-2.569254863E0,1.275041506E0,1.628357311E1
5.137633708E0,1.232445359E1,-4.040390348E0,7.362187713E0,1.491370907E1
5.147619708E0,7.190619296E0,-4.157272096E0,1.001152312E1,1.300840160E1
5.157605708E0,4.487671940E0,-4.367975342E0,9.726842068E0,1.156848584E1
5.167591708E0,2.353786428E0,-3.534133154E0,8.841944332E0,9.808689376E0
5.177577708E0,1.449729120E0,-2.159167410E0,9.437266899E0,9.789061495E0
5.187564708E0,2.176449733E0,-1.470314535E0,9.864503067E0,1.020819176E1
5.197550708E0,2.150620827E0,-6.790845162E-1,8.556727093E0,8.848949331E0
5.207536708E0,2.112978792E0,3.846941650E-2,5.643936031E0,6.026622038E0
5.217522708E0,2.114213431E0,6.269799775E-1,2.641983701E0,3.441377661E0
5.227509708E0,1.668297164E0,8.225921452E-1,8.082191044E-1,2.028075784E0
5.237495708E0,7.500890100E-1,2.131222397E-1,9.386535287E-3,7.798350589E-1
5.247481708E0,-3.669291544E-1,-6.882248837E-1,5.016174281E-1,9.273136142E-1
5.257467708E0,-1.267731610E0,-1.533163918E0,1.886308261E0,2.741513066E0
5.267454708E0,-1.642954455E0,-2.134700906E0,2.862239544E0,3.930478661E0
5.277440708E0,-1.885934916E0,-2.518305150E0,2.957135176E0,4.317784129E0
5.287426708E0,-1.990148672E0,-2.611814407E0,2.427118991E0,4.083279666E0
5.297412708E0,-1.700039067E0,-2.199423151E0,1.718534687E0,3.268173266E0
5.307398708E0,-1.001327494E0,-1.538263859E0,8.407565206E-1,2.018857097E0
5.317385708E0,-2.948133972E-1,-7.802208817E-1,-3.150088030E-1,8.915660993E-1
5.327371708E0,3.884042233E-2,-2.122001338E-1,-1.289172472E0,1.307097219E0
5.337357708E0,-7.724171877E-4,-1.478369075E-1,-1.861178682E0,1.867041091E0
5.347343708E0,-2.946318412E-1,-4.823262942E-1,-2.011112401E0,2.089023616E0
5.357330708E0,-6.064805165E-1,-9.854938191E-1,-1.742454477E0,2.091689338E0
5.367316708E0,-9.991327420E-1,-1.388009713E0,-1.458642908E0,2.247771415E0
5.377302708E0,-1.176412134E0,-1.526902134E0,-1.402033090E0,2.383500036E0
5.387288708E0,-1.043722439E0,-1.377384737E0,-1.545623749E0,2.318512027E0
5.397275708E0,-6.100110653E-1,-1.059959280E0,-1.825852729E0,2.197581708E0
5.407261708E0,-8.643997371E-2,-4.708698446E-1,-2.242045260E0,2.292587453E0
5.417247708E0,3.940912253E-1,1.299742484E-1,-2.745235589E0,2.776422093E0
5.427233708E0,7.686699995E-1,5.548183197E-1,-3.225555704E0,3.361976581E0
5.437219708E0,1.132389033E0,7.571232104E-1,-3.719135549E0,3.960746105E0
5.447206708E0,1.314558744E0,6.484708339E-1,-3.978463072E0,4.239899471E0
5.457192708E0,1.429068861E0,4.693314421E-1,-4.026900237E0,4.298655060E0
5.467178708E0,1.523801941E0,3.590272272E-1,-4.193837074E0,4.476510059E0
5.477164708E0,1.558297297E0,3.780172294E-1,-4.317689872E0,4.605826020E0
5.487151708E0,1.720850769E0,7.250418770E-1,-4.327429579E0,4.713136945E0
5.497137708E0,2.290449681E0,1.279695890E0,-4.611210743E0,5.305378952E0
5.507123708E0,3.359832041E0,1.888148965E0,-4.927548618E0,6.255742421E0
5.517109708E0,4.433967018E0,2.760593886E0,-5.292897270E0,7.436108097E0
5.527096708E0,5.140985438E0,2.998999486E0,-6.041620370E0,8.480855257E0
5.537082708E0,5.954944754E0,2.987778094E0,-6.285401316E0,9.159391610E0
5.547068708E0,6.719942994E0,2.582821573E0,-6.145269284E0,9.465354494E0
5.557054708E0,7.271924829E0,1.372310523E0,-5.557582011E0,9.254774158E0
5.567041708E0,7.669472344E0,3.999811256E-1,-4.749247424E0,9.029736543E0
5.577027708E0,7.736967924E0,4.780625045E-2,-3.594869060E0,8.531473592E0
5.587013708E0,9.014164714E0,1.079363265E0,-3.310633568E0,9.663357862E0
5.596999708E0,1.042896052E1,-2.425962996E-1,-3.136606690E0,1.089313417E1
5.606985708E0,9.509841955E0,-1.850510437E0,-1.312701083E0,9.776741125E0
5.616972708E0,6.929813597E0,-3.533540831E0,-2.231613608E-1,7.781903899E0
5.626958708E0,4.088021474E0,-5.481851798E0,5.352827722E-1,6.859238030E0
5.636944708E0,1.020194705E0,-5.969863340E0,2.015398995E0,6.382938088E0
5.646930708E0,-7.903292558E-1,-5.664811760E0,2.660614100E0,6.308215278E0
5.656917708E0,-9.707181975E-1,-5.628816885E0,2.484732776E0,6.228946164E0
5.666903708E0,-1.466649501E0,-5.537633650E0,3.003025294E0,6.467967851E0
5.676889708E0,-1.848748379E0,-5.200822919E0,3.205446544E0,6.382892538E0
5.686875708E0,-2.505644466E0,-5.418224151E0,2.865134500E0,6.621510617E0
5.696861708E0,-2.896208943E0,-5.442392448E0,3.254288337E0,6.971230478E0
5.706848708E0,-3.104289714E0,-5.524169267E0,3.343728517E0,7.164745711E0
5.716834708E0,-3.405527154E0,-6.063659111E0,2.926036467E0,7.545015998E0
5.726820708E0,-4.303705671E0,-6.869313626E0,3.611288334E0,8.874162250E0
5.736806708E0,-4.413611691E0,-7.717071603E0,5.363671383E0,1.038278060E1
5.746793708E0,-2.611136715E0,-8.194467525E0,6.893143369E0,1.102192172E1
5.756779708E0,-1.419385287E-1,-7.980248932E0,7.795954050E0,1.115712414E1
5.766765708E0,2.314449285E0,-7.527004350E0,7.901594526E0,1.115561141E1
5.776751708E0,3.541534267E0,-7.326323816E0,7.361977213E0,1.097343128E1
5.786738708E0,3.263594180E0,-7.907882622E0,6.688298448E0,1.085905109E1
5.796724708E0,1.751161858E0,-8.717873433E0,5.341144985E0,1.037283543E1
5.806710708E0,-2.197211149E-1,-9.664991391E0,3.929273370E0,1.043549353E1
5.816696708E0,-1.435584706E0,-1.075511587E1,2.817986646E0,1.121046251E1
5.826683708E0,-1.479239141E0,-1.160038820E1,1.605015088E0,1.180394969E1
5.836669708E0,-4.011140236E-1,-1.146697695E1,7.585600175E-2,1.147424102E1
5.846655708E0,6.391111958E-1,-1.124510787E1,-1.353317013E0,1.134426644E1
5.856641708E0,2.097629558E0,-1.053387594E1,-1.763324944E0,1.088448010E1
5.866627708E0,3.110147747E0,-8.724372028E0,-1.714701837E0,9.419548221E0
5.876614708E0,3.440786742E0,-8.077326745E0,-2.005358595E0,9.005758372E0
5.886600708E0,2.929813476E0,-8.583244216E0,-2.329987822E0,9.364012576E0
5.896586708E0,2.967144440E0,-8.524864445E0,-2.850145748E0,9.465758856E0
5.906572708E0,3.429092895E0,-8.087243623E0,-3.669905502E0,9.519999679E0
5.916559708E0,4.474488807E0,-7.571136210E0,-4.315901209E0,9.796435926E0
5.926545708E0,5.173508821E0,-7.077934095E0,-4.617073746E0,9.908567734E0
5.936530708E0,5.826928153E0,-6.345680847E0,-5.184493400E0,1.005483610E1
5.946516708E0,6.822780315E0,-4.612745052E0,-6.091933322E0,1.024399335E1
5.956503708E0,7.599792244E0,-3.351724584E0,-7.017617726E0,1.087372330E1
5.966489708E0,7.083489534E0,-3.529699211E0,-7.001917952E0,1.056699842E1
5.976475708E0,6.312137125E0,-3.385606860E0,-6.802601573E0,9.878299300E0
5.986461708E0,5.754788715E0,-3.529500405E0,-6.448039280E0,9.335533023E0
5.996447708E0,5.252157964E0,-3.992501652E0,-6.131810163E0,9.006904496E0
6.006434708E0,4.817424497E0,-4.247432068E0,-5.380563405E0,8.378467671E0
6.016420708E0,5.237355153E0,-4.057741668E0,-3.794862839E0,7.635190922E0
6.026406708E0,5.603838750E0,-4.261502223E0,-2.375636011E0,7.430145112E0
6.036392708E0,5.988700145E0,-4.294117407E0,-1.636121252E0,7.548567181E0
6.046379708E0,6.858831908E0,-3.304495161E0,-1.852829589E0,7.835575339E0
6.056365708E0,7.902441203E0,-2.279444344E0,-2.887566758E0,8.716793290E0
6.066351708E0,9.024324251E0,-7.396868134E-1,-4.829473854E0,1.026203598E1
6.076337708E0,9.255552979E0,5.028159611E-1,-6.558750461E0,1.135496774E1
6.086324708E0,8.559688123E0,2.282634585E-1,-8.154800599E0,1.182459884E1
6.096310708E0,7.473616932E0,-6.673519318E-1,-9.344893756E0,1.198446277E1
6.106296708E0,7.107191223E0,-2.230384158E0,-9.356957731E0,1.195990964E1
6.116282708E0,7.420780322E0,-3.411068560E0,-8.693398157E0,1.192805688E1
6.126268708E0,7.634763272E0,-3.906091499E0,-8.436279713E0,1.202987849E1
6.136255708E0,8.134551106E0,-3.954443587E0,-7.992005929E0,1.206982620E1
6.146241708E0,8.861514378E0,-4.072959047E0,-7.119905409E0,1.207511845E1
6.156227708E0,9.561856447E0,-3.547535850E0,-5.978521312E0,1.182187914E1
6.166213708E0,1.049285889E1,-2.743146379E0,-4.809136654E0,1.186392579E1
6.176200708E0,1.094903293E1,-2.181785902E0,-3.248444629E0,1.162729136E1
6.186186708E0,1.076270439E1,-1.046585528E0,-1.907110900E0,1.098035605E1
6.196172708E0,1.112466926E1,-5.377263236E-1,-1.605326160E0,1.125275467E1
6.206158708E0,1.109764109E1,-1.738428815E0,-8.129793227E-1,1.126235800E1
6.216145708E0,1.008188617E1,-3.229940531E0,7.022745734E-1,1.060990736E1
6.226131708E0,9.017167844E0,-4.137191588E0,3.388746815E0,1.048376245E1
6.236117708E0,8.171158184E0,-4.306505318E0,5.982250081E0,1.100459587E1
6.246103708E0,7.273324653E0,-3.762924762E0,7.697638382E0,1.123897197E1
6.256089708E0,6.686541944E0,-2.505428119E0,8.508252506E0,1.110753681E1
6.266076708E0,5.968046025E0,-1.725933461E0,7.406079837E0,9.666769793E0
6.276062708E0,5.212467649E0,-1.424377640E0,6.473091676E0,8.432057074E0
6.286048708E0,4.339602605E0,-7.278760225E-1,6.009556578E0,7.448269903E0
6.296034708E0,3.632164941E0,1.121390712E-1,5.145354477E0,6.299195982E0
6.306021708E0,3.840108301E0,-4.961865342E-1,4.681849201E0,6.075553043E0
6.316007708E0,2.479397777E0,-9.830920753E-1,5.339983728E0,5.969029199E0
6.325993708E0,1.361800153E0,-1.120915334E0,6.222168356E0,6.467327879E0
6.335979708E0,4.348232219E-1,-1.838449386E0,6.303025408E0,6.580052939E0
6.345966708E0,-3.593368372E-1,-2.033424792E0,6.081949786E0,6.422931772E0
6.355952708E0,-9.733532453E-1,-1.956044494E0,5.591235661E0,6.002952842E0
6.365938708E0,-9.774410337E-1,-1.642160695E0,4.341255321E0,4.743266858E0
6.375924708E0,-6.210930008E-1,-1.018808330E0,2.832006515E0,3.073107195E0
6.385910708E0,-3.287032744E-1,-3.678150076E-1,1.373775251E0,1.459654809E0
6.395897708E0,-8.979539841E-2,-9.181414962E-2,1.887598157E-1,2.283053212E-1
6.405883708E0,-1.322727889E-2,5.070120692E-3,-1.004571530E0,1.004671402E0
6.415869708E0,-2.324841249E-1,-2.973870492E-1,-2.370396321E0,2.400263870E0
6.425855708E0,-5.567025849E-1,-9.144934183E-1,-2.643157822E0,2.851753715E0
6.435842708E0,-8.666851214E-1,-1.367562584E0,-1.638738320E0,2.303656616E0
6.445828708E0,-1.141126527E0,-1.691632817E0,-6.003260297E-1,2.127012619E0
6.455814708E0,-1.255787210E0,-1.872785990E0,-4.319396675E-2,2.255259320E0
6.465800708E0,-1.234855055E0,-1.885023628E0,2.807832956E-3,2.253483740E0
6.475787708E0,-1.307544424E0,-1.909031711E0,-2.409795445E-1,2.326401864E0
6.485773708E0,-1.144188129E0,-1.687781841E0,-7.115698922E-1,2.159654076E0
6.495759708E0,-3.034149438E-1,-1.023196666E0,-1.369492165E0,1.736231792E0
6.505745708E0,5.361504990E-1,-1.764677989E-1,-2.236724294E0,2.306844990E0
6.515731708E0,1.037811781E0,4.376167291E-1,-3.140878081E0,3.336716472E0
6.525718708E0,1.151146023E0,3.511562902E-1,-3.994856910E0,4.172209204E0
6.535704708E0,9.107316121E-1,-6.315109849E-2,-4.590803960E0,4.680694514E0
6.545690708E0,7.094184092E-1,-3.951109797E-1,-4.618937253E0,4.689772757E0
6.555676708E0,7.965425071E-1,-8.074659830E-1,-4.095585140E0,4.249741041E0
6.565663708E0,9.817697275E-1,-9.886483920E-1,-3.594234345E0,3.854843443E0
6.575649708E0,9.665453321E-1,-7.063793188E-1,-3.447085655E0,3.649052087E0
6.585635708E0,1.310739927E0,-2.332793462E-1,-3.826117961E0,4.051127875E0
6.595621708E0,1.976230837E0,2.636509538E-1,-4.597770917E0,5.011436676E0
6.605608708E0,2.872462231E0,1.167289016E0,-5.373573643E0,6.203942022E0
6.615594708E0,3.932500156E0,2.179999285E0,-6.189138604E0,7.649992877E0
6.625580708E0,4.732140225E0,2.676129102E0,-6.846475571E0,8.742370721E0
6.635566708E0,5.284406528E0,2.830289773E0,-7.114813069E0,9.303550803E0
6.645552708E0,5.868883095E0,2.339594944E0,-7.399742040E0,9.730039853E0
6.655539708E0,6.317724724E0,8.261121690E-1,-7.621009451E0,9.933573982E0
6.665525708E0,6.878358684E0,-6.188991255E-1,-7.458516498E0,1.016485724E1
6.675511708E0,6.946416181E0,-1.094016387E0,-6.678858703E0,9.698284549E0
6.685497708E0,7.012245305E0,-1.537693171E0,-5.200662121E0,8.864703661E0
6.695484708E0,6.769748408E0,-2.250835964E0,-3.262228271E0,7.844608934E0
6.705470708E0,6.066708434E0,-2.223144135E0,-1.129080970E0,6.559126840E0
6.715456708E0,5.047547516E0,-2.109954320E0,2.484850305E-1,5.476439351E0
6.725442708E0,4.048835774E0,-2.392550252E0,6.038385252E-1,4.741517563E0
6.735429708E0,3.724915522E0,-2.429176041E0,-6.453688860E-2,4.447477588E0
6.745415708E0,3.249403865E0,-2.604356868E0,-1.463277558E0,4.413896395E0
6.755401708E0,2.355669232E0,-3.373495522E0,-1.808262696E0,4.494381331E0
6.765387708E0,1.360233830E0,-4.172052103E0,-6.471429312E-1,4.435656523E0
6.775374708E0,-2.810250780E-1,-5.029043418E0,1.158445103E0,5.168389289E0
6.785360708E0,-2.044415218E0,-5.468449395E0,2.875075644E0,6.507659512E0
6.795346708E0,-3.114203375E0,-5.494812736E0,3.724064167E0,7.332113173E0
6.805332708E0,-3.257092077E0,-5.537962849E0,4.231431455E0,7.693028887E0
6.815318708E0,-2.869348589E0,-5.390618277E0,4.753991855E0,7.739015783E0
6.825305708E0,-2.268555074E0,-5.154566181E0,4.814455281E0,7.409107523E0
6.835291708E0,-2.037164963E0,-5.437052770E0,4.803909827E0,7.535856524E0
6.845277708E0,-2.068406929E0,-5.835727628E0,5.046706102E0,7.987694702E0
6.855263708E0,-1.802360663E0,-6.044432881E0,4.451606898E0,7.720134506E0
6.865250708E0,-1.167737498E0,-6.365505831E0,4.262700318E0,7.749444454E0
6.875236708E0,-5.166921347E-1,-6.625052624E0,4.944583896E0,8.282946513E0
6.885222708E0,-4.012067020E-1,-6.835540693E0,5.774457579E0,8.957116931E0
6.895208708E0,-6.645828366E-1,-7.307016309E0,6.269900932E0,9.651207976E0
6.905195708E0,-1.100876926E0,-7.893595535E0,6.205722477E0,1.010107776E1
6.915181708E0,-1.354882897E0,-8.801643568E0,5.741456478E0,1.059570477E1
6.925167708E0,-1.138239464E0,-9.808459259E0,4.811916420E0,1.098435259E1
6.935153917E0,-1.018817393E0,-1.079144345E1,3.725896392E0,1.146191714E1
6.945139917E0,-6.806319818E-1,-1.149235387E1,2.801913820E0,1.184855174E1
6.955126917E0,1.862311873E-1,-1.213383085E1,2.403232384E0,1.237093606E1
6.965112917E0,8.877482539E-1,-1.229912228E1,2.260841135E0,1.253666257E1
6.975098917E0,2.270543566E0,-1.169392844E1,1.675210912E0,1.202953291E1
6.985084917E0,3.183488495E0,-1.131798288E1,1.207613170E0,1.181903825E1
6.995071917E0,3.599866675E0,-1.064984260E1,1.658399181E-1,1.124302852E1
7.005057917E0,3.717520548E0,-9.652642656E0,-1.417836360E0,1.044048510E1
7.015043917E0,3.726306574E0,-8.649762141E0,-3.068228180E0,9.905441431E0
7.025029917E0,4.062281446E0,-8.406616788E0,-4.536218448E0,1.038029933E1
7.035016917E0,3.704056749E0,-9.239547395E0,-5.265824661E0,1.126135790E1
7.045002917E0,3.384616342E0,-9.731656666E0,-5.398855834E0,1.163221447E1
7.054988917E0,3.565926220E0,-9.744939201E0,-5.328679891E0,1.166509748E1
7.064974917E0,4.473017940E0,-9.790604201E0,-5.537396253E0,1.210481629E1
7.074960917E0,6.306846564E0,-8.755371042E0,-5.964019048E0,1.232892367E1
7.084947917E0,7.590117441E0,-6.787683572E0,-6.546873597E0,1.210553943E1
7.094933917E0,7.793287135E0,-4.911564084E0,-7.479748907E0,1.186614638E1
7.104919917E0,8.148158162E0,-4.026395622E0,-8.735500449E0,1.260608231E1
7.114905917E0,7.951749603E0,-4.076385807E0,-9.296720885E0,1.289481532E1
7.124892917E0,7.432769453E0,-5.190965098E0,-8.818547283E0,1.264748815E1
7.134878917E0,6.434121737E0,-6.132970836E0,-7.522624201E0,1.164478976E1
7.144864917E0,5.861574660E0,-6.269866433E0,-5.919599504E0,1.042645390E1
7.154850917E0,6.083775287E0,-6.125964117E0,-5.198205121E0,1.007775246E1
7.164837917E0,6.630549007E0,-5.199476305E0,-5.147981046E0,9.874231253E0
7.174823917E0,7.642206193E0,-3.764984152E0,-6.059116409E0,1.045424855E1
7.184809917E0,8.135363869E0,-2.067626618E0,-7.456589255E0,1.122764216E1
7.194795917E0,8.137034419E0,-8.842109808E-1,-8.542113147E0,1.183050528E1
7.204781917E0,7.859377044E0,-1.107462060E0,-9.391152248E0,1.229593511E1
7.214768917E0,7.916755772E0,-1.773239483E0,-9.161594070E0,1.223741011E1
7.224754917E0,8.061679012E0,-2.336035012E0,-8.020215821E0,1.160911667E1
7.234740917E0,8.465770730E0,-2.965557213E0,-7.044264073E0,1.140550130E1
7.244726917E0,8.869979977E0,-3.220239123E0,-6.149297431E0,1.126322972E1
7.254713917E0,9.307592028E0,-2.864331385E0,-5.069251796E0,1.097875118E1
7.264699917E0,9.701401418E0,-2.004567905E0,-4.127439601E0,1.073178641E1
7.274685917E0,9.800766662E0,-1.528554119E0,-4.128321946E0,1.074404705E1
7.284671917E0,1.027250891E1,-1.223892987E0,-3.675105430E0,1.097855880E1
7.294658917E0,1.042439151E1,-7.789070123E-1,-2.932599090E0,1.085701487E1
7.304644917E0,1.059374441E1,-4.628780164E-1,-2.795728635E0,1.096621062E1
7.314630917E0,1.213532072E1,-6.653058448E-1,-2.026858953E0,1.232139595E1
7.324616917E0,1.347399397E1,-1.554959706E0,-6.947661638E-2,1.356359982E1
7.334603917E0,1.345554132E1,-2.759783169E0,2.378634464E0,1.394008240E1
7.344589917E0,1.185756160E1,-3.496826749E0,4.977204927E0,1.332674504E1
7.354575917E0,9.501155332E0,-3.342359391E0,7.310980722E0,1.244563209E1
7.364561917E0,7.382030239E0,-3.049800096E0,8.730550196E0,1.183292685E1
7.374547917E0,5.656474800E0,-3.012995966E0,8.688051463E0,1.079611458E1
7.384534917E0,3.765846031E0,-2.716320523E0,8.117367893E0,9.351558963E0
7.394520917E0,2.380252973E0,-1.416394436E0,7.362623330E0,7.866384158E0
7.404506917E0,2.562247268E0,-1.735197498E0,7.035058801E0,7.685575694E0
7.414492917E0,1.852249692E0,-1.221932416E0,7.249046429E0,7.581069969E0
7.424479917E0,7.145475867E-1,-1.159211673E0,6.119365534E0,6.269049728E0
7.434465917E0,-3.539182225E-1,-1.418634505E0,3.906996648E0,4.171618963E0
7.444451917E0,-1.026497127E0,-1.151082873E0,1.958994414E0,2.493260365E0
7.454437917E0,-1.414747276E0,-9.490340906E-1,1.107815816E0,2.032100254E0
7.464423917E0,-1.514529718E0,-1.039068348E0,1.284978265E0,2.241569191E0
7.474410917E0,-1.492583949E0,-1.138113164E0,1.602473304E0,2.468001035E0
7.484396917E0,-1.589297773E0,-1.264201938E0,1.584362723E0,2.575709453E0
7.494382917E0,-1.724984166E0,-1.468924652E0,1.366163930E0,2.645697241E0
7.504368917E0,-1.812034004E0,-1.526951251E0,1.057204072E0,2.594750047E0
7.514355917E0,-1.823765858E0,-1.640000149E0,6.224238271E-1,2.530441427E0
7.524341917E0,-1.777205357E0,-1.764290904E0,5.379964650E-2,2.504810507E0
7.534327917E0,-1.523386496E0,-1.700444571E0,-5.635417807E-1,2.351552146E0
7.544313917E0,-1.338810363E0,-1.601709657E0,-1.001978874E0,2.315566600E0
7.554300917E0,-1.144031716E0,-1.318273480E0,-1.043024574E0,2.033360223E0
7.564286917E0,-1.060137620E0,-1.398257543E0,-1.120402533E0,2.081902439E0
7.574272917E0,-9.632615358E-1,-1.397663466E0,-1.083132380E0,2.013581809E0
7.584258917E0,-8.829058823E-1,-1.442050264E0,-8.460207689E-1,1.890709630E0
7.594244917E0,-9.104258028E-1,-1.483103566E0,-7.094327348E-1,1.879299373E0
7.604231917E0,-7.547732145E-1,-1.392531949E0,-6.430405247E-1,1.709482071E0
7.614217917E0,-2.381775588E-1,-1.038589461E0,-7.510824519E-1,1.303656959E0
7.624203917E0,1.767388174E-1,-5.954494518E-1,-1.170629531E0,1.325205704E0
7.634189917E0,3.934307823E-1,-2.613775563E-1,-1.961776519E0,2.017838725E0
7.644176917E0,5.893826732E-1,-1.425849384E-1,-2.956616528E0,3.018158991E0
7.654162917E0,7.113786882E-1,-2.522553152E-1,-3.622241923E0,3.700044450E0
7.664148917E0,9.056916046E-1,-2.844383901E-1,-3.840586896E0,3.956171152E0
7.674134917E0,1.046177977E0,-3.098275852E-1,-3.630333300E0,3.790752084E0
7.684121917E0,1.235190977E0,-2.807265776E-1,-3.245028686E0,3.483491831E0
7.694107917E0,1.689611435E0,9.447989523E-2,-3.105619370E0,3.536747789E0
7.704093917E0,2.351043207E0,7.024985218E-1,-3.388098359E0,4.183314335E0
7.714079917E0,3.190687003E0,1.379900209E0,-4.185938655E0,5.441203043E0
7.724065917E0,3.567160567E0,1.618573612E0,-5.603965634E0,6.837312767E0
7.734052917E0,3.640199015E0,1.537536466E0,-7.032942694E0,8.067053377E0
7.744038917E0,3.400989715E0,1.429360052E0,-8.547028901E0,9.309216091E0
7.754024917E0,3.256168801E0,1.218283753E0,-1.006914158E1,1.065243929E1
7.764010917E0,3.868994716E0,7.864680469E-1,-1.139421888E1,1.205885053E1
7.773997917E0,5.337164201E0,-4.111118853E-2,-1.096346503E1,1.219362855E1
7.783983917E0,6.706446451E0,-8.019351017E-1,-8.413884877E0,1.078948482E1
7.793969917E0,6.912018181E0,-6.097090566E-1,-6.569279543E0,9.555269446E0
7.803955917E0,7.776699169E0,-9.993844646E-1,-5.477167593E0,9.564266000E0
7.813942917E0,7.778422928E0,-6.232172942E-1,-3.491230671E0,8.548739945E0
7.823928917E0,7.855000404E0,-2.394364643E-1,-2.016336304E0,8.113197474E0
7.833914917E0,7.414867617E0,-1.246525220E0,-1.763016503E0,7.722843654E0
7.843900917E0,6.404756436E0,-2.278099777E0,-1.963290656E0,7.075673381E0
7.853886917E0,5.016298826E0,-2.608814785E0,-2.878646539E0,6.344743840E0
7.863873917E0,4.002151604E0,-3.396635293E0,-3.776943462E0,6.466811478E0
7.873859917E0,4.155064187E0,-4.011086442E0,-3.283363616E0,6.643331204E0
7.883845917E0,3.522435799E0,-4.203614788E0,-1.324986084E0,5.642120113E0
7.893831917E0,1.922005513E0,-4.696700544E0,6.323290104E-1,5.113994639E0
7.903818917E0,5.802601397E-2,-5.311572107E0,1.714534607E0,5.581737560E0
7.913804917E0,-1.440904795E0,-5.525355667E0,2.372208374E0,6.183294788E0
7.923790917E0,-2.057398961E0,-5.370728388E0,2.936881590E0,6.457777278E0
7.933777458E0,-2.210484329E0,-5.384383391E0,3.326502035E0,6.703986967E0
7.943764458E0,-2.186219553E0,-5.464891364E0,3.689599509E0,6.946778972E0
7.953750458E0,-2.196887506E0,-5.509915509E0,4.007685117E0,7.158702650E0
7.963736458E0,-2.073459800E0,-5.614218142E0,4.159481466E0,7.288344596E0
7.973722458E0,-1.935702031E0,-5.682173313E0,4.449743975E0,7.472232421E0
7.983709458E0,-1.847877729E0,-5.578194031E0,4.914331571E0,7.660388733E0
7.993695458E0,-1.902707947E0,-5.714678569E0,5.301899643E0,8.024212641E0
8.003681458E0,-1.868903439E0,-6.036287125E0,5.690007997E0,8.503278975E0
8.013667458E0,-2.047347597E0,-6.135784516E0,5.885090992E0,8.744928804E0
8.023653458E0,-2.098321869E0,-6.362126725E0,5.701907081E0,8.797235673E0
8.033640458E0,-1.896943469E0,-6.569708728E0,5.506750996E0,8.779736547E0
8.043626458E0,-1.721784862E0,-6.618336512E0,5.499148446E0,8.775394859E0
8.053612458E0,-1.101288570E0,-6.739349903E0,5.559449612E0,8.805631926E0
8.063598458E0,-3.898312363E-1,-7.004759114E0,5.796433754E0,9.100399052E0
8.073585458E0,6.323117611E-1,-7.506015185E0,6.066383328E0,9.671664221E0
8.083571458E0,1.949932984E0,-8.277031379E0,6.229324763E0,1.054115620E1
8.093557458E0,3.394171861E0,-9.260716070E0,6.482599833E0,1.180276939E1
8.103543458E0,4.333880520E0,-9.657742013E0,7.017553407E0,1.270041562E1
8.113530458E0,4.958754623E0,-9.499604065E0,6.904389319E0,1.274763965E1
8.123516458E0,5.562121789E0,-8.986491596E0,5.359674811E0,1.184990903E1
8.133502458E0,4.399768408E0,-8.439203905E0,2.582474248E0,9.861404456E0
8.143488458E0,2.192809365E0,-9.273411545E0,-6.632789075E-1,9.552199406E0
8.153474458E0,8.186087295E-1,-1.075359793E1,-3.069667765E0,1.121306599E1
8.163461458E0,1.319964641E0,-1.218325386E1,-3.733008653E0,1.281051657E1
8.173447458E0,2.141264698E0,-1.334787186E1,-2.128070748E0,1.368500577E1
8.183433458E0,3.257309593E0,-1.415358778E1,1.228137481E-1,1.452409019E1
8.193419458E0,5.197227466E0,-1.423343501E1,1.251144082E0,1.520418387E1
8.203406458E0,9.264803274E0,-1.166267157E1,7.376525670E-2,1.489496321E1
8.213392458E0,1.042682044E1,-6.142046884E0,-3.695843750E0,1.265316504E1
8.223378458E0,9.254143215E0,-2.089284997E0,-8.965253924E0,1.305297117E1
8.233364458E0,8.315142362E0,9.332314056E-1,-1.432875515E1,1.659294240E1
8.243351458E0,7.771682843E0,2.401975964E0,-1.782115322E1,1.958984545E1
8.253337458E0,8.367713508E0,4.037087256E-1,-1.676171844E1,1.873864496E1
8.263323458E0,8.249344813E0,-2.100204087E0,-1.176551474E1,1.452204820E1
8.273309458E0,6.759895265E0,-3.985055807E0,-5.981465385E0,9.866852686E0
8.283295458E0,5.701696581E0,-6.034970332E0,-2.426640250E0,8.649785761E0
8.293282458E0,4.757174202E0,-7.338007722E0,-1.697113413E0,8.908269060E0
8.303268458E0,3.925514195E0,-7.627899225E0,-2.420305377E0,8.913606812E0
8.313254458E0,4.227599482E0,-7.197660513E0,-4.020165414E0,9.265022622E0
8.323240458E0,5.283541140E0,-5.356048368E0,-6.082403530E0,9.674641792E0
8.333227458E0,5.978958684E0,-2.871273200E0,-8.030482947E0,1.041541229E1
8.343213458E0,6.765835451E0,-1.561215058E0,-9.913157748E0,1.210308301E1
8.353199458E0,7.622757769E0,-1.601136776E0,-1.052936306E1,1.309723488E1
8.363185458E0,8.058679390E0,-2.730927745E0,-9.609591361E0,1.283528441E1
8.373172458E0,7.909811034E0,-4.640222288E0,-7.857793618E0,1.207649345E1
8.383158458E0,7.486396022E0,-6.354867992E0,-5.932607220E0,1.147285061E1
8.393144458E0,6.861819250E0,-7.017810684E0,-4.368761208E0,1.074338423E1
8.403130458E0,6.792032731E0,-6.841116014E0,-3.075173503E0,1.011875827E1
8.413116458E0,7.726253486E0,-5.541517371E0,-2.005892007E0,9.717356145E0
8.423103458E0,8.818090616E0,-3.305233080E0,-2.512224045E0,9.746515145E0
8.433089458E0,9.947258710E0,-7.206528108E-1,-4.319186760E0,1.086842540E1
8.443075458E0,1.121320078E1,1.449377995E0,-6.226309939E0,1.290749797E1
8.453061458E0,1.244631775E1,2.562947179E0,-8.275943213E0,1.516478684E1
8.463048458E0,1.460393565E1,1.291667918E0,-8.313291718E0,1.685390642E1
8.473034458E0,1.536878420E1,-1.382964735E0,-5.541244306E0,1.639565515E1
8.483020458E0,1.503466026E1,-4.329100129E0,-2.425299922E0,1.583237812E1
8.493006458E0,1.336420431E1,-6.985020669E0,7.265288240E-1,1.509702999E1
8.502993458E0,1.175467049E1,-7.558015058E0,4.478990579E0,1.467505457E1
8.512979458E0,9.794211348E0,-6.200389232E0,7.357636825E0,1.372975682E1
8.522965458E0,8.063875226E0,-4.357388374E0,8.015059161E0,1.217596364E1
8.532951458E0,6.745091869E0,-3.127054678E0,7.671860347E0,1.068326619E1
8.542937458E0,5.135377373E0,-2.404708368E0,7.094754195E0,9.082414887E0
8.552924458E0,4.760283751E0,-3.260412710E0,6.504139806E0,8.694505567E0
8.562910458E0,2.597384064E0,-3.096626937E0,7.372315090E0,8.407528302E0
8.572896458E0,1.529485727E0,-2.464409024E0,8.058457780E0,8.564542032E0
8.582882458E0,9.700608243E-1,-2.558483707E0,8.439143679E0,8.871640374E0
8.592869458E0,1.192087935E-1,-2.285197127E0,8.027191549E0,8.346983935E0
8.602855458E0,-7.894358012E-1,-2.492475075E0,6.338846621E0,6.856866439E0
8.612841458E0,-1.252404596E0,-2.563519914E0,3.873430706E0,4.810781335E0
8.622827458E0,-1.255519992E0,-2.158335936E0,1.648117839E0,2.991828350E0
8.632814458E0,-1.074254845E0,-1.661727233E0,4.275314516E-1,2.024387317E0
8.642800458E0,-1.082859315E0,-1.327443668E0,3.445501059E-1,1.747399715E0
8.652786458E0,-1.347720935E0,-1.269427010E0,6.662984097E-1,1.967676351E0
8.662772458E0,-1.560824464E0,-1.358548517E0,8.632946134E-1,2.242120574E0
8.672758458E0,-1.646506638E0,-1.343127070E0,8.334714746E-1,2.282465582E0
8.682745458E0,-1.546974456E0,-1.357546889E0,7.823100919E-1,2.201833918E0
8.692731458E0,-1.252599016E0,-1.545223800E0,6.456887287E-1,2.091323700E0
8.702717458E0,-1.019667579E0,-1.610946504E0,1.465639687E-1,1.912158886E0
8.712703458E0,-1.029219882E0,-1.594548572E0,-8.543746859E-1,2.081306037E0
8.722690458E0,-9.673925936E-1,-1.480648904E0,-1.743621581E0,2.483623528E0
8.732676458E0,-9.007989469E-1,-1.290485172E0,-1.977159374E0,2.527043710E0
8.742662458E0,-7.890607023E-1,-1.153288443E0,-1.723407172E0,2.218743632E0
8.752648458E0,-5.567449772E-1,-1.061530427E0,-1.465557826E0,1.893322888E0
8.762635458E0,-3.533267766E-1,-9.876777542E-1,-1.468739296E0,1.804866276E0
8.772621458E0,-1.970909286E-1,-8.220372444E-1,-1.708931805E0,1.906577557E0
8.782607458E0,4.790272951E-2,-4.818982780E-1,-2.071231134E0,2.127091684E0
8.792593458E0,4.967110294E-1,-6.977950215E-2,-2.723581595E0,2.769383999E0
8.802579458E0,1.029919209E0,2.679141587E-1,-3.595163468E0,3.749361537E0
8.812566458E0,1.453477478E0,6.289949280E-1,-4.301106584E0,4.583421129E0
8.822552458E0,1.567231258E0,8.444221401E-1,-4.913817601E0,5.226362596E0
8.832538458E0,1.540720274E0,7.974456096E-1,-5.446290202E0,5.715926471E0
8.842524458E0,1.722739128E0,7.318515444E-1,-5.674660810E0,5.975383845E0
8.852511458E0,2.312160100E0,7.751425749E-1,-5.639507934E0,6.144182621E0
8.862497458E0,2.817272409E0,1.041299061E0,-5.720291896E0,6.460887473E0
8.872483458E0,3.151603921E0,1.613269018E0,-6.223676938E0,7.160265276E0
8.882469458E0,4.089295290E0,2.077959525E0,-7.006551286E0,8.374485816E0
8.892456458E0,4.956339138E0,2.547060002E0,-7.446608058E0,9.300794798E0
8.902442458E0,5.025621042E0,2.397550791E0,-7.620644000E0,9.438184764E0
8.912428458E0,4.750882598E0,1.909728114E0,-7.867564901E0,9.387040236E0
8.922414458E0,4.710624518E0,1.638324922E0,-7.636737292E0,9.121066186E0
8.932400542E0,4.926378005E0,1.148462736E0,-7.006111575E0,8.641398400E0
8.942387542E0,5.519333035E0,4.391814440E-1,-5.631870886E0,7.897714047E0
8.952373542E0,5.854766747E0,-4.532001436E-2,-3.958706792E0,7.067652158E0
8.962359542E0,5.715213590E0,-1.288923381E0,-2.380351352E0,6.323848703E0
8.972345542E0,4.901670888E0,-2.459237162E0,-9.751097488E-1,5.570014716E0
8.982332542E0,3.891597421E0,-3.030031829E0,1.272717019E-1,4.933743148E0
8.992318542E0,2.603474523E0,-3.766267616E0,4.577744204E-1,4.601348581E0
9.002304542E0,1.348500515E0,-4.791339483E0,3.644143400E-1,4.990810104E0
9.012290542E0,7.509272084E-2,-5.758768330E0,7.029559202E-1,5.801999536E0
9.022277542E0,-1.451903700E0,-6.102088766E0,1.556831108E0,6.462757520E0
9.032263542E0,-2.373985342E0,-5.990626802E0,1.808477143E0,6.692832395E0
9.042249542E0,-2.394296815E0,-5.714765108E0,1.619763520E0,6.404282266E0
9.052235542E0,-2.075711271E0,-5.150065579E0,1.761716082E0,5.825409539E0
9.062221542E0,-1.702705982E0,-4.854508708E0,1.851640704E0,5.467543850E0
9.072208542E0,-1.339567870E0,-4.889719471E0,2.235643728E0,5.540929657E0
9.082194542E0,-1.429959100E0,-4.817915078E0,2.652406363E0,5.682635677E0
9.092180542E0,-2.026524785E0,-4.954045860E0,2.872132740E0,6.074415162E0
9.102166542E0,-2.430262454E0,-5.034002441E0,3.822728038E0,6.772045911E0
9.112153542E0,-2.084665404E0,-4.912910113E0,5.827816930E0,7.902275988E0
9.122139542E0,-1.355790677E0,-4.874301533E0,7.853476034E0,9.342059174E0
9.132125542E0,-7.955312312E-2,-4.883520253E0,9.102904982E0,1.033043938E1
9.142111542E0,8.255701321E-1,-5.579198583E0,9.138858926E0,1.073907656E1
9.152098542E0,1.453204998E0,-6.355235782E0,7.866091987E0,1.021646856E1
9.162084542E0,1.990295729E0,-6.854170507E0,6.587165006E0,9.712449395E0
9.172070542E0,3.234903647E0,-7.087593110E0,4.627164871E0,9.061414484E0
9.182056542E0,4.026685059E0,-5.920808124E0,2.058073583E0,7.450223371E0
9.192043542E0,2.675884688E0,-5.385965062E0,8.463686782E-1,6.073328450E0
9.202029542E0,5.484723365E-1,-6.337617536E0,2.481207490E-1,6.366143404E0
9.212015542E0,-8.441479057E-1,-7.719213438E0,4.192494553E-1,7.776542413E0
9.222001542E0,-1.167743637E0,-9.500381160E0,1.179991508E0,9.644337580E0
9.231987542E0,-3.341531718E-1,-1.158338449E1,2.536916252E0,1.186264721E1
9.241974542E0,1.398760696E0,-1.321152064E1,4.206966412E0,1.393554360E1
9.251960542E0,3.239119782E0,-1.460197917E1,5.687723490E0,1.600187149E1
9.261946542E0,5.613811761E0,-1.443872140E1,5.164976563E0,1.632998901E1
9.271932542E0,5.771622264E0,-1.082162795E1,1.008773339E0,1.230596923E1
9.281919542E0,5.606091682E0,-7.662759156E0,-5.334625340E0,1.089056332E1
9.291905542E0,5.555668802E0,-4.502933173E0,-1.104333916E1,1.315664102E1
9.301891542E0,4.891079534E0,-1.667192041E0,-1.540652564E1,1.625002217E1
9.311877542E0,5.245217904E0,-1.745019066E0,-1.589038624E1,1.682443988E1
9.321864542E0,5.641432253E0,-3.282867773E0,-1.213623990E1,1.378010514E1
9.331850542E0,5.168124704E0,-5.277955880E0,-6.736998153E0,9.997673496E0
9.341836542E0,4.775995805E0,-7.166265058E0,-3.395981282E0,9.257331131E0
9.351822542E0,4.246890616E0,-8.165036150E0,-2.731745478E0,9.600329608E0
9.361808542E0,4.489496271E0,-7.627534944E0,-4.156016114E0,9.777900389E0
9.371795542E0,5.770031236E0,-6.139146665E0,-6.357429657E0,1.055458640E1
9.381781542E0,6.772515895E0,-4.381908088E0,-7.551225271E0,1.104939334E1
9.391767542E0,7.954701862E0,-2.677448233E0,-8.085081908E0,1.165395041E1
9.401753542E0,8.548411183E0,-9.096261960E-1,-9.109497718E0,1.252540228E1
9.411740542E0,8.171808980E0,-5.463220230E-1,-1.001505951E1,1.293747838E1
9.421726542E0,7.246991717E0,-2.175915298E0,-9.174716392E0,1.189238904E1
9.431712542E0,5.452460768E0,-4.422134300E0,-7.111556754E0,9.992939491E0
9.441698542E0,4.102881296E0,-6.186285163E0,-5.291186374E0,9.115942754E0
9.451685542E0,2.956098465E0,-7.462256377E0,-3.942514097E0,8.942438469E0
9.461671542E0,2.336307054E0,-8.140656184E0,-3.064998763E0,9.006821369E0
9.471657542E0,2.624130982E0,-8.214451554E0,-2.594513665E0,9.005263955E0
9.481643542E0,3.183948087E0,-7.416809478E0,-3.175464946E0,8.673532491E0
9.491629542E0,3.955375341E0,-5.653745905E0,-4.370546655E0,8.167711730E0
9.501616542E0,5.513394603E0,-4.113767057E0,-5.553717002E0,8.841061700E0
9.511602542E0,6.700264190E0,-2.207316161E0,-6.719046031E0,9.742246374E0
9.521588542E0,7.868215111E0,-1.015292253E0,-7.546148134E0,1.094915426E1
9.531574542E0,9.472733186E0,-1.024038811E0,-7.238921390E0,1.196592296E1
9.541561542E0,1.043822251E1,-2.038089408E0,-5.603053468E0,1.202100269E1
9.551547542E0,1.044096135E1,-2.747501385E0,-3.682921988E0,1.140729381E1
9.561533542E0,1.021422971E1,-3.254911650E0,-2.214390269E0,1.094661878E1
9.571519542E0,9.736887585E0,-3.193748020E0,-1.288621080E0,1.032799838E1
9.581506542E0,1.049325884E1,-2.500017106E0,-8.062409914E-1,1.081705095E1
9.591492542E0,1.192399767E1,-7.107638535E-1,-5.869148558E-1,1.195957251E1
9.601478542E0,1.365983134E1,1.037018606E0,-1.476240104E0,1.377845001E1
9.611464542E0,1.535487718E1,2.100308460E0,-2.687220100E0,1.572910362E1
9.621450542E0,1.662241203E1,1.492977466E0,-3.027198268E0,1.696164770E1
9.631437542E0,1.690865897E1,-1.086969616E0,-2.091478288E0,1.707215664E1
9.641423542E0,1.483582336E1,-5.238557341E0,2.089531749E0,1.587168172E1
9.651409542E0,8.819736607E0,-7.470480486E0,8.125285023E0,1.412855581E1
9.661395542E0,3.325552447E0,-7.416684932E0,1.146693953E1,1.405550485E1
9.671382542E0,3.301460749E-1,-8.052846792E0,1.195768231E1,1.442024633E1
9.681368542E0,-1.170097580E0,-6.220371507E0,1.161683408E1,1.322924729E1
9.691354542E0,-7.856786728E-1,-4.327876307E0,1.010760340E1,1.102322325E1
9.701340542E0,-3.701508240E-1,-3.509852591E0,7.674335473E0,8.446981816E0
9.711327542E0,-6.500773564E-1,-2.015580259E0,4.885435801E0,5.324720398E0
9.721313542E0,4.745889661E-1,-5.395366216E-1,2.222018546E0,2.335316011E0
9.731299542E0,1.261702838E0,1.126148592E0,5.527899206E-2,1.692087607E0
9.741285542E0,1.300850531E0,1.782417857E0,-1.271471196E0,2.546736053E0
9.751271542E0,4.170389155E-1,1.365032494E0,-1.593470930E0,2.139248647E0
9.761258542E0,-8.326601735E-1,3.469913185E-1,-8.150708717E-1,1.215757569E0
9.771244542E0,-1.660318346E0,-1.101777397E0,4.984260178E-1,2.054020189E0
9.781230542E0,-2.400264484E0,-2.393493993E0,1.226963945E0,3.604930458E0
9.791216542E0,-3.126416747E0,-2.980316463E0,1.297780743E0,4.510100082E0
9.801203542E0,-3.045059173E0,-3.036423420E0,7.393728179E-1,4.363361631E0
9.811189542E0,-2.405454180E0,-2.626114358E0,-2.256434673E-1,3.568417213E0
9.821175542E0,-1.703754973E0,-1.856742985E0,-1.460879468E0,2.912806952E0
9.831161542E0,-1.112195673E0,-1.130145164E0,-2.338737742E0,2.825579857E0
9.841148542E0,-7.037416399E-1,-8.247333956E-1,-2.328241405E0,2.568296227E0
9.851134542E0,-5.546797407E-1,-7.006893933E-1,-1.922070417E0,2.119667410E0
9.861120542E0,-3.910749391E-1,-6.553799039E-1,-1.723792503E0,1.885185142E0
9.871106542E0,-3.501722038E-2,-6.849229610E-1,-1.673735075E0,1.808793733E0
9.881092542E0,7.692655385E-2,-6.930921060E-1,-1.583693801E0,1.730427814E0
9.891079542E0,-9.969502687E-4,-6.309619313E-1,-1.463148188E0,1.593397807E0
9.901065542E0,-2.457730919E-2,-6.243580860E-1,-1.391888171E0,1.525706310E0
9.911051542E0,-7.025517315E-2,-7.898629403E-1,-1.503007488E0,1.699367754E0
9.921037542E0,-1.798556757E-1,-9.254727352E-1,-1.995267032E0,2.206793687E0
9.931024167E0,-1.794598192E-2,-7.531722468E-1,-2.629822662E0,2.735609205E0
9.941010167E0,2.840320086E-1,-3.791971976E-1,-3.179504203E0,3.214609101E0
9.950996167E0,3.904729682E-1,-1.411792678E-1,-3.638014203E0,3.661631885E0
9.960982167E0,5.989612895E-1,-4.745249391E-2,-4.004080893E0,4.048909750E0
9.970969167E0,8.963752359E-1,1.192849535E-1,-3.992046738E0,4.093183923E0
9.980955167E0,1.170592693E0,3.115186000E-1,-3.843388297E0,4.029759880E0
9.990941167E0,1.468022719E0,3.651726508E-1,-3.915647603E0,4.197706269E0
1.000092717E1,1.793307127E0,5.192251486E-1,-4.013889597E0,4.426833508E0
1.001091317E1,2.049635320E0,5.651263762E-1,-4.007097471E0,4.536210193E0
1.002090017E1,2.222883057E0,4.777490938E-1,-4.150775839E0,4.732694090E0
1.003088617E1,2.554114083E0,6.988504440E-1,-4.642116786E0,5.344262245E0
1.004087217E1,3.232571778E0,1.399714669E0,-5.325788442E0,6.385353865E0
1.005085817E1,4.260020246E0,2.179001166E0,-6.282926189E0,7.897529999E0
1.006084517E1,5.191540464E0,2.638642017E0,-7.166014212E0,9.233974430E0
1.007083117E1,5.841253831E0,2.806392202E0,-7.590233216E0,9.980366917E0
1.008081717E1,6.695916200E0,2.169083703E0,-7.610797874E0,1.036650675E1
1.009080317E1,7.086011438E0,1.035234329E0,-6.808620697E0,9.881325013E0
1.010079017E1,6.738729513E0,-1.942661387E-1,-5.615782857E0,8.774122855E0
1.011077617E1,6.269862925E0,-1.445974916E0,-4.508133101E0,7.856544318E0
1.012076217E1,5.599200738E0,-1.871122457E0,-3.148006129E0,6.690447724E0
1.013074817E1,5.394887913E0,-1.142276967E0,-2.185952189E0,5.931947340E0
1.014073417E1,5.676796798E0,-8.950081569E-1,-2.403617423E0,6.229320846E0
1.015072117E1,5.702457304E0,-1.539809863E0,-2.262242128E0,6.325090763E0
1.016070717E1,4.375819967E0,-2.696869760E0,-1.507854245E0,5.356727668E0
1.017069317E1,2.885004508E0,-3.625967769E0,2.876596669E-2,4.633758815E0
1.018067917E1,1.437007187E0,-4.257084067E0,1.285394586E0,4.673327899E0
1.019066617E1,6.601377833E-1,-4.289879930E0,1.372318709E0,4.552154473E0
1.020065217E1,3.746235055E-1,-4.242646707E0,7.171972525E-1,4.319116316E0
1.021063817E1,-1.411459386E-1,-4.676582614E0,6.055991949E-1,4.717742840E0
1.022062417E1,-1.103811643E0,-5.160444971E0,1.326189879E0,5.441265665E0
1.023061117E1,-2.184615370E0,-5.479700607E0,2.374836989E0,6.359207009E0
1.024059717E1,-3.024158593E0,-5.354875417E0,3.299138820E0,6.978864010E0
1.025058317E1,-2.883610825E0,-5.000388553E0,3.195712100E0,6.597853658E0
1.026056917E1,-2.243502386E0,-4.884576260E0,2.786816309E0,6.054645600E0
1.027055517E1,-1.543117048E0,-4.815498424E0,3.526007279E0,6.164654299E0
1.028054217E1,-1.338290838E0,-5.137233279E0,4.727189096E0,7.108340515E0
1.029052817E1,-9.384658331E-1,-5.660225204E0,5.506568563E0,7.952431378E0
1.030051417E1,-2.255557591E-1,-5.657739553E0,6.011187952E0,8.258042918E0
1.031050017E1,3.411791861E-1,-6.000608584E0,5.391110612E0,8.073894986E0
1.032048717E1,4.088671392E-1,-5.983701360E0,4.000306807E0,7.209320971E0
1.033047317E1,1.564808464E-1,-6.116409182E0,3.930368553E0,7.272052290E0
1.034045917E1,-1.211519694E-1,-6.466215935E0,5.370386326E0,8.406406819E0
1.035044517E1,-3.074436754E-1,-7.397590849E0,6.159058188E0,9.630829131E0
1.036043217E1,-6.489482591E-1,-8.620587459E0,6.098552955E0,1.057960350E1
1.037041817E1,-3.744007266E-1,-9.660932838E0,4.753607401E0,1.077360583E1
1.038040417E1,4.028173175E-1,-1.041724036E1,3.099792620E0,1.087611479E1
1.039039017E1,1.738636830E0,-1.088413352E1,1.590442657E0,1.113627982E1
1.040037717E1,3.790917138E0,-9.283192767E0,1.772430667E-1,1.002896484E1
1.041036317E1,4.565851552E0,-7.617908673E0,2.722474571E-1,8.885586735E0
1.042034917E1,3.958637795E0,-7.530546593E0,-3.858775683E-1,8.516386950E0
1.043033517E1,2.233368284E0,-8.137858876E0,-2.140365103E0,8.705965986E0
1.044032117E1,1.609697685E0,-9.799183820E0,-3.324128065E0,1.047210378E1
1.045030817E1,1.906155758E0,-1.094425225E1,-3.490590109E0,1.164449683E1
1.046029417E1,3.388691851E0,-1.172790545E1,-2.092411211E0,1.238568461E1
1.047028017E1,4.806676145E0,-1.232620425E1,-9.744960836E-1,1.326608794E1
1.048026617E1,7.476931719E0,-1.137720348E1,-1.590872135E0,1.370679179E1
1.049025317E1,9.403330829E0,-7.181969510E0,-3.760827366E0,1.241560064E1
1.050023917E1,8.572799335E0,-4.131406937E0,-7.291153983E0,1.198842517E1
1.051022517E1,8.379214396E0,-2.022053711E0,-1.022311397E1,1.337206022E1
1.052021117E1,8.514468096E0,-2.339546996E-1,-1.097702121E1,1.389409574E1
1.053019717E1,8.172173261E0,-6.732817394E-1,-1.004581587E1,1.296750325E1
1.054018417E1,7.641622056E0,-2.364749665E0,-8.479586531E0,1.165717875E1
1.055017017E1,6.177420200E0,-3.274019181E0,-6.455590374E0,9.516005938E0
1.056015617E1,5.408834692E0,-3.895198721E0,-5.395391943E0,8.575448678E0
1.057014217E1,4.847330666E0,-4.671020157E0,-4.889448745E0,8.319961113E0
1.058012917E1,4.276897942E0,-5.198707396E0,-4.475726663E0,8.083968318E0
1.059011517E1,4.115152262E0,-5.328540727E0,-4.501496512E0,8.098845304E0
1.060010117E1,4.582304447E0,-4.832067094E0,-5.686928269E0,8.757142204E0
1.061008717E1,5.541779911E0,-3.627394782E0,-6.992788110E0,9.631635533E0
1.062007417E1,6.621534355E0,-1.666056511E0,-8.303816890E0,1.075052726E1
1.063006017E1,6.909340156E0,-4.622335070E-1,-9.789275129E0,1.199093611E1
1.064004617E1,7.146110875E0,-6.114848560E-1,-1.067139076E1,1.285765901E1
1.065003217E1,7.592437617E0,-1.763917851E0,-9.639534953E0,1.239665879E1
1.066001817E1,7.332931754E0,-3.486180431E0,-7.985315545E0,1.138817836E1
1.067000517E1,7.252761165E0,-4.995478646E0,-6.584895117E0,1.099628097E1
1.067999117E1,6.946451265E0,-6.107664086E0,-5.118591771E0,1.057150545E1
1.068997717E1,6.935992350E0,-6.077497131E0,-4.091145349E0,1.008867838E1
1.069996317E1,8.128644249E0,-5.182421147E0,-3.073324614E0,1.011818514E1
1.070995017E1,9.269556475E0,-3.303865709E0,-2.208371145E0,1.008549002E1
1.071993617E1,1.032386384E1,-1.434853073E0,-2.048184333E0,1.062243037E1
1.072992217E1,1.156795135E1,5.328624634E-1,-2.644154187E0,1.187825712E1
1.073990817E1,1.237721535E1,2.343682440E0,-4.374195026E0,1.333498742E1
1.074989517E1,1.407069180E1,2.159603905E0,-5.435675166E0,1.523794019E1
1.075988117E1,1.613030452E1,-2.490910944E-1,-4.046701248E0,1.663203418E1
1.076986717E1,1.596318408E1,-3.590226079E0,2.610302317E-1,1.636401864E1
1.077985317E1,1.192937945E1,-5.086022780E0,5.672900214E0,1.415484082E1
1.078984017E1,8.551662235E0,-5.324545909E0,8.503378267E0,1.318291159E1
1.079982617E1,7.034461216E0,-5.614712816E0,7.894619967E0,1.197220402E1
1.080981217E1,5.124842445E0,-4.644885442E0,7.128364576E0,9.932399125E0
1.081979817E1,3.810345097E0,-2.784716574E0,6.381303838E0,7.936902093E0
1.082978417E1,3.908115805E0,-1.804319188E0,6.232269421E0,7.574306504E0
1.083977117E1,3.721507764E0,-1.174912616E0,6.555899359E0,7.629538394E0
1.084975717E1,3.096006255E0,-7.304926515E-1,6.485643893E0,7.223742172E0
1.085974317E1,2.015409813E0,-2.510724235E-1,5.662866976E0,6.016059879E0
1.086972917E1,1.317922939E0,-6.879266757E-1,3.830865315E0,4.109220492E0
1.087971617E1,-8.451916337E-2,-1.036912479E0,2.541071284E0,2.745792099E0
1.088970217E1,-9.626578107E-1,-9.574049646E-1,1.734639673E0,2.202795751E0
1.089968817E1,-1.271465934E0,-1.214632167E0,1.187730882E0,2.121947589E0
1.090967417E1,-1.665811221E0,-1.454917647E0,1.348849740E0,2.590580631E0
1.091966017E1,-1.994256341E0,-1.741570963E0,1.784805860E0,3.193064316E0
1.092964717E1,-2.111054181E0,-1.873813931E0,1.812543297E0,3.354555351E0
1.093963379E1,-1.923671969E0,-1.571457333E0,1.496283190E0,2.899802645E0
1.094961979E1,-1.578635375E0,-1.126027554E0,1.046284397E0,2.203347167E0
1.095960579E1,-1.031044214E0,-7.670207924E-1,5.836024082E-1,1.411369844E0
1.096959279E1,-6.139763546E-1,-4.970858359E-1,-1.228008842E-1,7.994631633E-1
1.097957879E1,-5.336247942E-1,-5.332847786E-1,-1.267837152E0,1.475316617E0
1.098956479E1,-7.607873681E-1,-1.046715336E0,-2.334886181E0,2.669476333E0
1.099955079E1,-1.028248368E0,-1.760904781E0,-2.741099269E0,3.416387793E0
1.100953779E1,-1.232052484E0,-1.967064157E0,-2.587857780E0,3.476248353E0
1.101952379E1,-1.190782544E0,-2.079501436E0,-2.159206586E0,3.225594886E0
1.102950979E1,-1.160667045E0,-2.057605367E0,-1.551903074E0,2.826533387E0
1.103949579E1,-1.131946691E0,-1.863614632E0,-1.216009771E0,2.496606211E0
1.104948279E1,-9.307942861E-1,-1.639712466E0,-1.460933847E0,2.385238496E0
1.105946879E1,-5.159156245E-1,-1.171199049E0,-2.085514128E0,2.446884820E0
1.106945479E1,-1.262712067E-1,-7.306592971E-1,-2.772145645E0,2.869599084E0
1.107944079E1,8.512201130E-2,-4.827847159E-1,-3.240669002E0,3.277539080E0
1.108942679E1,1.080916286E-1,-2.955147707E-1,-3.532999964E0,3.546984850E0
1.109941379E1,1.368207532E-1,-2.953773612E-1,-3.859078131E0,3.872783459E0
1.110939979E1,1.568644238E-1,-4.272794366E-1,-4.245879048E0,4.270206441E0
1.111938579E1,2.099431086E-1,-6.441485721E-1,-4.462396181E0,4.513533335E0
1.112937179E1,2.995429176E-1,-7.660343671E-1,-4.253864005E0,4.332654335E0
1.113935879E1,4.436674279E-1,-7.188584465E-1,-4.077264644E0,4.163854612E0
1.114934479E1,8.989176053E-1,-4.855381697E-1,-4.312139695E0,4.431517678E0
1.115933079E1,1.377794627E0,7.917129993E-4,-4.803650796E0,4.997337254E0
1.116931679E1,1.702187626E0,2.366496813E-1,-5.420175367E0,5.686101195E0
1.117930379E1,1.984931493E0,2.476108718E-1,-5.911421589E0,6.240686611E0
1.118928979E1,2.193395841E0,1.486403149E-1,-6.311438382E0,6.683362456E0
1.119927579E1,2.132576028E0,-6.737278819E-2,-6.823695404E0,7.149492190E0
1.120926179E1,2.513494645E0,3.507452309E-2,-7.124004892E0,7.554490800E0
1.121924779E1,3.486543251E0,4.768644100E-1,-7.224962332E0,8.036383777E0
1.122923479E1,4.629833832E0,8.940579844E-1,-7.370956197E0,8.750182641E0
1.123922079E1,5.376650448E0,5.366089207E-1,-7.400806233E0,9.163419235E0
1.124920679E1,5.544062664E0,-1.631887722E-1,-7.424580427E0,9.267559329E0
1.125919279E1,5.752031168E0,-5.955394989E-1,-7.853520473E0,9.752861820E0
1.126917979E1,6.427289851E0,-1.127251961E0,-7.824123012E0,1.018811330E1
1.127916579E1,7.051006497E0,-1.889285079E0,-6.857602823E0,1.001562815E1
1.128915179E1,7.051572508E0,-2.537158912E0,-5.252449740E0,9.151506895E0
1.129913779E1,7.557375373E0,-3.457062759E0,-3.755791452E0,9.119823182E0
1.130912379E1,6.575524954E0,-5.137208136E0,-1.388279708E0,8.459063565E0
1.131911079E1,4.258414893E0,-5.115620216E0,1.732376801E0,6.877848281E0
1.132909679E1,3.061939792E0,-4.779064423E0,2.689451398E0,6.280770723E0
1.133908279E1,2.681678986E0,-4.610105034E0,1.347214859E0,5.500859795E0
1.134906879E1,2.301239840E0,-4.147751659E0,1.726225968E-1,4.746508947E0
1.135905579E1,2.300710521E0,-3.997864133E0,-7.058209097E-1,4.666301500E0
1.136904179E1,2.340937757E0,-4.389003684E0,-6.353005654E-1,5.014673442E0
1.137902779E1,1.291031595E0,-4.799368880E0,1.032622377E0,5.076121866E0
1.138901379E1,2.828786454E-1,-5.025783595E0,3.312374577E0,6.025806702E0
1.139900079E1,-5.694442526E-1,-5.325829373E0,5.119189357E0,7.409104193E0
1.140898679E1,-1.298411073E0,-5.374084105E0,5.830705454E0,8.035158827E0
1.141897279E1,-1.543663178E0,-5.469183805E0,5.250683881E0,7.737218410E0
1.142895879E1,-1.756540712E0,-5.691660420E0,4.344905153E0,7.372830827E0
1.143894579E1,-2.065657860E0,-5.794250404E0,3.955141452E0,7.313236222E0
1.144893179E1,-2.153356447E0,-5.707885274E0,3.964663058E0,7.275675326E0
1.145891779E1,-2.195580946E0,-5.529392585E0,4.128827730E0,7.241683262E0
1.146890379E1,-1.601367595E0,-5.340367305E0,4.303509790E0,7.043017652E0
1.147888979E1,-7.588627571E-1,-5.294654943E0,4.286811311E0,6.854633095E0
1.148887679E1,2.159142852E-2,-5.428151554E0,4.582808477E0,7.104043146E0
1.149886279E1,7.613674119E-1,-5.844078621E0,5.138774605E0,7.819203266E0
1.150884879E1,1.439757279E0,-6.017688886E0,5.830154062E0,8.501539680E0
1.151883479E1,1.907317599E0,-6.030063348E0,6.498341122E0,9.067963484E0
1.152882179E1,2.282777549E0,-6.131873898E0,6.866084209E0,9.484411590E0
1.153880779E1,2.014373978E0,-6.423449984E0,7.003428873E0,9.714238426E0
1.154879379E1,1.300251777E0,-7.184047025E0,7.033497595E0,1.013761682E1
1.155877979E1,1.400886159E0,-8.031875753E0,6.915685555E0,1.069112795E1
1.156876679E1,2.100368102E0,-8.858193744E0,6.718946629E0,1.131474199E1
1.157875279E1,4.561476080E0,-9.545492429E0,5.528978017E0,1.193704686E1
1.158873879E1,6.869059272E0,-8.322292922E0,2.980560291E0,1.119501114E1
1.159872479E1,6.767770879E0,-6.638665527E0,-1.923804116E-1,9.482173426E0
1.160871079E1,4.660838985E0,-6.212509341E0,-2.615435003E0,8.195071239E0
1.161869779E1,1.856336311E0,-7.002417305E0,-4.065611143E0,8.307167181E0
1.162868379E1,7.088317873E-1,-8.756329985E0,-5.247705309E0,1.023299410E1
1.163866979E1,7.210708136E-1,-1.087771327E1,-4.485980340E0,1.178849476E1
1.164865579E1,1.509385923E0,-1.324584263E1,-1.753131054E0,1.344634007E1
1.165864279E1,2.905693127E0,-1.522345516E1,1.293536103E0,1.555216626E1
1.166862879E1,6.663439010E0,-1.499606162E1,1.853313593E0,1.651417739E1
1.167861479E1,1.081911248E1,-1.069242086E1,1.562712237E-2,1.521122292E1
1.168860079E1,1.098955764E1,-3.601750941E0,-4.130714042E0,1.228030071E1
1.169858779E1,9.480600615E0,-1.056036383E0,-9.530448128E0,1.348430356E1
1.170857379E1,8.205953211E0,-1.211381115E0,-1.428226862E1,1.651630435E1
1.171855979E1,6.600901285E0,-2.348937040E0,-1.528148059E1,1.681109907E1
1.172854579E1,5.198969352E0,-4.766416896E0,-1.324604494E1,1.500685573E1
1.173853179E1,5.102615424E0,-7.277834026E0,-9.644898019E0,1.311592963E1
1.174851879E1,5.185847030E0,-8.416165291E0,-6.161967763E0,1.164880656E1
1.175850479E1,5.125114925E0,-9.294765576E0,-3.872665890E0,1.129854022E1
1.176849079E1,4.414901002E0,-9.648233271E0,-2.631662196E0,1.093185263E1
1.177847679E1,5.776488901E0,-7.746897665E0,-3.598791665E0,1.031181599E1
1.178846379E1,7.546278527E0,-4.932242178E0,-5.683900580E0,1.065739454E1
1.179844979E1,9.035903492E0,-2.573659863E0,-8.470311677E0,1.264980067E1
1.180843579E1,9.754750244E0,-1.422645110E-1,-1.120208405E1,1.485469887E1
1.181842179E1,8.889234273E0,7.384100738E-1,-1.320421162E1,1.593470866E1
1.182840879E1,8.632854917E0,-7.313387436E-1,-1.363021754E1,1.615066161E1
1.183839479E1,8.257606344E0,-3.366154343E0,-1.191642319E1,1.488355465E1
1.184838079E1,7.581261833E0,-5.917015620E0,-9.563762054E0,1.356289606E1
1.185836679E1,6.744732265E0,-7.927722809E0,-7.474655982E0,1.281447168E1
1.186835279E1,6.453416380E0,-8.587004560E0,-6.388319913E0,1.249775426E1
1.187833979E1,7.032269095E0,-8.396381237E0,-6.347529736E0,1.265871874E1
1.188832579E1,8.414164959E0,-7.362316936E0,-6.318671973E0,1.284241014E1
1.189831179E1,1.011087082E1,-5.960988436E0,-6.912828020E0,1.362168430E1
1.190829779E1,1.237172365E1,-4.265885881E0,-7.791912455E0,1.523060170E1
1.191828479E1,1.473414846E1,-2.709533075E0,-7.179992566E0,1.661291647E1
1.192827079E1,1.676113839E1,-9.889417760E-1,-6.284882083E0,1.792800906E1
1.193825642E1,1.871375876E1,2.531483312E-1,-6.947824776E0,1.996349468E1
1.194824242E1,2.045660090E1,-2.007540045E0,-6.818884900E0,2.165640619E1
1.195822942E1,1.914151767E1,-6.624197177E0,-2.226814433E0,2.037734991E1
1.196821542E1,1.365283457E1,-9.061216089E0,5.677925311E0,1.734198272E1
1.197820142E1,8.476226136E0,-8.867829956E0,1.108055318E1,1.653068288E1
1.198818742E1,5.229345052E0,-7.888659316E0,1.249031805E1,1.567115313E1
1.199817342E1,3.109384100E0,-6.635693972E0,1.254072689E1,1.452482478E1
1.200816042E1,1.755824428E0,-5.390303112E0,1.041417408E1,1.185720494E1
1.201814642E1,1.794079252E0,-3.931535073E0,7.789555442E0,8.908022361E0
1.202813242E1,2.063547015E0,-2.501149419E0,6.825069500E0,7.556159631E0
1.203811842E1,2.025963452E0,-2.131107207E0,6.669603145E0,7.289015842E0
1.204810542E1,2.395408079E0,-1.464771375E0,7.160930058E0,7.691713356E0
1.205809142E1,2.565803252E0,-5.732417268E-1,6.173996070E0,6.710453031E0
1.206807742E1,2.410033135E0,1.170144796E-1,3.841254063E0,4.536208205E0
1.207806342E1,2.313285397E0,4.552104163E-1,2.504916780E0,3.439929349E0
1.208805042E1,1.858266184E0,2.493749768E-1,2.044779500E0,2.774250222E0
1.209803642E1,9.384772351E-1,-3.791761476E-1,1.939884544E0,2.188073608E0
1.210802242E1,-1.114420831E-1,-1.176548082E0,1.934760044E0,2.267152654E0
1.211800842E1,-1.024654084E0,-1.754098037E0,1.894680889E0,2.777875373E0
1.212799442E1,-1.679282328E0,-1.895481958E0,1.690131252E0,3.044566413E0
1.213798142E1,-1.848529108E0,-1.968937020E0,1.453347085E0,3.066918747E0
1.214796742E1,-1.363620099E0,-1.803261427E0,1.376831006E0,2.647050276E0
1.215795342E1,-8.331884694E-1,-1.410385838E0,3.658234459E-1,1.678457038E0
1.216793942E1,-6.058042860E-1,-8.501681989E-1,-1.216974562E0,1.603375154E0
1.217792642E1,-3.615988326E-1,-5.736253041E-1,-2.037577484E0,2.147445392E0
1.218791242E1,-4.203776756E-1,-7.011472303E-1,-2.432628822E0,2.566321846E0
1.219789842E1,-4.382254243E-1,-8.576327544E-1,-2.518892795E0,2.696738099E0
1.220788442E1,-4.877589422E-1,-1.049720805E0,-2.140900124E0,2.433778111E0
1.221787142E1,-7.601082140E-1,-1.466468822E0,-1.977465768E0,2.576560919E0
1.222785742E1,-9.191188583E-1,-1.739900998E0,-2.059813861E0,2.848660755E0
1.223784342E1,-7.989161843E-1,-1.492792402E0,-2.261677871E0,2.825222649E0
1.224782942E1,-1.456442016E-1,-7.645415729E-1,-2.894240186E0,2.997058942E0
1.225781542E1,4.684461737E-1,-1.663146937E-1,-4.387753549E0,4.415821962E0
1.226780242E1,9.236139053E-1,3.479970396E-1,-5.852083459E0,5.934732126E0
1.227778842E1,1.346089854E0,9.042134285E-1,-6.661804129E0,6.856325114E0
1.228777442E1,1.775989428E0,1.205892919E0,-7.063427737E0,7.382433717E0
1.229776042E1,2.009105637E0,1.147732419E0,-7.736845717E0,8.075430441E0
1.230774742E1,2.140932283E0,8.310513121E-1,-7.647052950E0,7.984463422E0
1.231773342E1,2.097593306E0,3.293385744E-1,-7.083531634E0,7.394915955E0
1.232771942E1,2.203003401E0,2.350329262E-1,-6.738280447E0,7.093157819E0
1.233770542E1,2.401637995E0,3.815167880E-1,-6.809411826E0,7.230595378E0
1.234769242E1,2.795636249E0,4.870309639E-1,-6.986954927E0,7.541241301E0
1.235767842E1,3.423963133E0,7.016992074E-1,-6.694697056E0,7.552143668E0
1.236766442E1,4.025905333E0,1.219931499E0,-6.437716021E0,7.690275299E0
1.237765042E1,5.014310188E0,1.410420336E0,-6.189276599E0,8.089483111E0
1.238763642E1,5.823325099E0,1.512616802E0,-6.158275246E0,8.609499335E0
1.239762342E1,7.040059340E0,9.651151031E-1,-6.190209814E0,9.424042669E0
1.240760942E1,7.790254769E0,-1.169337881E-1,-5.278233622E0,9.410711612E0
1.241759542E1,9.273210400E0,-1.535419189E0,-4.422859355E0,1.038805218E1
1.242758142E1,8.776338573E0,-4.777309089E0,-2.714669562E0,1.035452711E1
1.243756842E1,6.720959825E0,-5.913305562E0,9.947375362E-1,9.007107549E0
1.244755442E1,3.392220938E0,-5.221056039E0,3.343480010E0,7.067209324E0
1.245754042E1,1.973694461E0,-4.893036597E0,2.626667504E0,5.893781396E0
1.246752642E1,1.301918672E0,-4.268407785E0,3.768413178E-1,4.478426802E0
1.247751342E1,1.584510657E0,-3.508508901E0,-2.400434053E-1,3.857191928E0
1.248749942E1,1.995431631E0,-3.080824837E0,5.748157972E-1,3.715325325E0
1.249748542E1,1.530345267E0,-3.038650040E0,1.177240977E0,3.600173193E0
1.250747142E1,1.051368551E0,-3.050706999E0,1.072606369E0,3.400393131E0
1.251745742E1,3.757274598E-1,-3.295345731E0,2.594457825E-1,3.326828328E0
1.252744442E1,-2.507236370E-1,-4.095395105E0,-2.359041613E-1,4.109838706E0
1.253743042E1,-7.967065215E-1,-4.493950095E0,2.550725037E-1,4.571147637E0
1.254741642E1,-1.849040155E0,-4.830350352E0,1.222581457E0,5.314690907E0
1.255740242E1,-2.853733892E0,-5.251447527E0,1.875716615E0,6.264168826E0
1.256738942E1,-3.551225150E0,-5.450646377E0,2.254481995E0,6.885015255E0
1.257737542E1,-4.105477752E0,-5.415937305E0,2.421649213E0,7.214687060E0
1.258736142E1,-3.949816977E0,-5.270749771E0,1.789611686E0,6.825288806E0
1.259734742E1,-3.365450630E0,-5.271556102E0,1.157821789E0,6.360512006E0
1.260733442E1,-2.967123682E0,-4.979645555E0,8.208976221E-1,5.854448369E0
1.261732042E1,-1.786241059E0,-4.662983744E0,6.121780434E-1,5.030788852E0
1.262730642E1,-4.975647229E-1,-4.121168463E0,1.414649042E0,4.385525289E0
1.263729242E1,4.144237483E-1,-3.981848609E0,2.631975022E0,4.791049771E0
1.264727942E1,1.062500480E0,-3.885353179E0,4.747024605E0,6.225682228E0
1.265726542E1,1.067621471E0,-3.955022753E0,6.981153320E0,8.094351257E0
1.266725142E1,7.865551704E-1,-4.580283065E0,8.005240517E0,9.256432235E0
1.267723742E1,6.603032595E-1,-5.621764559E0,7.225417246E0,9.178610544E0
1.268722342E1,1.101078655E0,-6.750916280E0,5.586588879E0,8.831603485E0
1.269721042E1,2.040439112E0,-7.353591721E0,3.984770171E0,8.609128660E0
1.270719642E1,2.507598313E0,-7.289298661E0,2.428266507E0,8.081980110E0
1.271718242E1,2.348054110E0,-7.072529513E0,8.302442501E-1,7.498222278E0
1.272716842E1,2.000101217E0,-6.696655288E0,-6.276997697E-1,7.017093695E0
1.273715542E1,1.244639493E0,-6.925703005E0,-9.183860560E-1,7.096331624E0
1.274714142E1,1.328687663E0,-7.398162122E0,-6.257723813E-1,7.542533047E0
1.275712742E1,1.847719269E0,-7.761303450E0,-1.941714138E-1,7.980576438E0
1.276711342E1,2.448207705E0,-8.421940586E0,6.118023598E-1,8.791877293E0
1.277710042E1,3.092740878E0,-9.378814623E0,1.308196388E0,9.961856638E0
1.278708642E1,4.395325986E0,-9.907557285E0,1.287864450E0,1.091499779E1
1.279707242E1,5.056322433E0,-8.886704183E0,3.496530441E-1,1.023045283E1
1.280705842E1,5.163809459E0,-8.158769689E0,-1.044103458E0,9.711879478E0
1.281704442E1,4.870850799E0,-7.678269480E0,-3.176297590E0,9.631712002E0
1.282703142E1,4.706380317E0,-6.467660197E0,-5.768916757E0,9.862101432E0
1.283701742E1,4.270167797E0,-6.566093979E0,-7.199888302E0,1.063890571E1
1.284700342E1,3.796019126E0,-7.764236999E0,-7.470124390E0,1.142348002E1
1.285698942E1,3.977369058E0,-8.703953551E0,-7.355654619E0,1.206995969E1
1.286697642E1,4.980289333E0,-9.315391045E0,-7.560313014E0,1.298992398E1
1.287696242E1,7.239963949E0,-9.157468860E0,-7.926970857E0,1.411074700E1
1.288694842E1,9.050527963E0,-6.502240630E0,-8.559529663E0,1.405193003E1
1.289693442E1,9.413514925E0,-3.540408386E0,-9.497155252E0,1.383274061E1
1.290692142E1,9.828124030E0,-2.325756923E0,-1.092957457E1,1.488142357E1
1.291690742E1,9.928700817E0,-2.057333472E0,-1.117447116E1,1.508908634E1
1.292689342E1,9.446630630E0,-2.168301930E0,-1.072884784E1,1.445851097E1
1.293687904E1,9.112139490E0,-2.745477372E0,-9.445927795E0,1.340873909E1
1.294686504E1,8.327686393E0,-3.380454001E0,-8.146428555E0,1.213021550E1
1.295685204E1,7.061538502E0,-4.444805417E0,-7.242070116E0,1.104849314E1
1.296683804E1,6.159903696E0,-5.648753552E0,-6.247208472E0,1.043457924E1
1.297682404E1,5.336748464E0,-6.360959621E0,-5.601120964E0,1.001574997E1
1.298681004E1,4.870166382E0,-6.353075820E0,-5.710727606E0,9.833234603E0
1.299679704E1,5.373156152E0,-6.010381036E0,-6.047857010E0,1.007829656E1
1.300678304E1,6.444086562E0,-5.317052118E0,-6.447807146E0,1.055327020E1
1.301676904E1,7.494323677E0,-3.779059569E0,-7.075386463E0,1.097758043E1
1.302675504E1,8.489376524E0,-2.158861308E0,-7.952444252E0,1.183095793E1
1.303674204E1,9.316245908E0,-1.680577341E0,-9.361039088E0,1.331337038E1
1.304672804E1,9.475022956E0,-2.436594550E0,-1.038255468E1,1.426571045E1
1.305671404E1,9.601352050E0,-4.022015765E0,-9.490604616E0,1.408666561E1
1.306670004E1,1.020749840E1,-5.292008493E0,-7.053248320E0,1.348876159E1
1.307668604E1,1.123459808E1,-5.894231944E0,-3.879109522E0,1.326671229E1
1.308667304E1,1.255279788E1,-5.560512636E0,-1.525388875E0,1.381371951E1
1.309665904E1,1.347865303E1,-4.227094867E0,-6.551091778E-1,1.414113102E1
1.310664504E1,1.519342971E1,-3.057012051E0,4.243102205E-1,1.550373078E1
1.311663104E1,1.623565380E1,-2.387976560E0,2.109547938E0,1.654536427E1
1.312661804E1,1.529342061E1,-2.356147242E0,3.743114396E0,1.592014601E1
1.313660404E1,1.289527749E1,-2.732770495E0,4.087867985E0,1.380097391E1
1.314659004E1,1.046925719E1,-4.213542191E0,5.407749449E0,1.251411355E1
1.315657604E1,7.496075503E0,-6.059025192E0,7.326579924E0,1.210709328E1
1.316656304E1,4.086925998E0,-6.603061831E0,8.551500852E0,1.155125779E1
1.317654904E1,1.560755467E0,-5.876033070E0,9.492989110E0,1.127300158E1
1.318653504E1,5.787170595E-1,-4.512700946E0,1.011249985E1,1.108882485E1
1.319652104E1,2.237622719E0,-3.026204242E0,9.580390951E0,1.029314132E1
1.320650704E1,2.183201805E0,-2.927293911E0,9.028134881E0,9.738718560E0
1.321649404E1,1.138014639E0,-1.667856284E0,7.178042520E0,7.456615607E0
1.322648004E1,8.391074596E-1,-8.743002427E-1,3.404933662E0,3.614149345E0
1.323646604E1,6.413410315E-1,-1.895047510E-1,-6.932517350E-2,6.723364849E-1
1.324645204E1,3.629232270E-1,-4.525452554E-2,-1.673921601E0,1.713410274E0
1.325643904E1,-1.530923849E-1,-5.172587299E-1,-1.309035464E0,1.415827573E0
1.326642504E1,-9.508707011E-1,-1.104130901E0,1.289808065E-1,1.462838400E0
1.327641104E1,-1.801811610E0,-1.541803179E0,1.233480082E0,2.673042318E0
1.328639704E1,-1.944559978E0,-2.342611522E0,1.973446977E0,3.628172435E0
1.329638404E1,-2.593301538E0,-2.542127291E0,2.399247653E0,4.352472094E0
1.330637004E1,-2.620216564E0,-2.221877629E0,2.230525076E0,4.096036761E0
1.331635604E1,-2.194514998E0,-2.193190604E0,1.143933483E0,3.306745366E0
1.332634204E1,-1.643755523E0,-1.711663039E0,-4.053634876E-1,2.407497069E0
1.333632804E1,-1.266575615E0,-8.910794127E-1,-2.058035138E0,2.575605742E0
1.334631504E1,-6.256433040E-1,-2.527850729E-1,-3.230841587E0,3.300555589E0
1.335630104E1,-1.017827752E-1,4.204615831E-2,-3.756860030E0,3.758473746E0
1.336628704E1,-1.904017138E-1,-2.188279527E-1,-3.476970774E0,3.489049190E0
1.337627304E1,-6.529878080E-1,-5.273902005E-1,-2.712792313E0,2.839678791E0
1.338626004E1,-9.148372346E-1,-8.109462458E-1,-2.024348159E0,2.364856538E0
1.339624604E1,-8.067380047E-1,-1.100828978E0,-1.722020212E0,2.197272004E0
1.340623204E1,-6.427367619E-1,-1.359834904E0,-1.707321482E0,2.275347919E0
1.341621804E1,-4.327015597E-1,-1.376696520E0,-1.848532909E0,2.345122143E0
1.342620504E1,8.816548705E-2,-8.427703017E-1,-2.216912758E0,2.373338811E0
1.343619104E1,8.685389811E-1,-4.207364023E-2,-2.897489483E0,3.025157097E0
1.344617704E1,1.502920364E0,8.923166835E-1,-3.827537080E0,4.207735589E0
1.345616304E1,1.895717601E0,1.391948397E0,-4.803054380E0,5.347952593E0
1.346614904E1,2.098193230E0,1.367915171E0,-5.399431785E0,5.952097978E0
1.347613604E1,2.260131575E0,1.253616139E0,-5.081624504E0,5.701110047E0
1.348612204E1,2.360075109E0,1.189116672E0,-4.395347328E0,5.128648079E0
1.349610804E1,2.425348454E0,9.298786122E-1,-4.082009659E0,4.838366689E0
1.350609404E1,2.511085593E0,7.590270638E-1,-4.179375156E0,4.934455353E0
1.351608104E1,2.631597292E0,1.185852757E0,-4.501468445E0,5.347407711E0
1.352606704E1,3.224470460E0,1.803603489E0,-5.013977482E0,6.228175133E0
1.353605304E1,3.888762106E0,2.314835494E0,-5.699422599E0,7.277661166E0
1.354603904E1,4.500719124E0,2.470837453E0,-6.223721377E0,8.068222737E0
1.355602504E1,5.183609886E0,2.844126624E0,-6.348879858E0,8.675663845E0
1.356601204E1,5.971985879E0,3.275635936E0,-6.768301806E0,9.602307820E0
1.357599804E1,6.733220851E0,2.970594882E0,-7.413568951E0,1.044613333E1
1.358598404E1,7.599359550E0,1.944523725E0,-7.557588211E0,1.089259279E1
1.359597004E1,8.446809379E0,6.760252529E-1,-7.449748013E0,1.128292268E1
1.360595704E1,8.391465483E0,-1.212054130E0,-6.779023261E0,1.085545598E1
1.361594304E1,8.323482830E0,-2.474227669E0,-6.108330084E0,1.061667864E1
1.362592904E1,7.771688690E0,-3.433499064E0,-5.283487930E0,1.000516395E1
1.363591504E1,7.295813629E0,-4.700632796E0,-3.296069031E0,9.283798590E0
1.364590204E1,5.337053688E0,-5.683826321E0,-8.492737211E-1,7.842913334E0
1.365588804E1,2.521838037E0,-5.919803572E0,1.059736940E0,6.521256306E0
1.366587404E1,6.969831356E-1,-5.484752017E0,1.324979505E0,5.685407713E0
1.367586004E1,3.271175095E-1,-5.198702134E0,-1.581899875E-1,5.211385019E0
1.368584704E1,6.028827247E-1,-4.902892079E0,-1.567717454E0,5.182620605E0
1.369583304E1,5.611645952E-1,-5.006037548E0,-1.691403314E0,5.313771053E0
1.370581904E1,-2.229125252E-1,-5.624088827E0,-9.394718465E-1,5.706371218E0
1.371580504E1,-1.866930296E0,-6.365908704E0,3.064180738E-1,6.641092862E0
1.372579104E1,-3.127948717E0,-6.558040609E0,1.468677607E0,7.412757498E0
1.373577804E1,-3.852765477E0,-6.291878861E0,2.199429583E0,7.698638315E0
1.374576404E1,-3.872715592E0,-6.153813820E0,2.287762300E0,7.622414771E0
1.375575004E1,-3.503549293E0,-5.922399736E0,2.105602237E0,7.196057050E0
1.376573604E1,-3.028550729E0,-5.443622117E0,2.221671807E0,6.613695403E0
1.377572304E1,-2.724889618E0,-5.374295774E0,2.555293466E0,6.545044171E0
1.378570904E1,-2.579630163E0,-5.585141108E0,2.795451477E0,6.757428648E0
1.379569504E1,-2.164152746E0,-5.539128199E0,2.864929555E0,6.601008989E0
1.380568104E1,-8.962226236E-1,-5.422770361E0,2.464176305E0,6.023439071E0
1.381566804E1,1.040609089E0,-5.113019375E0,2.262318726E0,5.687171566E0
1.382565404E1,2.266958492E0,-4.289203992E0,2.490855396E0,5.453506422E0
1.383564004E1,2.226760638E0,-3.933498568E0,3.146784061E0,5.507551530E0
1.384562604E1,1.259515979E0,-4.089363118E0,3.616201165E0,5.602337198E0
1.385561204E1,5.966259116E-1,-4.479369478E0,3.649603384E0,5.808641688E0
1.386559904E1,2.404304910E-1,-5.157550600E0,3.288765274E0,6.121610249E0
1.387558504E1,-6.602851331E-2,-5.770789036E0,2.686250632E0,6.365713496E0
1.388557104E1,-4.181712288E-1,-6.156190714E0,2.151519252E0,6.534721599E0
1.389555704E1,-7.656753480E-2,-6.616709232E0,1.617336341E0,6.811936618E0
1.390554404E1,5.869072545E-1,-6.943201382E0,1.209113857E0,7.072090347E0
1.391553004E1,1.843462788E0,-7.066691068E0,1.424564751E0,7.440824043E0
1.392551604E1,3.348873189E0,-6.830912037E0,1.723810630E0,7.800502163E0
1.393550246E1,4.394631921E0,-5.592049009E0,1.616025980E0,7.293513680E0
1.394548946E1,4.458185601E0,-4.244943493E0,9.058927488E-1,6.222186576E0
1.395547546E1,3.708919294E0,-3.254195366E0,-6.731408215E-1,4.979858268E0
1.396546146E1,2.740422454E0,-2.634049029E0,-2.479107170E0,4.538072484E0
1.397544746E1,2.170277266E0,-3.056278811E0,-3.385671179E0,5.051110067E0
1.398543346E1,2.728274571E0,-3.701648866E0,-3.201824194E0,5.603335135E0
1.399542046E1,3.295343100E0,-4.098060266E0,-2.147049640E0,5.680070972E0
1.400540646E1,3.733666757E0,-5.325518886E0,-1.066339031E0,6.590788859E0
1.401539246E1,3.380761272E0,-7.021664584E0,2.442839523E-1,7.796986274E0
1.402537846E1,3.100856228E0,-8.481153000E0,1.580323320E0,9.167479880E0
1.403536546E1,4.268466257E0,-9.356346112E0,2.194692754E0,1.051559285E1
1.404535146E1,6.581298494E0,-7.328140545E0,1.465140334E0,9.958000298E0
1.405533746E1,7.266822549E0,-3.634325194E0,-7.658168507E-1,8.160974515E0
1.406532346E1,6.399380506E0,-2.629002298E0,-3.394956558E0,7.706455344E0
1.407531046E1,5.722703873E0,-1.654241627E0,-5.849330006E0,8.348683519E0
1.408529646E1,5.310096270E0,-9.088590413E-1,-8.308030393E0,9.901844079E0
1.409528246E1,4.996365083E0,-1.708801997E0,-9.058811713E0,1.048550132E1
1.410526846E1,5.030740864E0,-2.889874654E0,-7.842490286E0,9.755223372E0
1.411525446E1,5.075044048E0,-3.673416170E0,-5.447484788E0,8.302117137E0
1.412524146E1,5.507421672E0,-4.246390094E0,-3.181030326E0,7.647383620E0
1.413522746E1,5.518927238E0,-4.595272987E0,-1.890027090E0,7.426122412E0
1.414521346E1,5.812393144E0,-4.297539198E0,-1.749130243E0,7.437218151E0
1.415519946E1,5.999765416E0,-3.262711251E0,-2.825794433E0,7.391047553E0
1.416518646E1,6.134714475E0,-1.942356162E0,-4.720970582E0,7.980916764E0
1.417517246E1,6.197563273E0,-3.883656317E-1,-6.353041906E0,8.883791975E0
1.418515846E1,5.854619982E0,2.241366398E-1,-7.321182944E0,9.376914847E0
1.419514446E1,5.358393686E0,-4.553226829E-1,-7.378546468E0,9.130314870E0
1.420513146E1,5.015097224E0,-1.786523480E0,-6.721352173E0,8.574347867E0
1.421511746E1,4.349892243E0,-2.899106823E0,-6.187390287E0,8.100011201E0
1.422510346E1,4.063948780E0,-3.826823720E0,-6.694290090E0,8.716293895E0
1.423508946E1,4.762188774E0,-4.129543137E0,-7.761071316E0,9.998289675E0
1.424507546E1,5.596423895E0,-3.767286493E0,-8.373806891E0,1.075328088E1
1.425506246E1,6.119533349E0,-3.411108322E0,-9.231722066E0,1.158917774E1
1.426504846E1,7.274568940E0,-3.110319655E0,-9.863197968E0,1.264421274E1
1.427503446E1,8.569227855E0,-2.082671211E0,-9.732157187E0,1.313331904E1
1.428502046E1,9.341923370E0,-1.149301519E0,-1.022748535E1,1.389942023E1
1.429500746E1,1.071169211E1,-7.147028303E-1,-1.153583844E1,1.575838560E1
1.430499346E1,1.341776246E1,-1.075169642E0,-1.131150885E1,1.758245067E1
1.431497946E1,1.635376639E1,-3.566458316E0,-8.465163204E0,1.875697971E1
1.432496546E1,1.754168906E1,-6.732297576E0,-3.410016062E0,1.909614870E1
1.433495246E1,1.595376304E1,-7.520551947E0,1.385205973E0,1.769180749E1
1.434493846E1,1.449034413E1,-6.711679709E0,3.534590406E0,1.635573437E1
1.435492446E1,1.438752552E1,-5.630928900E0,4.877999312E0,1.620194828E1
1.436491046E1,1.369853406E1,-5.019293185E0,7.875678497E0,1.657918730E1
1.437489646E1,1.056274949E1,-3.923362420E0,1.012171624E1,1.514640515E1
1.438488346E1,6.671672475E0,-3.359518338E0,1.036382371E1,1.277522677E1
1.439486946E1,4.267979769E0,-3.432885107E0,8.571994758E0,1.017248473E1
1.440485546E1,2.754489393E0,-4.904523452E0,7.910893938E0,9.706894715E0
1.441484146E1,7.288878831E-1,-4.259621174E0,8.313729089E0,9.369831453E0
1.442482846E1,-8.964965656E-2,-4.274842061E0,7.265590541E0,8.430368771E0
1.443481446E1,-3.889709647E-1,-3.749696606E0,5.616706132E0,6.764533305E0
1.444480046E1,2.782055506E-1,-1.727882631E0,4.236973153E0,4.584203117E0
1.445478646E1,2.323715660E0,-4.619534254E-2,3.322535868E0,4.054754379E0
1.446477346E1,2.734555650E0,1.300058818E0,2.812498450E0,4.132565192E0
1.447475946E1,2.064111710E0,1.380431136E0,2.279056966E0,3.370496689E0
1.448474546E1,5.083826566E-1,1.823366493E-1,1.655135082E0,1.741026053E0
1.449473146E1,-9.283352396E-1,-1.109588692E0,1.412711275E0,2.022064917E0
1.450471746E1,-1.840616949E0,-2.169893543E0,1.391613352E0,3.167474776E0
1.451470446E1,-2.390712472E0,-2.787575278E0,1.231428879E0,3.873305970E0
1.452469046E1,-2.521927207E0,-2.918342409E0,9.784210271E-1,3.979214365E0
1.453467646E1,-2.271126387E0,-2.737901427E0,4.848745108E-1,3.590156345E0
1.454466246E1,-1.561995369E0,-2.038781426E0,-4.618803352E-1,2.609557947E0
1.455464946E1,-5.988367438E-1,-1.088898904E0,-1.352927004E0,1.837040486E0
1.456463546E1,8.019046962E-2,-3.829838544E-1,-1.758126184E0,1.801142644E0
1.457462146E1,3.655454108E-1,-1.845410496E-1,-1.881391338E0,1.925438187E0
1.458460746E1,4.269391286E-1,-1.777588642E-1,-1.981424333E0,2.034678752E0
1.459459446E1,3.684093770E-1,-6.630900425E-1,-2.028267547E0,2.165475264E0
1.460458046E1,2.441317785E-1,-9.744045746E-1,-2.174304097E0,2.395133171E0
1.461456646E1,2.863489679E-1,-8.287252897E-1,-2.610280682E0,2.753606104E0
1.462455246E1,5.695068178E-1,-4.860591567E-1,-3.420334058E0,3.501324976E0
1.463453846E1,9.036848402E-1,-1.888352448E-1,-4.547749742E0,4.640509967E0
1.464452546E1,1.161284218E0,7.328724682E-2,-5.416146635E0,5.539728913E0
1.465451146E1,1.146813821E0,3.262272710E-1,-5.801156550E0,5.922417031E0
1.466449746E1,1.107343654E0,4.401228458E-1,-5.804068463E0,5.925126903E0
1.467448346E1,1.161860461E0,2.940775251E-1,-5.767177210E0,5.890393391E0
1.468447046E1,1.073973594E0,8.088102579E-2,-5.783932992E0,5.883352945E0
1.469445646E1,1.070708509E0,1.734260774E-1,-5.637120516E0,5.740524456E0
1.470444246E1,1.167300126E0,3.047527868E-1,-5.827409964E0,5.950980653E0
1.471442846E1,1.481094755E0,4.456853020E-1,-5.964157627E0,6.161448958E0
1.472441546E1,1.919420459E0,4.773017818E-1,-5.894785675E0,6.217756030E0
1.473440146E1,2.035283622E0,7.360247022E-1,-5.955268689E0,6.336350444E0
1.474438746E1,2.314916185E0,8.833032006E-1,-6.194174811E0,6.671346422E0
1.475437346E1,2.957552667E0,1.075492408E0,-6.525959276E0,7.245132585E0
1.476435946E1,3.593811299E0,1.070873108E0,-6.911446323E0,7.863227019E0
1.477434646E1,4.249655764E0,4.103973556E-1,-7.067499154E0,8.256969443E0
1.478433246E1,4.324821137E0,-7.266527849E-1,-6.888470274E0,8.165973601E0
1.479431846E1,4.134237282E0,-2.005420722E0,-6.218705635E0,7.732136183E0
1.480430446E1,3.881826138E0,-3.005863532E0,-4.894802456E0,6.932739778E0
1.481429146E1,3.598551637E0,-3.147352703E0,-3.180128685E0,5.741830838E0
1.482427746E1,3.974738395E0,-2.437958559E0,-2.151112286E0,5.135121353E0
1.483426346E1,4.746109224E0,-2.023503236E0,-1.398056399E0,5.345528955E0
1.484424946E1,4.830684813E0,-2.040356081E0,-8.881224757E-1,5.318583480E0
1.485423646E1,3.831193929E0,-2.598569879E0,-6.221560246E-1,4.670941067E0
1.486422246E1,2.362899752E0,-3.362964102E0,1.155987225E-1,4.111713251E0
1.487420846E1,1.501911135E0,-3.759756741E0,1.384346286E0,4.278775812E0
1.488419446E1,7.521608247E-1,-3.863019154E0,2.088058836E0,4.455182667E0
1.489418046E1,8.060095878E-1,-3.266178650E0,1.835918711E0,3.832515093E0
1.490416746E1,1.529452251E0,-2.617308451E0,1.363126594E0,3.323799306E0
1.491415346E1,1.360990022E0,-2.420418667E0,1.450160060E0,3.132680092E0
1.492413946E1,3.060783505E-1,-2.853597944E0,2.102963389E0,3.557971360E0
1.493412546E1,-9.401740971E-1,-3.474147153E0,2.930515727E0,4.641287343E0
1.494411271E1,-1.793050726E0,-3.780993243E0,3.394561871E0,5.388319878E0
1.495409871E1,-2.026164304E0,-3.743833603E0,3.325637524E0,5.401990075E0
1.496408471E1,-1.754696792E0,-3.268465496E0,2.803375039E0,4.649810656E0
1.497407071E1,-1.452823467E0,-3.026873163E0,2.239915704E0,4.036072290E0
1.498405771E1,-1.255158342E0,-2.872531228E0,2.251204923E0,3.859375821E0
1.499404371E1,-1.154832108E0,-2.820681043E0,2.481713859E0,3.930493916E0
1.500402971E1,-8.478374988E-1,-2.769521415E0,2.493733395E0,3.822013022E0
1.501401571E1,-6.705353022E-1,-2.566956323E0,2.345012681E0,3.540899156E0
1.502400171E1,-4.903165144E-1,-2.425551937E0,2.203817626E0,3.313687465E0
1.503398871E1,-3.778508762E-1,-2.392336244E0,2.207727951E0,3.277210200E0
1.504397471E1,-2.693952584E-1,-2.520207834E0,2.445200921E0,3.521793417E0
1.505396071E1,-1.425980946E-1,-2.686587431E0,2.986894580E0,4.019903665E0
1.506394671E1,2.416741937E-2,-3.112113873E0,3.497582501E0,4.681764643E0
1.507393371E1,4.294475842E-1,-3.408692252E0,4.013283533E0,5.282996575E0
1.508391971E1,1.111486114E0,-3.316505635E0,4.392758181E0,5.615241352E0
1.509390571E1,1.792675335E0,-3.354103231E0,4.586196354E0,5.957926681E0
1.510389171E1,2.133239686E0,-3.512194986E0,4.922592518E0,6.412342963E0
1.511387871E1,2.585010771E0,-3.680260921E0,5.394389146E0,7.023249631E0
1.512386471E1,3.156945352E0,-4.051708803E0,6.127256936E0,7.995369019E0
1.513385071E1,3.433354931E0,-4.962987422E0,6.935576613E0,9.193551718E0
1.514383671E1,3.617880777E0,-6.293240093E0,7.138618838E0,1.018105157E1
1.515382271E1,3.879283184E0,-7.688554147E0,6.550612891E0,1.082003845E1
1.516380971E1,4.774176151E0,-8.399568554E0,5.037637655E0,1.089602235E1
1.517379571E1,6.493189141E0,-7.920695626E0,3.048365189E0,1.068604018E1
1.518378171E1,6.894604003E0,-6.192171555E0,8.009258723E-1,9.301614655E0
1.519376771E1,5.877551007E0,-4.731127780E0,-1.731890312E0,7.741357760E0
1.520375471E1,4.291650175E0,-3.988926664E0,-3.743051831E0,6.952714158E0
1.521374071E1,3.321175806E0,-4.078820003E0,-4.771214536E0,7.101511776E0
1.522372671E1,3.244000453E0,-4.720088237E0,-4.362790031E0,7.199771438E0
1.523371271E1,3.824224925E0,-5.165906855E0,-3.130463605E0,7.149202214E0
1.524369971E1,4.661016156E0,-4.685948684E0,-2.475310865E0,7.057644830E0
1.525368571E1,4.681905042E0,-4.317677593E0,-2.822762944E0,6.966388251E0
1.526367171E1,4.298094976E0,-4.305686123E0,-3.813609012E0,7.180262329E0
1.527365771E1,4.160735402E0,-4.133013752E0,-4.454674055E0,7.364621015E0
1.528364371E1,3.890300801E0,-4.029060198E0,-5.002639146E0,7.509604838E0
1.529363071E1,3.664925428E0,-4.180938116E0,-5.553595380E0,7.858393192E0
1.530361671E1,3.642705131E0,-4.404419283E0,-5.720705295E0,8.086697655E0
1.531360271E1,3.671902033E0,-4.246766070E0,-5.890633568E0,8.137410548E0
1.532358871E1,3.423164696E0,-4.299607358E0,-5.796389315E0,7.987666058E0
1.533357571E1,3.447940518E0,-4.823390996E0,-5.315228956E0,7.962729015E0
1.534356171E1,3.236018127E0,-4.920502138E0,-4.977455188E0,7.710915299E0
1.535354771E1,2.422659904E0,-5.158727059E0,-4.755246960E0,7.422541312E0
1.536353371E1,1.969764985E0,-5.643372944E0,-4.226752220E0,7.320728558E0
1.537352071E1,1.467531846E0,-6.154672776E0,-3.632160555E0,7.295631364E0
1.538350671E1,1.522690970E0,-6.758755057E0,-3.314884787E0,7.680352783E0
1.539349271E1,2.493669076E0,-6.491826739E0,-3.496322719E0,7.783731266E0
1.540347871E1,3.580016840E0,-5.621838818E0,-4.370855681E0,7.970318165E0
1.541346471E1,4.138509550E0,-5.142049631E0,-5.922737120E0,8.868300328E0
1.542345171E1,4.498281713E0,-4.813088787E0,-6.822513682E0,9.484042122E0
1.543343771E1,4.833796701E0,-5.242098999E0,-6.828398319E0,9.872801835E0
1.544342371E1,5.199907245E0,-6.110900520E0,-6.422112726E0,1.027743511E1
1.545340971E1,5.278634157E0,-7.016273451E0,-6.110029870E0,1.069694053E1
1.546339671E1,5.024658006E0,-7.973586030E0,-6.109043444E0,1.123145912E1
1.547338271E1,5.792779244E0,-8.352095595E0,-6.483061763E0,1.205586505E1
1.548336871E1,7.340539566E0,-7.493148386E0,-7.593687751E0,1.294970608E1
1.549335471E1,8.932759777E0,-5.530674294E0,-8.732140054E0,1.366136250E1
1.550334171E1,1.051040171E1,-4.000963742E0,-9.757444641E0,1.488905574E1
1.551332771E1,1.200898110E1,-2.576113355E0,-1.000540693E1,1.584172197E1
1.552331371E1,1.286473398E1,-1.881017408E0,-9.674570884E0,1.620607690E1
1.553329971E1,1.294527002E1,-1.950633481E0,-8.249467605E0,1.547380698E1
1.554328571E1,1.219754211E1,-2.220162055E0,-7.205155474E0,1.433957526E1
1.555327271E1,1.137917516E1,-3.559889262E0,-7.650097010E0,1.416624238E1
1.556325871E1,1.148509982E1,-5.181927057E0,-6.718412193E0,1.427924887E1
1.557324471E1,1.246915931E1,-5.641045752E0,-4.059240017E0,1.427510983E1
1.558323071E1,1.362191800E1,-5.749772388E0,-1.853200741E0,1.490137193E1
1.559321771E1,1.399429091E1,-5.638340245E0,-2.761283273E-1,1.508997368E1
1.560320371E1,1.385162470E1,-4.608587097E0,6.302169961E-1,1.461176770E1
1.561318971E1,1.330553568E1,-3.649501643E0,1.444353483E0,1.387235737E1
1.562317571E1,1.249185353E1,-3.438945746E0,3.483827219E0,1.341677325E1
1.563316271E1,1.041852558E1,-3.048880913E0,4.591347166E0,1.178651004E1
1.564314871E1,8.122720435E0,-3.137513008E0,5.628795251E0,1.036850573E1
1.565313471E1,5.767111137E0,-4.026439476E0,7.011546562E0,9.931443546E0
1.566312071E1,3.451647068E0,-4.539455466E0,7.796686122E0,9.659649988E0
1.567310671E1,2.236429740E0,-3.796316457E0,8.344155661E0,9.436025133E0
1.568309371E1,2.050929894E0,-3.588955479E0,1.002558918E1,1.084432355E1
1.569307971E1,1.115767591E0,-2.111983888E0,1.004005285E1,1.032027493E1
1.570306571E1,5.133446038E-1,-1.889425412E0,7.476739930E0,7.728847977E0
1.571305171E1,-5.541822888E-1,-1.564320806E0,3.548055375E0,3.917003260E0
1.572303871E1,-7.787494299E-1,-1.855442564E0,9.104950923E-1,2.208646440E0
1.573302471E1,-1.100252735E0,-1.727867428E0,1.121635126E0,2.335411588E0
1.574301071E1,-7.846972176E-1,-8.384632427E-1,2.156283563E0,2.443016402E0
1.575299671E1,-6.755121598E-1,-7.715699261E-1,2.213423139E0,2.439442318E0
1.576298371E1,-1.314402331E0,-1.279853765E0,1.254472756E0,2.222471831E0
1.577296971E1,-2.067463188E0,-1.348939202E0,8.597681576E-1,2.614047110E0
1.578295571E1,-1.871944576E0,-1.663086126E0,1.320961445E0,2.831072429E0
1.579294171E1,-1.519215677E0,-1.945734099E0,2.119828513E0,3.253854695E0
1.580292771E1,-1.493061374E0,-1.886352115E0,2.328700411E0,3.348193868E0
1.581291471E1,-1.497257336E0,-1.901582358E0,1.597538838E0,2.899987126E0
1.582290071E1,-1.474693808E0,-1.884774536E0,4.814837104E-1,2.441090626E0
1.583288671E1,-1.255608870E0,-1.560723599E0,-6.150873256E-1,2.095410271E0
1.584287271E1,-9.624221680E-1,-1.121222897E0,-1.539017565E0,2.133535160E0
1.585285971E1,-5.835924679E-1,-8.943713951E-1,-1.826031069E0,2.115388812E0
1.586284571E1,-5.165778217E-1,-8.563633239E-1,-1.986081056E0,2.223674605E0
1.587283171E1,-7.146236005E-1,-1.080834424E0,-2.343886800E0,2.678188805E0
1.588281771E1,-7.578617138E-1,-1.212219021E0,-2.776069711E0,3.122561829E0
1.589280471E1,-5.741424903E-1,-1.105985638E0,-3.025271026E0,3.271866227E0
1.590279071E1,-2.726802242E-1,-8.485438424E-1,-3.390241363E0,3.505441150E0
1.591277671E1,3.854089871E-1,-4.444836992E-1,-3.973751385E0,4.017064341E0
1.592276271E1,9.275572675E-1,1.249614304E-1,-4.670610268E0,4.763462828E0
1.593274871E1,1.393820676E0,5.335327005E-1,-5.413183851E0,5.615153838E0
1.594273542E1,1.697925883E0,6.955982226E-1,-5.772065483E0,6.056694571E0
1.595272142E1,1.723390800E0,7.422379535E-1,-5.877760338E0,6.170012935E0
1.596270742E1,1.788322375E0,6.574030405E-1,-6.003384258E0,6.298483803E0
1.597269342E1,1.961516611E0,5.814611578E-1,-6.084957009E0,6.419684283E0
1.598268042E1,2.211045662E0,8.047423500E-1,-6.198281896E0,6.629859095E0
1.599266642E1,2.596965695E0,1.251973656E0,-6.409675114E0,7.028200617E0
1.600265242E1,3.287407843E0,1.757674779E0,-6.686951249E0,7.655833591E0
1.601263842E1,4.392794726E0,2.229786572E0,-7.152204258E0,8.684619705E0
1.602262542E1,5.707035674E0,2.246818927E0,-7.477761438E0,9.671368445E0
1.603261142E1,6.528798099E0,1.278621756E0,-6.945927939E0,9.618003595E0
1.604259742E1,6.642941011E0,3.484238863E-1,-5.688307042E0,8.752536860E0
1.605258342E1,7.097066769E0,-8.673695379E-1,-5.039475435E0,8.747399574E0
1.606256942E1,6.876283507E0,-2.677641776E0,-4.147336799E0,8.464835668E0
1.607255642E1,5.649679751E0,-3.294233590E0,-2.665282516E0,7.062194215E0
1.608254242E1,5.599369138E0,-4.290031373E0,-1.828637027E0,7.287058206E0
1.609252842E1,5.025585374E0,-4.192078232E0,-1.276807365E0,6.667853125E0
1.610251442E1,5.247315885E0,-3.294693766E0,-9.137853205E-1,6.262933388E0
1.611250142E1,5.550779361E0,-2.705607255E0,-1.633555933E0,6.387485195E0
1.612248742E1,5.611446562E0,-4.175785550E0,-2.391970793E0,7.392363746E0
1.613247342E1,3.940321684E0,-5.929728051E0,-1.669815686E0,7.312735067E0
1.614245942E1,6.549290836E-1,-6.185337330E0,-6.763649762E-2,6.220281720E0
1.615244542E1,-1.771864510E0,-6.257539333E0,5.528773364E-1,6.527018898E0
1.616243242E1,-3.939541665E0,-6.649268283E0,4.859547839E-1,7.743959535E0
1.617241842E1,-5.841304117E0,-6.836095009E0,1.135730716E0,9.063272755E0
1.618240442E1,-6.971296084E0,-6.840538893E0,1.061761392E0,9.824422563E0
1.619239042E1,-7.126474171E0,-7.178923110E0,-1.277502599E-1,1.011631807E1
1.620237742E1,-5.579247115E0,-6.649004574E0,-1.316091299E-1,8.680701651E0
1.621236342E1,-3.633182648E0,-5.935024459E0,1.110184231E0,7.046775186E0
1.622234942E1,-2.036822609E0,-5.871049488E0,2.688822237E0,6.771088056E0
1.623233542E1,-1.408422343E0,-5.972773499E0,4.053274980E0,7.354367058E0
1.624232242E1,-1.562387132E0,-5.827246242E0,5.054147269E0,7.870340331E0
1.625230842E1,-3.060152006E-1,-6.162872327E0,5.811925367E0,8.476621797E0
1.626229442E1,2.662324410E0,-5.776623972E0,6.762873251E0,9.284062171E0
1.627228042E1,5.113022883E0,-5.283539386E0,7.171007735E0,1.027045001E1
1.628226642E1,4.595790465E0,-4.754114939E0,6.273959484E0,9.115122954E0
1.629225342E1,1.991438860E0,-4.561815219E0,4.388026907E0,6.635568322E0
1.630223942E1,-4.863187730E-2,-4.647115570E0,1.975760136E0,5.049918445E0
1.631222542E1,-5.705373895E-1,-5.277863494E0,-1.586449009E-1,5.310981470E0
1.632221142E1,-2.347160071E-1,-5.595559092E0,-4.514086298E-1,5.618642444E0
1.633219842E1,7.221276248E-1,-5.900689609E0,1.665294327E-2,5.944735780E0
1.634218442E1,1.308439048E0,-6.422490456E0,6.355812317E-1,6.585162101E0
1.635217042E1,1.483919837E0,-6.669488540E0,8.461353743E-1,6.884768735E0
1.636215642E1,1.272940309E0,-6.841448135E0,1.181021787E0,7.058371064E0
1.637214342E1,2.090247010E0,-7.040175700E0,1.525999909E0,7.500792103E0
1.638212942E1,3.409965191E0,-5.575775623E0,1.249788551E0,6.654254866E0
1.639211542E1,3.685716957E0,-4.199795972E0,6.395906675E-1,5.624221894E0
1.640210142E1,3.741941737E0,-3.729266435E0,-1.656258917E-1,5.285545198E0
1.641208842E1,3.523110276E0,-3.670025954E0,-1.675797973E0,5.356276259E0
1.642207442E1,3.548260612E0,-4.597732911E0,-2.892056251E0,6.487934235E0
1.643206042E1,3.397581373E0,-5.559880552E0,-2.827980123E0,7.103048818E0
1.644204642E1,3.601391922E0,-6.856636278E0,-1.855564625E0,7.964082176E0
1.645203242E1,3.807790156E0,-8.648482186E0,-2.279538484E-1,9.452379221E0
1.646201942E1,3.977952317E0,-1.040737026E1,8.183868277E-1,1.117171506E1
1.647200542E1,4.996625869E0,-1.106726012E1,1.879495378E-1,1.214437490E1
1.648199142E1,6.543465840E0,-9.371003328E0,-2.228653236E0,1.164472171E1
1.649197742E1,7.092884840E0,-5.943339785E0,-5.277089907E0,1.065269830E1
1.650196442E1,8.048150309E0,-3.842290190E0,-7.463431667E0,1.162921878E1
1.651195042E1,9.357492751E0,-1.341175854E0,-9.492967476E0,1.339693453E1
1.652193642E1,9.564143293E0,1.710544467E-1,-1.040469925E1,1.413364295E1
1.653192242E1,9.329648895E0,-6.018831432E-1,-9.080329467E0,1.303291967E1
1.654190842E1,8.910625727E0,-1.384592015E0,-7.512538923E0,1.173689000E1
1.655189542E1,7.712013177E0,-2.269768079E0,-6.718075393E0,1.047661832E1
