"Time (s)","Linear Acceleration x (m/s^2)","Linear Acceleration y (m/s^2)","Linear Acceleration z (m/s^2)","Absolute acceleration (m/s^2)"
-1.006000035E-3,8.623941422E-2,-2.377641606E-1,3.481970143E-1,4.303605389E-1
8.979999984E-3,4.241745651E-2,-3.439769326E-1,4.003085697E-1,5.294962906E-1
1.896500000E-2,3.675565606E-1,-4.163679109E-1,8.526199365E-1,1.017556297E0
2.895100001E-2,1.183012764E0,-2.635466175E-1,6.259017509E-1,1.364085416E0
3.893699998E-2,2.047626509E0,-1.838219700E-1,4.025749505E-2,2.056255214E0
4.892299999E-2,2.551894480E0,-1.700743072E-1,-4.510612321E-1,2.597026558E0
5.890900001E-2,1.945592011E0,-3.502352441E-1,-7.518987232E-1,2.115028295E0
6.889499997E-2,2.630672262E0,-5.578453867E-1,-1.464097191E0,3.061896245E0
7.888099999E-2,2.266884232E0,-7.513471846E-1,-1.286992046E0,2.712864766E0
8.886700001E-2,1.139376748E0,-9.222935309E-1,-7.062980425E-1,1.627163684E0
9.885299997E-2,5.406341439E-1,-9.992015930E-1,-1.494489849E-1,1.145872637E0
1.088390000E-1,4.599817443E-1,-1.065176166E0,1.246696544E-1,1.166930157E0
1.188250000E-1,9.072674292E-1,-1.033721215E0,1.737020659E-1,1.386321084E0
1.288110000E-1,1.498131495E0,-8.846804392E-1,7.767324328E-2,1.741577040E0
1.387970000E-1,1.839967323E0,-8.434973299E-1,-2.013073558E-1,2.034082630E0
1.487830000E-1,1.889928272E0,-8.596484359E-1,-4.157750398E-1,2.117473304E0
1.587690000E-1,1.446474268E0,-7.050012763E-1,-4.255954385E-1,1.664465705E0
1.687550000E-1,3.396513087E-1,-4.102089290E-1,-4.363192320E-3,5.325912263E-1
1.787410000E-1,-1.218019459E0,-2.041603585E-1,1.143872087E0,1.683358609E0
1.887270000E-1,-2.483721208E0,-6.199101090E-2,2.931858832E0,3.842981933E0
1.987130000E-1,-3.225717087E0,-7.520191759E-2,4.433358323E0,5.483208192E0
2.086990000E-1,-3.202165087E0,1.410177384E-1,5.705570946E0,6.544256036E0
2.186850000E-1,-2.589901966E0,3.856181712E-1,6.421481811E0,6.934819552E0
2.286710000E-1,-1.703627211E0,4.600975192E-1,6.617907327E0,6.849141025E0
2.386570000E-1,-6.816327327E-1,3.880802876E-1,6.464936564E0,6.512344760E0
2.486420000E-1,-3.563059330E-2,2.837250298E-1,5.775308933E0,5.782383826E0
2.586280000E-1,3.036383075E-1,2.708295804E-1,4.599989351E0,4.617948345E0
2.686140000E-1,3.106479496E-1,3.785648212E-1,3.342671340E0,3.378352433E0
2.786000000E-1,7.404446125E-2,2.808943927E-1,2.319437252E0,2.337557146E0
2.885860000E-1,-3.395735407E-1,2.198224179E-1,1.869764149E0,1.913021186E0
2.985727500E-1,-9.449632591E-1,1.376762009E-1,2.366086339E0,2.551524027E0
3.085587500E-1,-1.576276023E0,-1.395426321E-1,3.077948007E0,3.460907711E0
3.185447500E-1,-1.955160980E0,-3.396317205E-1,3.946105165E0,4.416984280E0
3.285307500E-1,-2.303691285E0,-6.592870134E-1,4.664756620E0,5.244197482E0
3.385167500E-1,-2.585065734E0,-1.035954121E0,4.733443277E0,5.491925988E0
3.485027500E-1,-2.850498335E0,-1.392627844E0,4.517717273E0,5.520373395E0
3.584887500E-1,-3.148526239E0,-1.768669884E0,3.777337564E0,5.225867364E0
3.684747500E-1,-3.353561195E0,-2.061294960E0,2.490503393E0,4.658102269E0
3.784607500E-1,-3.322570952E0,-2.294527237E0,1.041438224E0,4.170003183E0
3.884467500E-1,-3.177607366E0,-2.499731469E0,-2.162709653E-1,4.048779954E0
3.984327500E-1,-3.299187936E0,-2.525298712E0,-1.060649251E0,4.287977549E0
4.084187500E-1,-3.524306324E0,-2.646983655E0,-1.411968094E0,4.628273051E0
4.184047500E-1,-3.673175849E0,-2.729767950E0,-1.569045357E0,4.837949691E0
4.283907500E-1,-3.691563588E0,-2.766907417E0,-1.585393002E0,4.878205546E0
4.383767500E-1,-3.766315563E0,-2.963725280E0,-1.315201938E0,4.969764239E0
4.483627500E-1,-3.942444808E0,-3.151411255E0,-1.169724382E0,5.180976654E0
4.583477500E-1,-3.896279871E0,-3.276199023E0,-1.507111648E0,5.309035919E0
4.683337500E-1,-3.563880864E0,-3.286032286E0,-1.912647044E0,5.211283307E0
4.783197500E-1,-3.665339411E0,-3.300973676E0,-2.561701138E0,5.558187917E0
4.883057500E-1,-3.143226907E0,-3.536758262E0,-3.229249682E0,5.728576429E0
4.982917500E-1,-2.421771712E0,-3.579814526E0,-3.477759563E0,5.547509518E0
5.082777500E-1,-2.119872367E0,-3.612098466E0,-3.749023300E0,5.621057719E0
5.182637500E-1,-1.777499179E0,-3.449666616E0,-3.839308110E0,5.458936696E0
5.282497500E-1,-1.708655816E0,-3.006372240E0,-4.036276247E0,5.315007496E0
5.382357500E-1,-1.614105170E0,-2.761009623E0,-4.019965146E0,5.136986414E0
5.482217500E-1,-1.688998647E0,-2.823666632E0,-4.121169632E0,5.273504415E0
5.582077500E-1,-1.724491830E0,-3.062577431E0,-4.415282533E0,5.643400787E0
5.681937500E-1,-1.360431905E0,-3.107486094E0,-4.975660093E0,6.021996193E0
5.781797500E-1,-5.910119998E-1,-3.196088660E0,-5.661087084E0,6.527800922E0
5.881657500E-1,-1.847755229E-1,-2.839102404E0,-6.252513651E0,6.869393817E0
5.981517500E-1,-4.551501900E-1,-2.626694694E0,-6.489158070E0,7.015401569E0
6.081377500E-1,-8.543758553E-1,-2.719271320E0,-6.476155032E0,7.075661002E0
6.181237500E-1,-4.755797768E-1,-3.162405190E0,-6.285008968E0,7.051830998E0
6.281097500E-1,7.607326967E-1,-3.236887315E0,-5.733132967E0,6.627591368E0
6.380957500E-1,2.108380249E0,-3.135131145E0,-5.136767256E0,6.376573721E0
6.480817500E-1,2.988038880E0,-3.131628078E0,-4.654770160E0,6.356284765E0
6.580677500E-1,3.114720562E0,-3.091670545E0,-4.053182302E0,5.973959968E0
6.680537500E-1,2.788504985E0,-3.222605783E0,-3.413029132E0,5.459827464E0
6.780387500E-1,2.620402213E0,-3.600558109E0,-3.007300778E0,5.373489036E0
6.880247500E-1,2.950483968E0,-3.682733708E0,-2.378498808E0,5.284424263E0
6.980107500E-1,3.195434357E0,-3.580441056E0,-1.834421824E0,5.137651439E0
7.079967500E-1,3.254757283E0,-3.691557156E0,-1.841290548E0,5.254654137E0
7.179827500E-1,3.127229510E0,-3.657690083E0,-1.789483632E0,5.134249003E0
7.279687500E-1,2.646511200E0,-3.745726639E0,-1.820001420E0,4.934257265E0
7.379547500E-1,2.643502808E0,-3.965044004E0,-1.649480532E0,5.042862984E0
7.479407500E-1,2.807977383E0,-3.842916134E0,-1.206927876E0,4.910134040E0
7.579267500E-1,2.903077667E0,-3.859082224E0,-1.047442730E0,4.941407879E0
7.679127500E-1,3.294957476E0,-3.954842367E0,-7.997143292E-1,5.209324901E0
7.778987500E-1,3.859970416E0,-3.996691182E0,-7.887581089E-1,5.612045204E0
7.878847500E-1,4.659763098E0,-4.015958050E0,-9.502216601E-1,6.224486516E0
7.978707500E-1,5.531036237E0,-3.931556123E0,-8.638115072E-1,6.840735759E0
8.078567500E-1,5.715870232E0,-3.566165079E0,-6.478124374E-1,6.768187854E0
8.178427500E-1,5.011076678E0,-3.276828476E0,-1.112959027E-1,5.988395537E0
8.278287500E-1,3.684346370E0,-3.130290527E0,4.588046998E-1,4.856297840E0
8.378147500E-1,2.281022800E0,-3.385031494E0,1.183907388E0,4.250075285E0
8.478007500E-1,1.071918590E0,-3.772784630E0,1.975903977E0,4.391709218E0
8.577867500E-1,2.138057792E-1,-4.122004030E0,2.204785048E0,4.679498610E0
8.677727500E-1,-7.008420056E-1,-4.214987915E0,1.949908718E0,4.696748519E0
8.777587500E-1,-1.677146925E0,-4.223464039E0,1.627680066E0,4.826987952E0
8.877437500E-1,-2.349193148E0,-3.979397457E0,1.697244098E0,4.922900577E0
8.977297500E-1,-2.214991947E0,-3.851553641E0,2.193044131E0,4.954805479E0
9.077157500E-1,-1.753084715E0,-3.620786844E0,2.965246726E0,4.997608581E0
9.177017500E-1,-1.404119961E0,-3.194024593E0,4.021207680E0,5.323857358E0
9.276877500E-1,-1.781628483E0,-2.848074664E0,5.015356840E0,6.036516676E0
9.376737500E-1,-3.011349390E0,-2.770463986E0,5.931431930E0,7.205940646E0
9.476597500E-1,-4.727296100E0,-2.791171900E0,6.926026940E0,8.837862760E0
9.576457500E-1,-6.258030499E0,-2.756618364E0,7.904107075E0,1.045164098E1
9.676317500E-1,-7.136226742E0,-2.564308119E0,8.707004043E0,1.154613908E1
9.776177500E-1,-6.799890804E0,-1.987450912E0,8.914619375E0,1.138678685E1
9.876037500E-1,-5.235980473E0,-1.416279100E0,8.262508650E0,9.883844757E0
9.975897500E-1,-3.229335929E0,-6.490954627E-1,7.285494463E0,7.995521561E0
1.007575750E0,-1.358652012E0,-1.394302194E-1,6.071844043E0,6.223557356E0
1.017561750E0,8.596401036E-2,3.108812535E-1,4.906577579E0,4.917167935E0
1.027547750E0,8.838575166E-1,6.064018714E-1,3.757144790E0,3.907053149E0
1.037533750E0,1.057349083E0,5.228677446E-1,2.612516658E0,2.866464904E0
1.047519750E0,7.500030559E-1,4.016994030E-1,1.460707560E0,1.690424080E0
1.057505750E0,2.845114803E-1,2.864471280E-1,4.576598150E-1,6.102878385E-1
1.067491750E0,-2.437271512E-1,2.259219410E-1,-2.680884057E-1,4.269836541E-1
1.077477750E0,-7.046859652E-1,6.640697435E-2,-6.523405212E-1,9.625696605E-1
1.087463750E0,-9.440446615E-1,-9.790205128E-2,-8.246953887E-1,1.257349442E0
1.097449750E0,-1.017893241E0,-5.423731059E-2,-1.046339360E0,1.460778694E0
1.107435750E0,-9.493182653E-1,-1.617127888E-2,-1.314803742E0,1.621781600E0
1.117420750E0,-8.274225301E-1,1.542421668E-1,-1.466917596E0,1.691232072E0
1.127406750E0,-5.783516085E-1,2.407870249E-1,-1.418846466E0,1.550997830E0
1.137392750E0,-2.795998192E-1,1.965343467E-1,-1.287798961E0,1.332376814E0
1.147378750E0,-4.315362096E-2,4.916879788E-2,-1.133243018E0,1.135129748E0
1.157364750E0,1.994853634E-1,-2.905194944E-1,-9.309866595E-1,9.954557484E-1
1.167350750E0,5.385928810E-1,-5.115897082E-1,-7.996038169E-1,1.091408533E0
1.177336750E0,8.249690384E-1,-5.698179627E-1,-7.924251902E-1,1.277968743E0
1.187322750E0,1.010876582E0,-5.295432915E-1,-8.452764183E-1,1.420133721E0
1.197308750E0,1.133792072E0,-5.935149005E-1,-9.416525656E-1,1.588853031E0
1.207294750E0,1.183256008E0,-6.236746927E-1,-9.943277925E-1,1.666659132E0
1.217280750E0,1.374748812E0,-5.819836796E-1,-9.875327432E-1,1.789933021E0
1.227266750E0,1.780767188E0,-5.832935290E-1,-9.642725194E-1,2.107411827E0
1.237252750E0,2.168769123E0,-6.360918398E-1,-9.413987964E-1,2.448347204E0
1.247238750E0,2.415212306E0,-6.980803657E-1,-9.021856141E-1,2.671049524E0
1.257224750E0,2.595207145E0,-7.732153326E-1,-8.335492426E-1,2.833331328E0
1.267210750E0,2.629854237E0,-7.600130506E-1,-6.970851696E-1,2.824832894E0
1.277196750E0,2.511874382E0,-6.364067124E-1,-5.128189391E-1,2.641497620E0
1.287182750E0,2.264212055E0,-4.354118903E-1,2.663348258E-2,2.305851054E0
1.297167750E0,1.986779214E0,-5.803997785E-1,9.275192606E-1,2.268137457E0
1.307153750E0,1.967148941E0,-7.419481509E-1,1.814193966E0,2.776951883E0
1.317139750E0,2.072211712E0,-1.012652455E0,2.578458381E0,3.459475971E0
1.327125750E0,2.035716900E0,-1.197922798E0,3.175453836E0,3.957609050E0
1.337111750E0,1.909306530E0,-1.196022234E0,3.533063114E0,4.190281085E0
1.347096750E0,1.874189907E0,-1.051183925E0,3.907748015E0,4.459604242E0
1.357082750E0,1.652889166E0,-1.082680464E0,4.304599711E0,4.736435184E0
1.367068750E0,1.109008064E0,-1.042892719E0,4.763257645E0,5.000614713E0
1.377054750E0,4.934839511E-1,-1.146733276E0,5.101896216E0,5.252415503E0
1.387040750E0,-2.321537572E-1,-1.547836921E0,5.101402711E0,5.336103834E0
1.397026750E0,-9.475722867E-1,-1.754409109E0,5.083847616E0,5.460892889E0
1.407012750E0,-1.808236822E0,-1.780275876E0,4.991469795E0,5.599452947E0
1.416998750E0,-2.299202963E0,-1.635222828E0,4.922783137E0,5.673982884E0
1.426984750E0,-2.506920036E0,-1.526202515E0,4.860596244E0,5.677969535E0
1.436970750E0,-2.506334730E0,-1.403431452E0,4.860750611E0,5.646080952E0
1.446956750E0,-2.391608266E0,-1.422355380E0,4.440470876E0,5.240292599E0
1.456942750E0,-2.344603668E0,-1.481128084E0,3.675065085E0,4.604021084E0
1.466928750E0,-2.398874601E0,-1.446698801E0,3.076669806E0,4.160941463E0
1.476914750E0,-2.497063969E0,-1.571557320E0,2.481191702E0,3.855052936E0
1.486900750E0,-2.426284301E0,-1.768010902E0,1.953571706E0,3.581781745E0
1.496886750E0,-2.184519768E0,-1.988926311E0,1.568193417E0,3.344724963E0
1.506872750E0,-1.977926821E0,-2.315060611E0,1.456781740E0,3.375487103E0
1.516858750E0,-2.091205515E0,-2.807804305E0,1.177162040E0,3.693591205E0
1.526844750E0,-2.382823116E0,-3.183531765E0,9.427916032E-1,4.086756233E0
1.536830750E0,-2.711191053E0,-3.578032295E0,8.461991090E-1,4.568251850E0
1.546816750E0,-3.013646469E0,-3.936646709E0,6.050359619E-1,4.994529093E0
1.556802750E0,-3.163790980E0,-4.080235614E0,-2.414724648E-2,5.163184978E0
1.566788750E0,-3.028743980E0,-4.023653862E0,-1.203625368E0,5.178010673E0
1.576774750E0,-2.606630266E0,-3.691212755E0,-2.384571726E0,5.109379147E0
1.586759750E0,-2.258377118E0,-3.252888513E0,-3.394038545E0,5.215462447E0
1.596745750E0,-2.311765998E0,-2.841530460E0,-3.942412063E0,5.381558349E0
1.606731750E0,-2.524148565E0,-2.549694173E0,-4.191073680E0,5.517006882E0
1.616717750E0,-2.628521072E0,-2.577757300E0,-4.390249726E0,5.729594084E0
1.626703750E0,-2.832592406E0,-2.763318688E0,-4.238996875E0,5.799017539E0
1.636689750E0,-3.252448218E0,-3.000174776E0,-3.887635640E0,5.890091592E0
1.646675750E0,-3.957198502E0,-3.323043407E0,-3.474804965E0,6.227062471E0
1.656661750E0,-4.623591052E0,-3.507275723E0,-3.058779665E0,6.560084622E0
1.666647750E0,-4.826273088E0,-3.832689062E0,-3.028696910E0,6.866980584E0
1.676633750E0,-4.452596832E0,-4.190929254E0,-3.221411197E0,6.911367206E0
1.686619750E0,-3.511747089E0,-4.161193238E0,-3.108210856E0,6.269678741E0
1.696605750E0,-2.741530209E0,-3.903637422E0,-2.639928989E0,5.451935260E0
1.706591750E0,-2.530598921E0,-3.760258724E0,-2.192781591E0,5.035053890E0
1.716577750E0,-2.587173071E0,-3.905679855E0,-2.071890408E0,5.122551072E0
1.726563750E0,-2.317941535E0,-4.224622957E0,-2.384110381E0,5.376269561E0
1.736549750E0,-1.412342316E0,-4.127674367E0,-2.884158416E0,5.229796963E0
1.746535750E0,-1.905829775E-1,-3.711807526E0,-3.409492151E0,5.043656780E0
1.756521750E0,9.471302372E-1,-3.179753586E0,-3.793499561E0,5.039695177E0
1.766507750E0,1.736952832E0,-2.495078255E0,-3.908634745E0,4.951751832E0
1.776493750E0,2.008446071E0,-2.256383218E0,-4.008677097E0,5.019423564E0
1.786479750E0,1.746304868E0,-2.375810697E0,-3.880742357E0,4.873829952E0
1.796465750E0,1.205337433E0,-2.793403198E0,-3.767352859E0,4.842405117E0
1.806450750E0,9.788443655E-1,-3.373625915E0,-3.983560382E0,5.311143137E0
1.816436750E0,1.505371517E0,-3.477376863E0,-4.029770635E0,5.531486656E0
1.826422750E0,2.246820681E0,-2.961774649E0,-3.920742282E0,5.403011409E0
1.836408750E0,2.590606556E0,-2.748519970E0,-3.905123785E0,5.432825796E0
1.846394750E0,2.341241519E0,-2.628295369E0,-3.832006984E0,5.203232258E0
1.856380750E0,1.669815102E0,-2.675592619E0,-4.141050750E0,5.205322243E0
1.866366750E0,1.185864451E0,-2.870502829E0,-4.401165015E0,5.386679356E0
1.876352750E0,1.176662688E0,-3.055560772E0,-4.103217511E0,5.249512421E0
1.886338750E0,1.375125958E0,-3.084312701E0,-3.681903403E0,4.996035319E0
1.896324750E0,1.770165017E0,-3.128685174E0,-3.221277296E0,4.826881242E0
1.906310750E0,2.125111472E0,-3.052907891E0,-2.433742717E0,4.445160174E0
1.916296750E0,2.059444901E0,-3.114858556E0,-1.890249869E0,4.185295891E0
1.926282750E0,1.829004378E0,-3.336477969E0,-1.646229773E0,4.145770703E0
1.936268750E0,1.684756492E0,-3.371055479E0,-1.213907405E0,3.959291688E0
1.946254750E0,1.504864563E0,-3.400794125E0,-1.096974786E0,3.877289223E0
1.956240750E0,1.693343713E0,-3.622005403E0,-1.299032632E0,4.204024483E0
1.966226750E0,2.290594692E0,-3.553460541E0,-1.247252029E0,4.407895584E0
1.976212750E0,2.893868887E0,-3.698729644E0,-1.486510153E0,4.925930425E0
1.986198750E0,3.516882114E0,-3.691039093E0,-1.657699378E0,5.360988399E0
1.996184750E0,4.047770703E0,-3.584180350E0,-1.540264338E0,5.621673299E0
2.006170750E0,4.068013764E0,-3.629933935E0,-1.469236455E0,5.646575256E0
2.016156750E0,3.741370756E0,-3.786277372E0,-1.035876938E0,5.422803012E0
2.026142750E0,3.588708141E0,-4.078307495E0,8.393678069E-2,5.433089685E0
2.036128750E0,3.262752766E0,-4.282401341E0,1.485985073E0,5.585039704E0
2.046114750E0,2.690085236E0,-4.512238139E0,2.978172873E0,6.038738715E0
2.056099750E0,1.832650117E0,-4.750381784E0,4.542706518E0,6.823555969E0
2.066085750E0,7.989951217E-1,-4.812864838E0,5.662783361E0,7.474568653E0
2.076071750E0,-2.566588533E-1,-4.680537963E0,6.346429290E0,7.889896965E0
2.086057750E0,-1.239454767E0,-4.354987799E0,6.731885347E0,8.112980166E0
2.096043750E0,-1.903626544E0,-3.904889019E0,7.266900317E0,8.466391940E0
2.106029750E0,-2.204549405E0,-3.370077240E0,8.080483072E0,9.028381104E0
2.116015750E0,-2.437325891E0,-2.846403822E0,8.562997062E0,9.347057874E0
2.126001750E0,-2.765580391E0,-2.448538804E0,8.545854780E0,9.309963002E0
2.135987750E0,-3.125313377E0,-2.016658778E0,8.201489446E0,9.005494182E0
2.145973750E0,-3.292764770E0,-1.551618754E0,7.568531275E0,8.398362117E0
2.155959750E0,-3.107886921E0,-1.285291091E0,6.700200455E0,7.496907392E0
2.165945750E0,-2.631408427E0,-1.097219638E0,5.559996911E0,6.248341132E0
2.175931750E0,-2.104473140E0,-7.846020542E-1,4.370692543E0,4.913996427E0
2.185917750E0,-1.460963084E0,-6.170908740E-1,3.215170756E0,3.585043552E0
2.195903750E0,-7.533155036E-1,-4.835226345E-1,2.314771174E0,2.481822712E0
2.205889750E0,-2.502351022E-1,-1.582459746E-1,1.761281342E0,1.785993102E0
2.215875750E0,5.997138262E-2,1.466810592E-1,1.279613444E0,1.289388408E0
2.225861750E0,1.743475986E-1,3.295756790E-1,7.864662927E-1,8.703714396E-1
2.235847750E0,1.665994531E-1,5.062821905E-1,3.598996317E-1,6.431211232E-1
2.245833750E0,7.764985442E-2,5.548783998E-1,6.333470106E-2,5.638535473E-1
2.255819750E0,-6.371710896E-2,3.878972697E-1,-4.902364075E-2,3.961407315E-1
2.265805750E0,-2.414999467E-1,1.238944598E-1,-1.110511968E-1,2.932651185E-1
2.275791750E0,-3.075536031E-1,-2.867721601E-1,-3.407792366E-1,5.412559271E-1
2.285777750E0,-2.755120307E-1,-5.237327671E-1,-5.698254910E-1,8.215253986E-1
2.295762750E0,-3.427661204E-1,-4.803958359E-1,-7.230105543E-1,9.332807906E-1
2.305749417E0,-3.386602056E-1,-4.303542680E-1,-8.946213636E-1,1.048924647E0
2.315735417E0,-2.157885700E-1,-4.074596413E-1,-1.113497556E0,1.205182506E0
2.325721417E0,-9.453135073E-2,-3.695859830E-1,-1.273789910E0,1.329688200E0
2.335707417E0,6.583789408E-2,-3.589789145E-1,-1.330002995E0,1.379169480E0
2.345693417E0,2.756704903E-1,-2.461064563E-1,-1.308991025E0,1.360154444E0
2.355679417E0,4.508530712E-1,-2.259410906E-1,-1.241855634E0,1.340344465E0
2.365665417E0,5.172511286E-1,-3.175660097E-1,-1.140622789E0,1.292059305E0
2.375651417E0,4.615242398E-1,-3.665441152E-1,-1.077182838E0,1.227877062E0
2.385637417E0,4.985388690E-1,-4.295914257E-1,-1.086265903E0,1.270064333E0
2.395623417E0,6.293334818E-1,-4.520937042E-1,-1.143496696E0,1.381316054E0
2.405609417E0,8.335948509E-1,-4.798714138E-1,-1.291513113E0,1.610330112E0
2.415595417E0,1.080082473E0,-5.675852765E-1,-1.356242375E0,1.824314823E0
2.425581417E0,1.315480265E0,-5.431771346E-1,-1.380866754E0,1.983008502E0
2.435567417E0,1.417966168E0,-4.526412228E-1,-1.454522668E0,2.081141110E0
2.445553417E0,1.392943593E0,-3.863904057E-1,-1.305218986E0,1.947610331E0
2.455539417E0,1.389450467E0,-3.115123508E-1,-1.029987622E0,1.757409185E0
2.465525417E0,1.417565634E0,-3.570826625E-1,-7.609993297E-1,1.648065634E0
2.475511417E0,1.466907948E0,-4.279877902E-1,-3.793059558E-1,1.574441324E0
2.485497417E0,1.448022611E0,-4.204439684E-1,1.677899462E-1,1.517134166E0
2.495483417E0,1.585821018E0,-6.655901657E-1,7.735375142E-1,1.885788656E0
2.505469417E0,1.694421939E0,-1.015836921E0,1.467218435E0,2.460837316E0
2.515455417E0,1.596371734E0,-1.110811710E0,2.124443720E0,2.880202508E0
2.525441417E0,1.280023334E0,-1.140140540E0,2.665452670E0,3.169072124E0
2.535426417E0,7.794607437E-1,-1.252146880E0,2.862598563E0,3.220233127E0
2.545412417E0,2.271865475E-1,-1.317503694E0,2.976721594E0,3.263173480E0
2.555398417E0,-1.136283571E-1,-1.236621791E0,3.345903096E0,3.568923141E0
2.565384417E0,-2.707126361E-1,-1.280570195E0,3.822486255E0,4.040364653E0
2.575370417E0,-5.800683510E-1,-1.306381413E0,4.369855222E0,4.597689240E0
2.585356417E0,-1.054281926E0,-1.335999168E0,4.578096206E0,4.884195843E0
2.595342417E0,-1.526291393E0,-1.392314871E0,4.484019769E0,4.937057768E0
2.605328417E0,-1.977554354E0,-1.321898754E0,4.552642692E0,5.136603257E0
2.615314417E0,-2.188690294E0,-1.251940034E0,4.571039786E0,5.220356672E0
2.625300417E0,-2.297635909E0,-1.179110332E0,4.463653332E0,5.156901493E0
2.635286417E0,-2.370005435E0,-1.041105225E0,4.435253406E0,5.135396637E0
2.645272417E0,-2.331517015E0,-9.467776501E-1,4.293230385E0,4.976362793E0
2.655258417E0,-2.371418707E0,-1.061419330E0,3.993003927E0,4.763855376E0
2.665244417E0,-2.409857426E0,-1.197572038E0,3.658743167E0,4.541805055E0
2.675230417E0,-2.354474061E0,-1.336414467E0,3.176991654E0,4.174066087E0
2.685216417E0,-2.340570844E0,-1.482979312E0,2.703464250E0,3.871203749E0
2.695202417E0,-2.333192242E0,-1.731773660E0,2.371438880E0,3.750539749E0
2.705188417E0,-2.458293714E0,-1.955196648E0,2.130045353E0,3.795140988E0
2.715174417E0,-2.678518274E0,-2.245068271E0,1.657387429E0,3.868038880E0
2.725160417E0,-2.804885960E0,-2.449379926E0,1.125046391E0,3.890061266E0
2.735146417E0,-2.829590446E0,-2.552358749E0,6.651541096E-1,3.868274456E0
2.745132417E0,-2.927434244E0,-2.545057331E0,2.099091947E-1,3.884745801E0
2.755118417E0,-3.080728066E0,-2.585103157E0,-1.874979866E-1,4.026015305E0
2.765104417E0,-3.199503727E0,-2.682676229E0,-6.063697118E-1,4.219153952E0
2.775090417E0,-3.260162449E0,-2.717746074E0,-9.700495684E-1,4.353825799E0
2.785075417E0,-3.308271293E0,-2.867597347E0,-1.391986404E0,4.594061346E0
2.795061417E0,-3.292858618E0,-2.885740088E0,-1.681207232E0,4.690082248E0
2.805047417E0,-3.326918064E0,-2.919000220E0,-1.986887972E0,4.851460595E0
2.815033417E0,-3.595004716E0,-3.092375427E0,-2.221469493E0,5.236580124E0
2.825019417E0,-3.897760971E0,-3.436862383E0,-2.397413381E0,5.722949811E0
2.835005417E0,-4.041963834E0,-3.843256150E0,-2.503919830E0,6.113730774E0
2.844991417E0,-4.104034367E0,-4.163437985E0,-2.472932510E0,6.347653829E0
2.854977417E0,-3.952673927E0,-4.385034594E0,-2.727988057E0,6.503389762E0
2.864963417E0,-3.606798842E0,-4.408702369E0,-3.058563318E0,6.465327836E0
2.874949417E0,-3.109985486E0,-4.306925733E0,-3.311337866E0,6.259918327E0
2.884935417E0,-2.638817434E0,-4.150232633E0,-3.525611422E0,6.051258072E0
2.894921417E0,-2.193787020E0,-3.904154316E0,-3.489945745E0,5.677573753E0
2.904907417E0,-1.892055489E0,-3.833461479E0,-3.057248864E0,5.255670414E0
2.914893417E0,-1.888473485E0,-3.801553808E0,-2.336543866E0,4.845366931E0
2.924879417E0,-2.002365552E0,-3.782440137E0,-1.886245696E0,4.676990915E0
2.934865417E0,-1.782759334E0,-3.790914214E0,-1.804976415E0,4.561491125E0
2.944851417E0,-1.107063864E0,-3.530197393E0,-1.926166391E0,4.171091105E0
2.954837417E0,-2.879519820E-1,-3.244360349E0,-2.222549181E0,3.943160570E0
2.964823417E0,5.200630546E-1,-2.815014799E0,-2.592330315E0,3.861987877E0
2.974809417E0,1.191760783E0,-2.604518251E0,-3.261145951E0,4.340378094E0
2.984795417E0,1.618262540E0,-2.501660466E0,-4.001499347E0,4.988895244E0
2.994781417E0,1.779609439E0,-2.379286428E0,-4.777757571E0,5.626275950E0
3.004767417E0,2.088782136E0,-2.533405584E0,-5.844459275E0,6.703645194E0
3.014753417E0,2.651192481E0,-2.483698696E0,-6.369072633E0,7.332302980E0
3.024738417E0,3.153272424E0,-2.427375099E0,-6.186088697E0,7.355472127E0
3.034725417E0,3.276971440E0,-2.609215612E0,-5.790740320E0,7.146972883E0
3.044710417E0,2.871758226E0,-2.935333833E0,-5.174437943E0,6.605905543E0
3.054696417E0,2.145795997E0,-3.063673199E0,-4.254929076E0,5.665240981E0
3.064682417E0,1.589531661E0,-3.234526794E0,-3.749629948E0,5.200817170E0
3.074668417E0,1.290774609E0,-3.207134635E0,-3.219627212E0,4.724173054E0
3.084654417E0,1.009790754E0,-2.952210066E0,-2.765178103E0,4.169104410E0
3.094640417E0,7.504819429E-1,-2.901209482E0,-2.663442398E0,4.009259908E0
3.104626417E0,9.122124195E-1,-3.091859118E0,-2.111485413E0,3.853582094E0
3.114612417E0,1.132731387E0,-3.106328930E0,-1.132996266E0,3.495145255E0
3.124598417E0,1.183993927E0,-3.340513425E0,-7.794975811E-1,3.628841143E0
3.134584417E0,1.050338856E0,-3.471548943E0,-9.042122591E-1,3.737975868E0
3.144570417E0,7.502539015E-1,-3.308292343E0,-9.171781674E-1,3.514099449E0
3.154556417E0,7.196712095E-1,-3.323220285E0,-1.154282177E0,3.590833755E0
3.164542417E0,9.739572626E-1,-3.206875019E0,-1.347421265E0,3.612227042E0
3.174528417E0,1.534985910E0,-3.140160627E0,-1.445846277E0,3.782494146E0
3.184514417E0,2.339481508E0,-3.255594020E0,-1.495823306E0,4.278966407E0
3.194500417E0,3.100074456E0,-3.322322153E0,-1.298550822E0,4.725941213E0
3.204486417E0,3.676557879E0,-3.314076994E0,-7.881011742E-1,5.012114087E0
3.214472417E0,4.110320123E0,-3.342806411E0,-3.815182498E-1,5.311745701E0
3.224458417E0,4.596041311E0,-3.431924994E0,-1.386035693E-1,5.737675126E0
3.234444417E0,4.752794053E0,-3.414542684E0,1.025654250E-1,5.853090868E0
3.244430417E0,4.660646612E0,-3.667780623E0,5.043141639E-1,5.952190716E0
3.254416417E0,4.669712135E0,-4.001529168E0,1.450691280E0,6.318461229E0
3.264402417E0,4.340196975E0,-3.998016453E0,2.711972533E0,6.494323703E0
3.274388417E0,3.536503615E0,-4.086235442E0,3.807786940E0,6.610856169E0
3.284373417E0,2.281576531E0,-4.229443694E0,4.569313688E0,6.631169807E0
3.294359417E0,9.276309425E-1,-4.364933621E0,5.076951994E0,6.759333268E0
3.304345125E0,-3.591067493E-1,-4.334200363E0,5.564789874E0,7.062657912E0
3.314331125E0,-1.554288154E0,-4.225624585E0,6.011448153E0,7.510607411E0
3.324317125E0,-2.812656325E0,-4.209471067E0,6.407743194E0,8.166385681E0
3.334303125E0,-3.936118121E0,-4.070210563E0,6.729993188E0,8.795024059E0
3.344289125E0,-4.655598711E0,-3.844164807E0,6.968417500E0,9.220143430E0
3.354275125E0,-4.924967072E0,-3.627869284E0,6.945809825E0,9.255323351E0
3.364261125E0,-4.986706653E0,-3.042974641E0,6.541321081E0,8.770166440E0
3.374247125E0,-4.943419130E0,-2.228579415E0,5.894006242E0,8.008949275E0
3.384233125E0,-4.791820709E0,-1.459830185E0,5.443188838E0,7.397361327E0
3.394219125E0,-4.435155172E0,-8.077448221E-1,5.185569872E0,6.871185342E0
3.404205125E0,-3.776600815E0,-7.111745473E-1,4.778165706E0,6.131830923E0
3.414191125E0,-2.942951000E0,-8.119549636E-1,4.291970894E0,5.266995881E0
3.424177125E0,-1.994105775E0,-7.481792363E-1,3.667335650E0,4.240941026E0
3.434163125E0,-1.076855394E0,-7.622101419E-1,2.864990659E0,3.154164440E0
3.444149125E0,-3.818670362E-1,-5.534426891E-1,2.138913825E0,2.242113644E0
3.454135125E0,1.010112351E-1,-2.030821684E-1,1.497800250E0,1.514876637E0
3.464121125E0,3.076167530E-1,5.684582658E-2,9.349776766E-1,9.859222943E-1
3.474107125E0,4.358573020E-1,1.512833660E-1,3.723734969E-1,5.928914451E-1
3.484093125E0,3.686681163E-1,2.235360212E-1,-1.946766132E-1,4.730576249E-1
3.494079125E0,1.811636978E-1,2.206186443E-1,-6.605672613E-1,7.196123806E-1
3.504065125E0,-6.614487290E-2,1.363985477E-2,-1.079715852E0,1.081826008E0
3.514051125E0,-3.546453238E-1,-1.372612952E-1,-1.320912328E0,1.374562966E0
3.524037125E0,-5.731130880E-1,-2.854526628E-1,-1.390687153E0,1.530997254E0
3.534023125E0,-6.346141022E-1,-3.932977946E-1,-1.217624772E0,1.428295593E0
3.544008125E0,-6.941826117E-1,-3.355218953E-1,-1.011406925E0,1.271773725E0
3.553994125E0,-7.785450697E-1,-2.480066187E-1,-9.735248610E-1,1.270980080E0
3.563980125E0,-8.182505876E-1,-1.796276708E-1,-9.083857092E-1,1.235704140E0
3.573966125E0,-7.596357590E-1,-2.396832716E-1,-7.154141441E-1,1.070659589E0
3.583952125E0,-5.838795662E-1,-3.608892730E-1,-5.249063033E-1,8.641082354E-1
3.593938125E0,-3.279767579E-1,-4.673909340E-1,-4.324694252E-1,7.162770711E-1
3.603924125E0,7.933969975E-2,-6.394501881E-1,-5.665069038E-1,8.579751763E-1
3.613910125E0,6.740442163E-1,-8.808374298E-1,-9.124544942E-1,1.436239321E0
3.623896125E0,1.200077863E0,-7.268154837E-1,-1.246911137E0,1.877028238E0
3.633882125E0,1.562992904E0,-4.335618313E-1,-1.531048980E0,2.230478347E0
3.643868125E0,1.820205488E0,-3.353974227E-1,-1.720451404E0,2.526972989E0
3.653854125E0,1.877281914E0,-2.470522069E-1,-1.668241031E0,2.523539244E0
3.663840125E0,1.822636176E0,-2.707026593E-1,-1.470641395E0,2.357555656E0
3.673826125E0,1.765937480E0,-4.286946090E-1,-1.271396352E0,2.217828428E0
3.683812125E0,1.744465919E0,-6.024545623E-1,-9.584457690E-1,2.079598792E0
3.693798125E0,1.708196225E0,-7.859958842E-1,-7.217803001E-1,2.014122805E0
3.703784125E0,1.539066097E0,-8.890996186E-1,-5.380116677E-1,1.857061964E0
3.713770125E0,1.402837667E0,-9.897177015E-1,-2.647794664E-1,1.737124870E0
3.723756125E0,1.369676937E0,-1.053019220E0,1.817063195E-1,1.737205105E0
3.733742125E0,1.328485057E0,-8.421409951E-1,7.896232045E-1,1.759993980E0
3.743728125E0,1.285692794E0,-6.829974729E-1,1.414311658E0,2.029721403E0
3.753714125E0,1.086836591E0,-6.076895014E-1,2.091734980E0,2.434308020E0
3.763700125E0,6.722181308E-1,-4.585363126E-1,2.726301720E0,2.845145661E0
3.773686125E0,1.109064782E-1,-5.615617673E-1,3.134486489E0,3.186323495E0
3.783672125E0,-6.297574049E-1,-8.117172012E-1,3.308209020E0,3.464062085E0
3.793658125E0,-1.369612910E0,-9.269498880E-1,3.560987077E0,3.926283813E0
3.803643125E0,-1.847360542E0,-1.040120408E0,4.095276407E0,4.611494366E0
3.813629125E0,-1.996240008E0,-1.138240341E0,4.663482512E0,5.198907037E0
3.823615125E0,-2.316212805E0,-1.139876538E0,5.142641369E0,5.754208941E0
3.833601125E0,-2.884591695E0,-1.139931648E0,5.686994927E0,6.477825616E0
3.843587125E0,-3.569338363E0,-1.203841423E0,6.031183090E0,7.110877582E0
3.853573125E0,-3.878065794E0,-1.115618926E0,6.023249003E0,7.250070927E0
3.863559125E0,-3.903139240E0,-9.912916258E-1,5.790473102E0,7.053136448E0
3.873545125E0,-3.822920119E0,-1.031933575E0,5.339508934E0,6.647552993E0
3.883531125E0,-3.626334097E0,-1.116218850E0,4.691369053E0,6.033671112E0
3.893517125E0,-3.342429850E0,-1.227517969E0,4.022136510E0,5.371798560E0
3.903503125E0,-2.974563972E0,-1.372654047E0,3.383961453E0,4.709926228E0
3.913489125E0,-2.628928623E0,-1.624575194E0,2.648365937E0,4.069932727E0
3.923475125E0,-2.309414540E0,-1.749931604E0,2.130224862E0,3.596319521E0
3.933461125E0,-2.208325537E0,-1.793763502E0,1.830845667E0,3.383235882E0
3.943447125E0,-2.338665529E0,-1.974125547E0,1.795431420E0,3.548253389E0
3.953433125E0,-2.557394079E0,-2.140386738E0,1.832933123E0,3.805412421E0
3.963419125E0,-2.850643346E0,-2.338555309E0,1.537365142E0,3.994809131E0
3.973405125E0,-3.139944573E0,-2.520135328E0,1.024701154E0,4.154557311E0
3.983391125E0,-3.393366407E0,-2.718044282E0,4.643256408E-1,4.372447666E0
3.993377125E0,-3.747201015E0,-2.965049967E0,-7.872164905E-2,4.779041102E0
4.003363125E0,-3.976000224E0,-3.220848695E0,-8.277312630E-1,5.183394944E0
4.013349125E0,-4.112181877E0,-3.300055663E0,-1.588408996E0,5.506673252E0
4.023335125E0,-4.145154326E0,-3.211217746E0,-2.310798576E0,5.730097194E0
4.033321125E0,-4.039613253E0,-3.076565725E0,-2.835782062E0,5.815960093E0
4.043307125E0,-3.957523023E0,-3.152227526E0,-3.357661847E0,6.072266458E0
4.053293125E0,-4.123010043E0,-3.273152039E0,-3.706414347E0,6.438186344E0
4.063278125E0,-4.534028665E0,-3.408814459E0,-3.885436209E0,6.875612445E0
4.073264125E0,-4.985058907E0,-3.620104181E0,-3.934301975E0,7.309904146E0
4.083250125E0,-5.353610664E0,-3.856023545E0,-3.766565824E0,7.597175977E0
4.093236125E0,-5.356372304E0,-4.046859707E0,-3.707775578E0,7.669119734E0
4.103222125E0,-5.192183073E0,-4.290669889E0,-3.608852969E0,7.641494154E0
4.113208125E0,-4.730001022E0,-4.647628371E0,-3.370660792E0,7.438730625E0
4.123194125E0,-4.105416064E0,-5.085667269E0,-3.198875443E0,7.276761418E0
4.133180125E0,-3.114683139E0,-5.290098792E0,-3.228672562E0,6.936189357E0
4.143166125E0,-1.961275998E0,-5.121697227E0,-3.214546566E0,6.357019400E0
4.153152125E0,-8.671052438E-1,-4.551461262E0,-3.183733494E0,5.621728389E0
4.163138125E0,-1.195702976E-1,-3.864699351E0,-3.014871168E0,4.903024199E0
4.173124125E0,7.529751956E-2,-3.382877672E0,-3.005419144E0,4.525712683E0
4.183110125E0,-1.342345297E-1,-3.290848637E0,-3.333262001E0,4.685972602E0
4.193096125E0,-2.612705523E-1,-3.399132932E0,-3.872172970E0,5.159078454E0
4.203082125E0,-1.052674234E-2,-3.649762136E0,-4.748829641E0,5.989345325E0
4.213068125E0,5.463047737E-1,-3.364336444E0,-5.361504990E0,6.353183798E0
4.223054125E0,1.494431376E0,-2.915064459E0,-5.477773365E0,6.382548627E0
4.233040125E0,2.353358704E0,-2.549037823E0,-5.214320047E0,6.262988469E0
4.243026125E0,2.838437283E0,-2.427955728E0,-4.567979938E0,5.900689446E0
4.253012125E0,2.922743608E0,-2.624461642E0,-4.041271523E0,5.635787845E0
4.262998125E0,2.664039983E0,-2.891255474E0,-3.943011695E0,5.568106364E0
4.272984125E0,2.308752635E0,-2.931481102E0,-4.251343271E0,5.656663309E0
4.282970125E0,1.889044758E0,-2.728556699E0,-4.585809268E0,5.660667664E0
4.292956125E0,1.643459947E0,-2.514969313E0,-4.530010751E0,5.435717859E0
4.302942250E0,1.383896196E0,-2.263319185E0,-4.002784273E0,4.802089582E0
4.312928250E0,1.152365168E0,-2.152187296E0,-3.025183318E0,3.887362826E0
4.322914250E0,1.025300494E0,-2.176414357E0,-1.882929155E0,3.055068373E0
4.332899250E0,6.686641932E-1,-2.178386039E0,-9.530365098E-1,2.469970875E0
4.342885250E0,3.559591931E-1,-2.137784435E0,-4.006368908E-1,2.203937194E0
4.352871250E0,-1.011047906E-1,-1.977599962E0,-3.470626545E-1,2.010367199E0
4.362857250E0,-6.079127920E-1,-1.951372276E0,-6.499852628E-1,2.144736013E0
4.372843250E0,-8.654411262E-1,-2.052854505E0,-1.510829454E0,2.691803410E0
4.382829250E0,-3.433122504E-1,-2.436255558E0,-2.173738379E0,3.283038682E0
4.392815250E0,6.468096399E-1,-2.348186257E0,-2.041982338E0,3.178369594E0
4.402801250E0,1.635920547E0,-2.181657556E0,-2.087411111E0,3.434115733E0
4.412787250E0,2.781498266E0,-2.346354910E0,-2.091027029E0,4.196964141E0
4.422773250E0,3.672302275E0,-2.380406755E0,-1.832625559E0,4.744539678E0
4.432759250E0,4.263034194E0,-2.270162766E0,-1.299925940E0,5.001690411E0
4.442745250E0,4.404167853E0,-2.293307800E0,-9.155254519E-1,5.049172407E0
4.452731250E0,4.465232080E0,-2.661860141E0,-6.029963069E-1,5.233297382E0
4.462717250E0,4.552521654E0,-2.972651932E0,-2.221368921E-1,5.441641087E0
4.472703250E0,4.365459870E0,-3.135784571E0,-1.358061151E-1,5.376693041E0
4.482689250E0,3.899693475E0,-3.285442886E0,-2.187558858E-1,5.103880710E0
4.492675250E0,3.336238818E0,-3.470248815E0,-1.479684699E-1,4.816119907E0
4.502661250E0,2.636851600E0,-3.713971873E0,-1.431939259E-2,4.554863168E0
4.512647250E0,1.918922276E0,-4.047877123E0,5.487904251E-2,4.480020492E0
4.522633250E0,1.205229260E0,-4.288862514E0,2.931325420E-1,4.464621588E0
4.532619250E0,6.184284246E-1,-4.417804437E0,8.179324991E-1,4.535246777E0
4.542605250E0,2.618505961E-1,-4.603554398E0,1.390780123E0,4.816175681E0
4.552591250E0,-2.046776909E-1,-4.819809869E0,1.874157162E0,5.175415461E0
4.562577250E0,-8.996028990E-1,-5.019171563E0,2.201708243E0,5.554177504E0
4.572563250E0,-1.773989680E0,-4.986142981E0,2.653514410E0,5.920287150E0
4.582549250E0,-2.572993573E0,-5.027857018E0,3.347750816E0,6.565598042E0
4.592535250E0,-3.121579930E0,-5.137720352E0,4.291240577E0,7.386147668E0
4.602521250E0,-3.530114363E0,-4.769811497E0,5.189135504E0,7.882888837E0
4.612506250E0,-3.581140090E0,-4.331398085E0,6.042555925E0,8.252154617E0
4.622492250E0,-3.361015810E0,-3.864778874E0,6.886137820E0,8.582064850E0
4.632478250E0,-3.176297005E0,-3.221688940E0,7.474912090E0,8.737416841E0
4.642464250E0,-3.177702091E0,-2.758579520E0,7.828534151E0,8.887828672E0
4.652450250E0,-3.136503779E0,-2.464655192E0,7.947950667E0,8.892811759E0
4.662436250E0,-2.943850887E0,-2.127268948E0,7.970041448E0,8.758601024E0
4.672422250E0,-2.430290521E0,-1.910013897E0,7.588729312E0,8.194100175E0
4.682408250E0,-1.631740372E0,-1.917716288E0,6.958850285E0,7.400392537E0
4.692394250E0,-9.565243739E-1,-1.716450155E0,6.277993478E0,6.578323656E0
4.702380250E0,-4.437954819E-1,-1.539415614E0,5.177037030E0,5.419268150E0
4.712366250E0,-1.471387500E-1,-1.412295684E0,3.878725360E0,4.130464784E0
4.722352250E0,7.868188798E-2,-1.249770279E0,2.688633957E0,2.965951642E0
4.732338250E0,3.414037192E-1,-1.105847351E0,1.657147109E0,2.021284593E0
4.742324250E0,3.713543272E-1,-7.681811723E-1,7.347046933E-1,1.125965069E0
4.752310250E0,3.047843617E-1,-5.465723569E-1,-6.586654544E-2,6.292640545E-1
4.762296250E0,2.850295436E-1,-4.747919375E-1,-7.741739836E-1,9.518479824E-1
4.772282250E0,1.061176085E-1,-4.081794336E-1,-1.352897475E0,1.417110784E0
4.782268250E0,-2.045858896E-1,-2.598162036E-1,-1.692680054E0,1.724681307E0
4.792254250E0,-4.103382987E-1,-1.640638080E-1,-1.912198855E0,1.962600039E0
4.802240250E0,-5.658993781E-1,-1.098011351E-1,-1.914822208E0,1.999710600E0
4.812226250E0,-6.647325253E-1,-8.691239219E-2,-1.760913260E0,1.884207686E0
4.822212250E0,-6.643360841E-1,-2.626915719E-1,-1.614853321E0,1.765814414E0
4.832198250E0,-5.313230377E-1,-5.154365183E-1,-1.443587205E0,1.622320250E0
4.842184250E0,-4.136519158E-1,-5.664690430E-1,-1.171877034E0,1.365756518E0
4.852170250E0,-1.987410128E-1,-5.143965544E-1,-8.171276298E-1,9.857988480E-1
4.862156250E0,3.247251213E-2,-6.526229417E-1,-6.463693446E-1,9.191107103E-1
4.872142250E0,1.185043502E-1,-7.482281336E-1,-5.326570800E-1,9.260735315E-1
4.882127250E0,1.291199702E-1,-6.760055186E-1,-4.438217944E-1,8.189219823E-1
4.892113250E0,1.819349456E-1,-6.149084008E-1,-3.990727606E-1,7.552957924E-1
4.902099250E0,2.497263944E-1,-6.002161020E-1,-2.704690996E-1,7.041137515E-1
4.912085250E0,2.858908385E-1,-6.407649346E-1,-1.273564500E-1,7.131149545E-1
4.922071250E0,3.580022103E-1,-6.739484681E-1,-1.208999544E-2,7.632288570E-1
4.932057250E0,5.492424148E-1,-6.796608324E-1,-4.240108430E-2,8.748736647E-1
4.942043250E0,7.260470134E-1,-7.673203891E-1,-2.028808415E-1,1.075679079E0
4.952029250E0,7.968351603E-1,-8.188599405E-1,-4.141769958E-1,1.215327305E0
4.962015250E0,9.638591212E-1,-8.769999752E-1,-7.511359540E-1,1.504113886E0
4.972001250E0,1.194704272E0,-8.921358584E-1,-9.636959839E-1,1.775368873E0
4.981987250E0,1.535784055E0,-8.635217046E-1,-9.545398289E-1,2.003858449E0
4.991973250E0,1.778581499E0,-6.497384372E-1,-9.445305651E-1,2.116045882E0
5.001959250E0,1.855779948E0,-3.589720441E-1,-7.950973678E-1,2.050599905E0
5.011945250E0,1.927797765E0,-2.616797112E-2,-4.903773254E-1,1.989361431E0
5.021931250E0,1.976140205E0,1.085378077E-1,-6.283944190E-2,1.980115997E0
5.031917250E0,1.970490625E0,4.801050100E-2,4.060400105E-1,2.012462870E0
5.041903250E0,2.062000135E0,-2.081689902E-1,1.004949260E0,2.303280682E0
5.051889250E0,2.141090158E0,-6.034012266E-1,1.599895266E0,2.740077548E0
5.061875250E0,1.974041639E0,-9.743926609E-1,2.030876575E0,2.995119549E0
5.071861250E0,1.408304229E0,-1.339268785E0,2.248356745E0,2.971879831E0
5.081847250E0,7.567273539E-1,-1.584282470E0,2.538317245E0,3.086363826E0
5.091833250E0,-3.908571303E-2,-1.834664775E0,2.831528798E0,3.374178102E0
5.101819250E0,-1.150608079E0,-1.937766975E0,3.317783251E0,4.010801105E0
5.111805250E0,-2.240353076E0,-1.877712708E0,3.936363704E0,4.903054775E0
5.121791250E0,-3.120317516E0,-1.922996031E0,4.750332960E0,5.999996531E0
5.131777250E0,-3.929338566E0,-2.136157009E0,5.835149338E0,7.351995385E0
5.141763250E0,-4.078602779E0,-2.256109860E0,6.644533208E0,8.116332539E0
5.151749250E0,-3.596201933E0,-2.201887460E0,6.856948519E0,8.049765197E0
5.161734250E0,-2.813192807E0,-1.906815908E0,6.335563409E0,7.189531583E0
5.171720250E0,-2.054414834E0,-1.634948447E0,5.640682055E0,6.221814107E0
5.181706250E0,-1.590619828E0,-1.521684956E0,5.112908278E0,5.566635213E0
5.191692250E0,-1.471515554E0,-1.807375235E0,4.532222461E0,5.096371621E0
5.201678250E0,-1.603786588E0,-2.294339833E0,3.981425856E0,4.867019472E0
5.211664250E0,-1.686615322E0,-2.729230006E0,3.294704876E0,4.598744164E0
5.221650250E0,-1.656299847E0,-3.025276581E0,2.209648762E0,4.096117091E0
5.231636250E0,-1.534602917E0,-2.955103853E0,1.200569614E0,3.539634486E0
5.241622250E0,-1.570524117E0,-2.940115101E0,4.415057123E-1,3.362402430E0
5.251608250E0,-1.697828235E0,-2.955069355E0,-4.058493912E-2,3.408328438E0
5.261594250E0,-1.853641037E0,-3.052788023E0,-1.397326666E-1,3.574216701E0
5.271580250E0,-1.968765404E0,-3.171208758E0,-1.155006355E-1,3.734426676E0
5.281566250E0,-2.043555678E0,-3.358516710E0,-1.469358516E-1,3.934125626E0
5.291552250E0,-2.205365676E0,-3.543855320E0,-1.736868632E-1,4.177644721E0
5.301538417E0,-2.395122735E0,-3.675493686E0,-4.937704647E-1,4.414711318E0
5.311524417E0,-2.533170818E0,-3.659529033E0,-1.095060115E0,4.583477260E0
5.321510417E0,-2.762259173E0,-3.520943005E0,-1.841329139E0,4.839174349E0
5.331496417E0,-2.858823308E0,-3.385636681E0,-2.651331060E0,5.163812819E0
5.341482417E0,-2.788278990E0,-3.231546761E0,-3.419318397E0,5.468924254E0
5.351468417E0,-2.765332762E0,-3.070865859E0,-4.054614285E0,5.789402336E0
5.361454417E0,-2.614255620E0,-2.930474212E0,-4.528805932E0,5.994338556E0
5.371440417E0,-2.430225909E0,-2.771470876E0,-4.855147809E0,6.095859991E0
5.381426417E0,-2.313452627E0,-2.672757597E0,-4.992949725E0,6.117617443E0
5.391412417E0,-2.364086006E0,-2.749049143E0,-4.825669071E0,6.035996672E0
5.401398417E0,-2.526114106E0,-2.808683726E0,-4.567161913E0,5.926965892E0
5.411384417E0,-2.728799066E0,-2.938491914E0,-4.290059440E0,5.872451708E0
5.421370417E0,-2.850267370E0,-3.022433372E0,-3.993736584E0,5.762730209E0
5.431356417E0,-2.750779334E0,-3.067562183E0,-3.688104376E0,5.529813611E0
5.441342417E0,-2.615008741E0,-3.043352956E0,-3.333553777E0,5.216593593E0
5.451327417E0,-2.470721093E0,-2.883204151E0,-3.010992710E0,4.845968014E0
5.461313417E0,-2.103089104E0,-2.680861546E0,-2.761520669E0,4.385886320E0
5.471299417E0,-1.631815217E0,-2.455354026E0,-2.588170606E0,3.923035990E0
5.481285417E0,-1.137973416E0,-2.325181557E0,-2.515472174E0,3.609577957E0
5.491271417E0,-4.673831499E-1,-2.285472238E0,-2.535878372E0,3.445650806E0
5.501257417E0,1.298491180E-1,-2.244562779E0,-2.403389820E0,3.291079685E0
5.511243417E0,5.319492745E-1,-2.183774979E0,-2.338334284E0,3.243401056E0
5.521229417E0,9.806511551E-1,-2.195703299E0,-2.316425059E0,3.338954135E0
5.531215417E0,1.364855908E0,-2.099792005E0,-2.140589929E0,3.294553590E0
5.541201417E0,1.493036231E0,-1.968156124E0,-1.848845150E0,3.085615677E0
5.551187417E0,1.418124043E0,-1.944928937E0,-1.726227869E0,2.962041024E0
5.561173417E0,1.216587476E0,-2.009233106E0,-1.861777437E0,2.997218375E0
5.571159417E0,9.547526675E-1,-2.077460319E0,-2.146024331E0,3.135731886E0
5.581145417E0,6.969933683E-1,-2.159945675E0,-2.555567116E0,3.417907014E0
5.591131417E0,8.927078623E-1,-2.341657695E0,-2.848319955E0,3.793839039E0
5.601117417E0,1.581829709E0,-2.348613835E0,-2.494439154E0,3.773645302E0
5.611103417E0,2.236036661E0,-2.224365619E0,-1.801612512E0,3.632281652E0
5.621089417E0,2.614191300E0,-2.182653190E0,-1.207885357E0,3.613441315E0
5.631075417E0,2.741119149E0,-2.261040817E0,-1.042238416E0,3.703012380E0
5.641061417E0,2.476927913E0,-2.247562985E0,-1.231819473E0,3.564279797E0
5.651047417E0,2.070140628E0,-2.240445462E0,-1.631332821E0,3.459237613E0
5.661033417E0,1.747640957E0,-2.320973316E0,-2.335879038E0,3.727934673E0
5.671019417E0,1.825200180E0,-2.462967685E0,-3.024315298E0,4.306280128E0
5.681005417E0,2.141342173E0,-2.553953285E0,-3.354749933E0,4.728886846E0
5.690991417E0,2.376518356E0,-2.498922507E0,-3.368463701E0,4.820684692E0
5.700977417E0,2.635192745E0,-2.691286546E0,-3.254022873E0,4.977542459E0
5.710963417E0,2.955852297E0,-2.926893961E0,-2.739352121E0,4.980745035E0
5.720949417E0,2.951583245E0,-2.860089230E0,-2.246508732E0,4.683882528E0
5.730934417E0,2.783579875E0,-3.213259301E0,-1.977863964E0,4.688848272E0
5.740920417E0,2.455261055E0,-3.497309437E0,-1.553333888E0,4.546683001E0
5.750906417E0,2.073427348E0,-3.765616528E0,-1.227220053E0,4.470462824E0
5.760892417E0,1.826851434E0,-3.951157452E0,-8.540975279E-1,4.436047109E0
5.770878417E0,1.650675411E0,-3.875883029E0,-4.432128069E-1,4.235992936E0
5.780864417E0,1.515640397E0,-3.855026595E0,-1.906709781E-1,4.146655433E0
5.790850417E0,1.817872449E0,-4.164336117E0,2.495556557E-1,4.550673968E0
5.800836417E0,2.330773834E0,-4.453669211E0,9.101430899E-1,5.108427992E0
5.810822417E0,2.695722536E0,-4.525820636E0,1.443816708E0,5.462103909E0
5.820808417E0,2.766235279E0,-4.718339042E0,1.582639548E0,5.693814967E0
5.830794417E0,2.453002861E0,-4.950967301E0,1.489315063E0,5.722530874E0
5.840780417E0,1.795118594E0,-4.928948441E0,1.483404843E0,5.451373536E0
5.850766417E0,1.078301411E0,-4.750614796E0,1.834922199E0,5.205575314E0
5.860752417E0,4.851598549E-1,-4.544956527E0,2.722871159E0,5.320341837E0
5.870738417E0,-7.344687581E-2,-4.430917695E0,3.850328065E0,5.870558089E0
5.880724417E0,-5.795923877E-1,-4.351535895E0,4.961212792E0,6.624607487E0
5.890710417E0,-1.268697277E0,-4.306803526E0,5.855314046E0,7.378539962E0
5.900696417E0,-2.305068889E0,-4.143596335E0,6.834256060E0,8.318039978E0
5.910682417E0,-3.229382706E0,-4.095560289E0,7.582675690E0,9.203232985E0
5.920668417E0,-3.771445910E0,-4.227749755E0,7.959597151E0,9.769997905E0
5.930654417E0,-4.179304989E0,-4.307541445E0,8.233871326E0,1.018911873E1
5.940640417E0,-4.478515200E0,-4.162744797E0,8.306274474E0,1.031405538E1
5.950626417E0,-4.416111376E0,-3.974006909E0,8.012572340E0,9.974772484E0
5.960612417E0,-3.998699116E0,-3.429463609E0,7.593205356E0,9.241622305E0
5.970598417E0,-3.103116177E0,-2.452671323E0,6.867875796E0,7.925442863E0
5.980584417E0,-2.072316377E0,-1.682080660E0,6.163486285E0,6.716580506E0
5.990570417E0,-1.312687050E0,-1.040048049E0,5.445897853E0,5.697600430E0
6.000556417E0,-7.566834998E-1,-6.574005555E-1,4.596678658E0,4.704699787E0
6.010542417E0,-3.609720111E-1,-5.366391800E-1,3.700158411E0,3.756255405E0
6.020527417E0,-1.164508080E-1,-5.656580342E-1,2.699364475E0,2.760452566E0
6.030513417E0,1.210899889E-2,-6.295878357E-1,1.637685821E0,1.754577533E0
6.040499417E0,6.445034981E-2,-6.247100153E-1,6.649342543E-1,9.146332671E-1
6.050485417E0,-8.260887802E-2,-4.750673414E-1,-1.079980731E-1,4.941424788E-1
6.060471417E0,-3.739154077E-1,-2.060522982E-1,-6.086992425E-1,7.434951577E-1
6.070457417E0,-6.264794558E-1,1.795826107E-2,-9.138923246E-1,1.108150797E0
6.080443417E0,-8.364535546E-1,1.202331526E-1,-9.983676338E-1,1.307994072E0
6.090429417E0,-1.098214104E0,2.023361003E-1,-9.051513219E-1,1.437467575E0
6.100415417E0,-1.343868497E0,2.190400605E-1,-7.414626127E-1,1.550396043E0
6.110401417E0,-1.457399206E0,1.917456964E-1,-4.841593963E-1,1.547639873E0
6.120387417E0,-1.352527639E0,-8.776436806E-2,-2.948949659E-1,1.387082059E0
6.130373417E0,-1.230196871E0,-4.145420082E-1,-2.206376660E-1,1.316780314E0
6.140359417E0,-1.113606314E0,-5.027024520E-1,-1.482032356E-1,1.230769262E0
6.150345417E0,-7.156173348E-1,-6.159699628E-1,-2.084444672E-2,9.444372165E-1
6.160331417E0,-2.622675025E-1,-6.294859479E-1,1.024022877E-1,6.895817791E-1
6.170317417E0,-3.163928390E-3,-5.612476987E-1,1.426393175E-1,5.790984067E-1
6.180303417E0,1.800346005E-1,-6.016356598E-1,1.777138406E-1,6.526562140E-1
6.190289417E0,4.148365617E-1,-7.057242114E-1,2.796670622E-1,8.650720786E-1
6.200275417E0,4.897931886E-1,-7.922172486E-1,3.116063082E-1,9.821425700E-1
6.210261417E0,4.731508434E-1,-7.849645085E-1,2.784844628E-1,9.579115806E-1
6.220247417E0,3.785738844E-1,-7.985171118E-1,5.890017271E-2,8.856731870E-1
6.230233417E0,1.655867153E-1,-8.941838457E-1,-1.817905194E-1,9.273788347E-1
6.240219417E0,-9.079731882E-2,-8.847413233E-1,-3.599829546E-1,9.594785510E-1
6.250205417E0,-2.478494382E-1,-7.963947187E-1,-5.942127657E-1,1.024091159E0
6.260191417E0,-2.834788620E-1,-7.073125345E-1,-7.482892370E-1,1.067983178E0
6.270177417E0,-2.001355737E-1,-5.794151440E-1,-8.350908610E-1,1.035930935E0
6.280163417E0,6.286926270E-2,-5.623553076E-1,-7.727054554E-1,9.577420096E-1
6.290149417E0,3.990198433E-1,-6.592412589E-1,-6.820806295E-1,1.029101481E0
6.300135417E0,6.561768794E-1,-6.830246624E-1,-6.325935969E-1,1.138975612E0
6.310120917E0,8.244270015E-1,-6.433333240E-1,-6.368851608E-1,1.224410207E0
6.320105917E0,9.809382534E-1,-6.570398553E-1,-6.990369701E-1,1.372076497E0
6.330091917E0,1.165759385E0,-6.914301811E-1,-7.789713317E-1,1.563287233E0
6.340077917E0,1.356200275E0,-6.481713834E-1,-8.412699062E-1,1.722538935E0
6.350063917E0,1.525037457E0,-6.075218325E-1,-7.578593749E-1,1.808085412E0
6.360049917E0,1.732758624E0,-6.525001502E-1,-6.087998146E-1,1.949062880E0
6.370035917E0,1.906222124E0,-8.068447895E-1,-4.560477376E-1,2.119589780E0
6.380021917E0,1.979631577E0,-8.358343345E-1,-4.055412430E-1,2.186783921E0
6.390007917E0,1.961636771E0,-9.130945451E-1,-2.610612220E-1,2.179429611E0
6.399993917E0,1.814630168E0,-9.445164587E-1,8.978984356E-3,2.045745490E0
6.409979917E0,1.737728757E0,-9.333050805E-1,4.555220729E-1,2.024415957E0
6.419965917E0,1.729457871E0,-1.217970416E0,9.741250777E-1,2.328818612E0
6.429951917E0,1.728145171E0,-1.560505206E0,1.486142948E0,2.762296706E0
6.439937917E0,1.588116635E0,-1.891289650E0,2.049202918E0,3.209100121E0
6.449923917E0,1.171639345E0,-2.049014346E0,2.562289660E0,3.483751835E0
6.459909917E0,4.182086509E-1,-2.269464608E0,2.963291709E0,3.755857537E0
6.469895917E0,-7.481255150E-1,-2.496948779E0,3.265289873E0,4.178105186E0
6.479881917E0,-1.836655168E0,-2.528566428E0,3.631814400E0,4.791349103E0
6.489867917E0,-2.460678501E0,-2.141541709E0,4.055645149E0,5.204747559E0
6.499853917E0,-2.550879111E0,-1.536305919E0,4.584105390E0,5.466373783E0
6.509839917E0,-2.407653025E0,-9.628624633E-1,5.230752477E0,5.838207661E0
6.519825917E0,-2.335772619E0,-6.215888447E-1,5.628609894E0,6.125639212E0
6.529811917E0,-2.476794012E0,-4.113019198E-1,5.565609069E0,6.105708980E0
6.539797917E0,-2.697417352E0,-3.657070863E-1,5.137972367E0,5.814513057E0
6.549783917E0,-2.903203675E0,-5.455329412E-1,4.523071568E0,5.402256397E0
6.559769917E0,-3.073283683E0,-8.847562337E-1,3.909095798E0,5.050633242E0
6.569755917E0,-3.144261280E0,-1.274200384E0,3.378321229E0,4.787799071E0
6.579741917E0,-3.174144645E0,-1.633061258E0,2.738793712E0,4.499230411E0
6.589727917E0,-3.146221851E0,-1.925996237E0,1.882422202E0,4.141459500E0
6.599713917E0,-3.130149025E0,-2.128980575E0,1.044833118E0,3.927094021E0
6.609699917E0,-3.126933641E0,-2.175537860E0,2.356568241E-1,3.816570858E0
6.619684917E0,-3.055112876E0,-2.151663094E0,-3.896175206E-1,3.757016178E0
6.629670917E0,-2.969274873E0,-2.104846777E0,-9.219585586E-1,3.754594626E0
6.639656917E0,-2.814863064E0,-2.015664459E0,-1.389009002E0,3.730375757E0
6.649642917E0,-2.620037931E0,-1.983864377E0,-1.770060351E0,3.732751033E0
6.659628917E0,-2.535936259E0,-1.987251669E0,-1.970871863E0,3.776834363E0
6.669614917E0,-2.538610775E0,-2.033694933E0,-2.046788018E0,3.843149872E0
6.679600917E0,-2.597282907E0,-2.147863573E0,-2.045790483E0,3.942645701E0
6.689586917E0,-2.624733830E0,-2.272975861E0,-2.060840632E0,4.037661583E0
6.699572917E0,-2.627120079E0,-2.398017983E0,-2.127496551E0,4.144694408E0
6.709558917E0,-2.685717366E0,-2.506085638E0,-2.272798691E0,4.319624623E0
6.719544917E0,-2.711355652E0,-2.611491056E0,-2.386238183E0,4.457069404E0
6.729530917E0,-2.733748734E0,-2.763370144E0,-2.522086544E0,4.633628948E0
6.739516917E0,-2.746778377E0,-2.867134248E0,-2.638240898E0,4.767133865E0
6.749502917E0,-2.692428508E0,-3.003136976E0,-2.825411441E0,4.924525639E0
6.759488917E0,-2.765703475E0,-3.290531718E0,-3.195463008E0,5.356089855E0
6.769474917E0,-3.036145970E0,-3.627996753E0,-3.650415562E0,5.975456181E0
6.779460917E0,-3.014795447E0,-3.864980895E0,-4.140004683E0,6.416128714E0
6.789446917E0,-2.410321987E0,-3.953309519E0,-4.533216487E0,6.479842587E0
6.799432917E0,-1.234803599E0,-3.523891171E0,-4.678042079E0,5.985534780E0
6.809418917E0,3.012634608E-1,-2.729605982E0,-4.597488497E0,5.355222588E0
6.819404917E0,1.668222320E0,-1.739280024E0,-4.293313415E0,4.923474463E0
6.829390917E0,2.273659401E0,-9.001525372E-1,-3.963610559E0,4.657253517E0
6.839376917E0,1.959573289E0,-5.287786219E-1,-3.677613886E0,4.200521182E0
6.849362917E0,8.434216815E-1,-5.996006826E-1,-3.208038615E0,3.370814867E0
6.859348917E0,-8.522848910E-1,-1.067327064E0,-2.561150038E0,2.902596443E0
6.869334917E0,-2.548345220E0,-1.713219568E0,-1.913908288E0,3.618318613E0
6.879320917E0,-3.821705067E0,-2.174824499E0,-1.265952594E0,4.575797984E0
6.889306917E0,-4.474888757E0,-2.367418334E0,-8.657644773E-1,5.136034179E0
6.899292917E0,-4.323424821E0,-2.524506414E0,-8.730886996E-1,5.082068349E0
6.909278917E0,-3.404879283E0,-2.804657918E0,-1.105716666E0,4.547737714E0
6.919263917E0,-2.061007862E0,-2.778920229E0,-1.440812409E0,3.747811554E0
6.929250917E0,-7.886139750E-1,-2.323967967E0,-1.910519827E0,3.110116577E0
6.939235917E0,1.938942558E-1,-1.928061035E0,-2.430368289E0,3.108328226E0
6.949221917E0,9.357287514E-1,-1.754174344E0,-2.927780399E0,3.539013138E0
6.959207917E0,1.381888263E0,-1.680273432E0,-3.370774813E0,4.011864506E0
6.969193917E0,1.646171885E0,-1.817573072E0,-3.577707775E0,4.337447022E0
6.979179917E0,2.015397241E0,-2.104435717E0,-3.235158586E0,4.353932338E0
6.989165917E0,2.623186072E0,-2.399546884E0,-2.647699354E0,4.432746585E0
6.999151917E0,3.117809646E0,-2.476282088E0,-2.215269105E0,4.556328256E0
7.009137917E0,3.472481282E0,-2.597896864E0,-1.974884223E0,4.765224241E0
7.019123917E0,3.784150155E0,-2.737509955E0,-1.937374919E0,5.056399384E0
7.029109917E0,3.897162800E0,-2.791888769E0,-2.268981628E0,5.303847511E0
7.039095917E0,3.904324470E0,-2.849257263E0,-2.712424523E0,5.542496127E0
7.049081917E0,4.021914316E0,-2.818493892E0,-2.742189482E0,5.624882731E0
7.059067917E0,4.148117110E0,-2.745777626E0,-2.268322940E0,5.467308231E0
7.069053917E0,4.086876297E0,-2.806924007E0,-1.545785133E0,5.193344965E0
7.079039917E0,3.714046133E0,-2.789619464E0,-1.012201854E0,4.754015989E0
7.089025917E0,3.275714874E0,-2.850214452E0,-7.926193178E-1,4.413873100E0
7.099011917E0,2.809818086E0,-3.083418077E0,-8.630700803E-1,4.259980596E0
7.108997917E0,2.319217397E0,-3.322497277E0,-1.072287257E0,4.191367014E0
7.118983917E0,1.910736174E0,-3.316262391E0,-1.151868447E0,3.996912545E0
7.128969917E0,1.656301017E0,-3.336607777E0,-1.114544500E0,3.888250759E0
7.138955917E0,1.903991995E0,-3.595845838E0,-9.122615361E-1,4.169833800E0
7.148941917E0,2.638364275E0,-3.709807486E0,-3.382874456E-1,4.564874152E0
7.158927917E0,3.530638273E0,-3.649326811E0,3.823845148E-1,5.092073321E0
7.168913917E0,4.143216559E0,-3.698903598E0,9.181853503E-1,5.629493371E0
7.178899917E0,4.171289041E0,-3.927380626E0,1.253770505E0,5.864802753E0
7.188885917E0,3.790037132E0,-4.114547660E0,1.462321392E0,5.782064317E0
7.198871917E0,3.316421435E0,-4.376611680E0,1.501967707E0,5.692915591E0
7.208857917E0,2.840290266E0,-4.733644714E0,1.467823475E0,5.712192821E0
7.218843917E0,2.101097542E0,-4.739833992E0,1.709398413E0,5.459183097E0
7.228829917E0,1.371915836E0,-4.765114429E0,2.125271247E0,5.394927845E0
7.238814917E0,4.524014139E-1,-4.555607815E0,2.411575484E0,5.174352705E0
7.248800917E0,-6.720158172E-1,-4.291108430E0,2.721731829E0,5.125723458E0
7.258786917E0,-1.822885852E0,-4.154892279E0,3.016872085E0,5.448629172E0
7.268772917E0,-3.127920651E0,-4.004049025E0,3.325333761E0,6.072408156E0
7.278758917E0,-4.358296446E0,-4.053968167E0,3.613002738E0,6.962987476E0
7.288744917E0,-5.357210210E0,-4.011287001E0,3.924609046E0,7.758394216E0
7.298730917E0,-6.008802872E0,-3.757170517E0,4.231452797E0,8.253922403E0
7.308717750E0,-6.152664843E0,-3.425601815E0,4.534557838E0,8.375693837E0
7.318703750E0,-5.849008994E0,-3.022800577E0,4.742225795E0,8.113996243E0
7.328689750E0,-5.339639912E0,-2.731802488E0,4.977500796E0,7.794229494E0
7.338675750E0,-4.775432133E0,-2.449063738E0,5.423843910E0,7.630252159E0
7.348661750E0,-4.044515558E0,-2.005036121E0,5.727790951E0,7.292863986E0
7.358647750E0,-3.104485011E0,-1.590287122E0,5.810975779E0,6.777483295E0
7.368633750E0,-2.036647192E0,-1.390781731E0,5.795456100E0,6.298374156E0
7.378619750E0,-9.307001460E-1,-1.296101277E0,5.555666463E0,5.780269123E0
7.388605750E0,-5.738457441E-2,-1.175423370E0,5.204238278E0,5.335635777E0
7.398591750E0,4.386598724E-1,-1.153388138E0,4.723895359E0,4.882408631E0
7.408577750E0,4.843763280E-1,-1.045981219E0,4.074084636E0,4.234012607E0
7.418563750E0,2.173591322E-1,-1.006401123E0,3.255743709E0,3.414667672E0
7.428549750E0,-2.085023546E-1,-9.826555075E-1,2.269605234E0,2.481973609E0
7.438535750E0,-6.902047509E-1,-8.018287555E-1,1.336990417E0,1.704950242E0
7.448521750E0,-1.092175099E0,-5.047740474E-1,4.739469418E-1,1.293162399E0
7.458507750E0,-1.271084695E0,-2.546790592E-1,-2.836718202E-1,1.327022015E0
7.468493750E0,-1.334569670E0,-7.662176773E-2,-8.367067391E-1,1.577030522E0
7.478479750E0,-1.304063576E0,1.234918059E-1,-1.187813328E0,1.768256921E0
7.488465750E0,-1.122304632E0,1.509026758E-1,-1.287856264E0,1.714909053E0
7.498451750E0,-8.536999172E-1,1.286890304E-1,-1.077736570E0,1.380898450E0
7.508437750E0,-3.967458612E-1,-6.105457932E-2,-8.595623356E-1,9.486739950E-1
7.518423750E0,2.707108819E-1,-4.495409560E-1,-6.175612825E-1,8.104032270E-1
7.528409750E0,6.759755516E-1,-5.304683210E-1,-3.039707217E-1,9.114481804E-1
7.538395750E0,8.384480399E-1,-4.376520317E-1,-2.227730691E-2,9.460606190E-1
7.548380750E0,8.955297285E-1,-5.215998490E-1,2.085646275E-1,1.057137220E0
7.558366750E0,7.504895443E-1,-5.580255906E-1,5.160641438E-1,1.068152291E0
7.568352750E0,4.021978050E-1,-6.504231461E-1,7.069830438E-1,1.041459729E0
7.578338750E0,2.274566889E-3,-7.657421525E-1,7.041567922E-1,1.040289866E0
7.588324750E0,-3.840392768E-1,-8.258529912E-1,5.721851349E-1,1.075599906E0
7.598310750E0,-6.064948422E-1,-9.656993131E-1,4.148707679E-1,1.213478022E0
7.608296750E0,-5.922036624E-1,-1.054578014E0,3.385090551E-1,1.255957143E0
7.618282750E0,-3.963453269E-1,-1.062079115E0,3.467200077E-1,1.185460429E0
7.628268750E0,-4.157019496E-2,-9.674047997E-1,3.733263007E-1,1.037772930E0
7.638254750E0,4.489153039E-1,-8.733956053E-1,3.562059456E-1,1.044618356E0
7.648240750E0,9.602016878E-1,-8.411513539E-1,3.066268194E-1,1.312837723E0
7.658226750E0,1.309502072E0,-8.191343942E-1,3.189451486E-1,1.577181930E0
7.668212750E0,1.495445868E0,-7.248579821E-1,4.361771446E-1,1.718146659E0
7.678198750E0,1.620730065E0,-5.473452857E-1,5.355260164E-1,1.792523618E0
7.688184750E0,1.647885704E0,-4.736336772E-1,5.022881037E-1,1.786658751E0
7.698170750E0,1.647313846E0,-4.806251199E-1,4.993516320E-1,1.787175276E0
7.708156750E0,1.679270634E0,-5.140191532E-1,5.093234736E-1,1.828544764E0
7.718142750E0,1.681802478E0,-6.473936306E-1,4.576177150E-1,1.859298809E0
7.728128750E0,1.657971566E0,-6.918079112E-1,4.649495387E-1,1.855706328E0
7.738114750E0,1.648686773E0,-6.856292316E-1,5.806133115E-1,1.877596159E0
7.748100750E0,1.850726784E0,-6.857170129E-1,8.243188280E-1,2.138901349E0
7.758086750E0,2.130486817E0,-7.886593641E-1,1.132721447E0,2.538506558E0
7.768072750E0,2.233562704E0,-9.412649683E-1,1.440503676E0,2.819544810E0
7.778058750E0,2.254536082E0,-1.117953573E0,1.544875891E0,2.952862112E0
7.788044750E0,2.263076525E0,-1.480690420E0,1.534597070E0,3.109493149E0
7.798030750E0,2.028436532E0,-1.861102522E0,1.569942904E0,3.169065806E0
7.808016750E0,1.492888296E0,-2.257598854E0,1.458973861E0,3.074747595E0
7.818002750E0,4.806855655E-1,-2.832311740E0,1.178056079E0,3.104974159E0
7.827988750E0,-7.127603853E-1,-3.184432528E0,1.107617011E0,3.446077965E0
7.837974750E0,-1.349554622E0,-3.027481858E0,1.414872406E0,3.603998891E0
7.847960750E0,-1.300294169E0,-2.537114181E0,2.009844140E0,3.488149475E0
7.857946750E0,-1.114320551E0,-1.875154113E0,2.770762779E0,3.526335153E0
7.867932750E0,-1.085554882E0,-1.225802980E0,3.455266494E0,3.823596330E0
7.877917750E0,-1.422754599E0,-9.951510805E-1,3.778061450E0,4.157920711E0
7.887903750E0,-2.123737669E0,-9.430333856E-1,4.133011998E0,4.741451447E0
7.897889750E0,-2.869455008E0,-9.687739983E-1,4.468891268E0,5.398452025E0
7.907875750E0,-3.640930209E0,-1.313981039E0,4.588998924E0,6.003484829E0
7.917861750E0,-4.163516337E0,-1.724331617E0,4.788957328E0,6.575887780E0
7.927847750E0,-4.445131984E0,-2.281777383E0,4.795572867E0,6.925548751E0
7.937833750E0,-4.648138248E0,-2.825793264E0,4.382426151E0,6.985410204E0
7.947819750E0,-4.361199004E0,-3.325273535E0,3.538132065E0,6.526551872E0
7.957805750E0,-3.664285743E0,-3.640218018E0,2.459368140E0,5.720722758E0
7.967791750E0,-3.060378293E0,-3.902190821E0,1.407828265E0,5.155093494E0
7.977777750E0,-2.741221476E0,-4.057702199E0,5.374614447E-1,4.926267057E0
7.987763750E0,-2.468330459E0,-3.980769798E0,-9.425126910E-2,4.684876385E0
7.997749750E0,-2.239787358E0,-3.690015830E0,-2.443890560E-1,4.323492830E0
8.007735750E0,-2.534091462E0,-3.454269544E0,-6.225273228E-1,4.329103590E0
8.017721750E0,-2.945657092E0,-3.389069581E0,-1.132910897E0,4.631001558E0
8.027707750E0,-3.537049453E0,-3.311120349E0,-1.464936851E0,5.061647635E0
8.037693750E0,-4.124080961E0,-3.374015340E0,-1.798933318E0,5.623894057E0
8.047679750E0,-4.640115868E0,-3.560951409E0,-2.294407661E0,6.282941725E0
8.057665750E0,-4.931910056E0,-3.741958401E0,-2.908063003E0,6.839796774E0
8.067651750E0,-4.739710908E0,-3.853636712E0,-3.297934293E0,6.942027514E0
8.077637750E0,-4.051762305E0,-3.841475088E0,-3.457717062E0,6.567306595E0
8.087623750E0,-3.084719667E0,-3.735797190E0,-3.386267595E0,5.910878471E0
8.097609750E0,-2.232667788E0,-3.725410781E0,-3.069130406E0,5.318181304E0
8.107595750E0,-1.684470563E0,-3.631474092E0,-2.524988225E0,4.732928342E0
8.117581750E0,-1.400850491E0,-3.564476695E0,-2.104769593E0,4.370117990E0
8.127567750E0,-1.622125503E0,-3.600313110E0,-1.791074952E0,4.336069087E0
8.137553750E0,-2.126374471E0,-3.717121768E0,-1.703252404E0,4.608636608E0
8.147539750E0,-2.639864085E0,-3.817662887E0,-1.657383629E0,4.928524404E0
8.157525750E0,-2.954700980E0,-3.858379388E0,-1.525684159E0,5.093629506E0
8.167511750E0,-3.057121979E0,-3.840500942E0,-1.500706316E0,5.132987602E0
8.177497750E0,-3.087942068E0,-3.731970772E0,-1.515971349E0,5.075545408E0
8.187483750E0,-3.020227218E0,-3.552393424E0,-1.527618418E0,4.906616912E0
8.197468750E0,-2.915923415E0,-3.310007624E0,-1.717773087E0,4.733867786E0
8.207454750E0,-2.665773683E0,-2.947829917E0,-1.976272936E0,4.438660301E0
8.217440750E0,-2.326327611E0,-2.662636067E0,-2.165242082E0,4.146046822E0
8.227426750E0,-1.873930875E0,-2.733155826E0,-2.471875919E0,4.134238534E0
8.237412750E0,-1.231871513E0,-3.026668510E0,-2.812206089E0,4.311233325E0
8.247398750E0,-5.493692994E-1,-3.139445221E0,-3.179544256E0,4.501935650E0
8.257384750E0,1.299403346E-1,-2.873298090E0,-3.497649744E0,4.528386042E0
8.267370750E0,8.681530648E-1,-2.393652745E0,-3.583442431E0,4.395943911E0
8.277356750E0,1.457859381E0,-1.940842610E0,-3.521369267E0,4.276945818E0
8.287342750E0,1.521953051E0,-1.325858488E0,-3.042094050E0,3.650832512E0
8.297328750E0,1.044236702E0,-1.033592942E0,-2.384390463E0,2.800725359E0
8.307313792E0,6.581742883E-1,-1.236439358E0,-1.964790174E0,2.412960031E0
8.317299792E0,4.102511752E-1,-1.422848008E0,-1.669311072E0,2.231457357E0
8.327285792E0,3.174359822E-1,-1.400115203E0,-1.261271313E0,1.910992808E0
8.337271792E0,3.491951340E-1,-1.243610091E0,-9.040184239E-1,1.576626973E0
8.347257792E0,3.293602091E-1,-1.218497396E0,-8.014974377E-1,1.495196373E0
8.357243792E0,2.962088352E-1,-1.423776400E0,-7.430901852E-1,1.633114183E0
8.367229792E0,3.263752055E-1,-1.683461918E0,-8.435283932E-1,1.911048130E0
8.377215792E0,4.362169057E-1,-1.952043829E0,-1.055972941E0,2.261822086E0
8.387201792E0,1.034318655E0,-2.345004495E0,-1.346126107E0,2.894981288E0
8.397187792E0,2.170663621E0,-2.555075950E0,-1.463458675E0,3.658128614E0
8.407173792E0,3.190236767E0,-2.388815051E0,-1.272206776E0,4.183605868E0
8.417159792E0,3.826682802E0,-2.039302121E0,-1.134534084E0,4.482122487E0
8.427145792E0,3.997298123E0,-1.862055472E0,-1.227929320E0,4.577494214E0
8.437131792E0,3.854464093E0,-1.928657305E0,-1.553487670E0,4.581477533E0
8.447117792E0,4.004287884E0,-2.316377112E0,-1.889152639E0,4.996881235E0
8.457103792E0,4.403726388E0,-2.415705518E0,-1.848840180E0,5.352256465E0
8.467089792E0,4.568298612E0,-2.261258626E0,-1.506993242E0,5.315418272E0
8.477075792E0,4.305122452E0,-2.161564476E0,-1.065762934E0,4.933790727E0
8.487061792E0,3.405593228E0,-2.180814095E0,-8.812271467E-1,4.138910078E0
8.497047792E0,2.421403922E0,-2.648726710E0,-1.193978632E0,3.782133672E0
8.507033792E0,1.932943314E0,-2.952684860E0,-1.313331413E0,3.765561995E0
8.517018792E0,1.844590132E0,-2.784400824E0,-1.342387105E0,3.599639405E0
8.527004792E0,2.092616740E0,-2.840159873E0,-1.447844563E0,3.813372104E0
8.536990792E0,2.776049246E0,-3.201857231E0,-1.356826804E0,4.449642471E0
8.546976792E0,3.371877598E0,-3.440492919E0,-1.069534388E0,4.934617905E0
8.556962792E0,3.815912231E0,-3.464770266E0,-6.958669022E-1,5.200966246E0
8.566948792E0,3.666327590E0,-3.506233457E0,-5.137726200E-1,5.098979639E0
8.576934792E0,2.776346869E0,-3.767098213E0,-6.245577684E-1,4.721144277E0
8.586920792E0,1.533340504E0,-4.182506632E0,-8.165952408E-1,4.528942770E0
8.596906792E0,2.465841007E-1,-4.761928573E0,-9.046622023E-1,4.853368022E0
8.606892792E0,-1.016568262E0,-5.130898991E0,-3.367431960E-1,5.241462722E0
8.616878792E0,-2.174153824E0,-5.299891709E0,9.021019989E-1,5.799102085E0
8.626864792E0,-3.123573246E0,-5.441931102E0,2.344551044E0,6.698376187E0
8.636850792E0,-3.855544074E0,-5.419849677E0,3.951132309E0,7.736371058E0
8.646836792E0,-4.575545651E0,-5.108298333E0,5.447823341E0,8.758373651E0
8.656822792E0,-5.495572874E0,-4.827168005E0,6.684977814E0,9.909177591E0
8.666808792E0,-6.369512928E0,-4.598824001E0,7.677326324E0,1.098458996E1
8.676794792E0,-6.899246693E0,-4.142988810E0,8.796670511E0,1.192247345E1
8.686780792E0,-6.946612063E0,-3.593561330E0,1.005279277E1,1.273686557E1
8.696766792E0,-6.302500328E0,-3.013913102E0,1.098641067E1,1.301946243E1
8.706752792E0,-5.126273843E0,-2.201123521E0,1.111838350E1,1.243953697E1
8.716738792E0,-3.638270895E0,-1.690147917E0,1.034681767E1,1.109730827E1
8.726724792E0,-2.108933396E0,-1.324455449E0,8.931824223E0,9.272500539E0
8.736710792E0,-8.753176582E-1,-9.025250450E-1,7.197696766E0,7.306679902E0
8.746696792E0,1.144744492E-1,-6.880500519E-1,5.360563588E0,5.405752423E0
8.756682792E0,7.946336836E-1,-3.549825619E-1,3.624452755E0,3.727480796E0
8.766668792E0,1.238723865E0,1.572889316E-1,1.981026430E0,2.341717818E0
8.776654792E0,1.300312003E0,5.868274400E-1,5.511842752E-1,1.529373027E0
8.786640792E0,1.012036670E0,8.674065216E-1,-4.892622614E-1,1.419855575E0
8.796626792E0,5.565233678E-1,9.435760072E-1,-1.088601866E0,1.544379475E0
8.806612792E0,-3.806595862E-2,7.034752992E-1,-1.239975754E0,1.426136874E0
8.816598792E0,-8.316214156E-1,1.448440102E-1,-1.081059835E0,1.371591897E0
8.826584792E0,-1.610016212E0,-3.583701463E-1,-8.052110043E-1,1.835468912E0
8.836569792E0,-2.130113765E0,-6.201039442E-1,-5.478256345E-1,2.285175372E0
8.846555792E0,-2.248992337E0,-7.541148180E-1,-3.254092455E-1,2.394273766E0
8.856541792E0,-2.127245706E0,-8.522207178E-1,-1.708272824E-1,2.297963534E0
8.866527792E0,-1.810107347E0,-8.341367416E-1,-7.247974634E-2,1.994373592E0
8.876513792E0,-1.248684597E0,-6.676438540E-1,8.580788970E-3,1.415992644E0
8.886499792E0,-6.740336913E-1,-4.515021122E-1,1.242621034E-1,8.207415212E-1
8.896485792E0,-1.490373409E-1,-3.606015900E-1,4.307950750E-1,5.812314791E-1
8.906471792E0,3.736008275E-1,-4.065158276E-1,8.180833572E-1,9.869615371E-1
8.916457792E0,6.765123260E-1,-4.594737674E-1,1.131298819E0,1.395930546E0
8.926443792E0,7.692678773E-1,-5.578878155E-1,1.300890877E0,1.611002469E0
8.936429792E0,7.378958112E-1,-7.033884680E-1,1.247035682E0,1.610696606E0
8.946415792E0,5.530887133E-1,-7.936149524E-1,9.894529688E-1,1.383744556E0
8.956401792E0,3.916213614E-1,-8.671464667E-1,6.857708073E-1,1.172856294E0
8.966387792E0,3.501330274E-1,-1.015657412E0,4.405935466E-1,1.161152784E0
8.976373792E0,3.902156907E-1,-1.005114151E0,1.744300443E-1,1.092221856E0
8.986359792E0,3.972130537E-1,-9.189858341E-1,-1.917623609E-1,1.019355667E0
8.996345792E0,4.027445197E-1,-8.332139048E-1,-5.522589934E-1,1.077700587E0
9.006331792E0,5.334818298E-1,-7.877673713E-1,-8.737728238E-1,1.291765939E0
9.016317792E0,7.709881282E-1,-6.951753958E-1,-1.123116226E0,1.529405630E0
9.026303792E0,9.841203082E-1,-5.533838515E-1,-1.320666161E0,1.737494051E0
9.036289792E0,1.180866836E0,-4.934310338E-1,-1.405330335E0,1.900756170E0
9.046275792E0,1.463582051E0,-5.289131078E-1,-1.395160273E0,2.090046335E0
9.056261792E0,1.757503456E0,-5.611205218E-1,-1.306941576E0,2.260922582E0
9.066247792E0,1.960200695E0,-5.721956233E-1,-1.212401454E0,2.374807757E0
9.076233792E0,2.060406184E0,-7.418776189E-1,-1.018680276E0,2.415236127E0
9.086219792E0,2.039926311E0,-1.060946290E0,-7.091175699E-1,2.406190789E0
9.096205792E0,1.791163538E0,-1.190181889E0,-1.290445411E-1,2.154402989E0
9.106191792E0,1.507672981E0,-1.356643786E0,3.771068180E-1,2.062951704E0
9.116177792E0,1.220170650E0,-1.612854743E0,7.109471637E-1,2.143726360E0
9.126163792E0,7.433296287E-1,-1.653461024E0,1.016508036E0,2.078403445E0
9.136149792E0,3.931626874E-1,-1.677548483E0,1.131457863E0,2.061296366E0
9.146135792E0,3.024536616E-1,-1.686273260E0,1.208528844E0,2.096553765E0
9.156121792E0,2.692993641E-1,-1.387194903E0,1.450795945E0,2.025250780E0
9.166107792E0,2.938313574E-1,-1.368076847E0,1.596046629E0,2.122577671E0
9.176092792E0,2.421513265E-1,-1.368518019E0,1.889317823E0,2.345421214E0
9.186078792E0,2.224596584E-1,-1.330248431E0,2.305660043E0,2.671164057E0
9.196064792E0,7.969170213E-3,-1.407217524E0,2.622068084E0,2.975830255E0
9.206050792E0,-4.950691313E-1,-1.609670934E0,2.876526631E0,3.333247578E0
9.216036792E0,-1.170508493E0,-1.726136652E0,3.365562605E0,3.959374890E0
9.226022792E0,-1.967754713E0,-1.988048059E0,3.885206414E0,4.787402487E0
9.236008792E0,-2.699848039E0,-2.318285497E0,4.175924714E0,5.486526615E0
9.245994792E0,-3.346022087E0,-2.606068348E0,4.359482846E0,6.082149844E0
9.255980792E0,-3.710849752E0,-2.586834517E0,4.621946815E0,6.467187261E0
9.265966792E0,-3.652221183E0,-2.410991786E0,4.798506415E0,6.494402573E0
9.275952792E0,-3.346572602E0,-2.344665941E0,4.764437029E0,6.276692342E0
9.285938792E0,-3.055612520E0,-2.278514636E0,4.517347729E0,5.910569120E0
9.295924792E0,-2.739209741E0,-2.186647277E0,4.057033862E0,5.361363640E0
9.305911125E0,-2.430330574E0,-2.119073929E0,3.368643503E0,4.663125568E0
9.315897125E0,-2.284153107E0,-1.895063005E0,2.614556751E0,3.955316196E0
9.325883125E0,-2.161257059E0,-1.632047936E0,1.910594087E0,3.314360014E0
9.335869125E0,-2.028951818E0,-1.465009064E0,1.331850130E0,2.834911252E0
9.345855125E0,-2.158944485E0,-1.355137251E0,1.057321601E0,2.759595482E0
9.355841125E0,-2.241597802E0,-1.382753066E0,1.095348968E0,2.852464918E0
9.365827125E0,-2.550543481E0,-1.453503790E0,1.300709029E0,3.210886061E0
9.375813125E0,-3.050551755E0,-1.593970283E0,1.361358104E0,3.701338023E0
9.385799125E0,-3.388687758E0,-1.736480377E0,9.365397602E-1,3.921182926E0
9.395785125E0,-3.409805854E0,-1.956311712E0,2.458964682E-1,3.938831876E0
9.405771125E0,-3.273234777E0,-2.089235296E0,-2.411812735E-1,3.890647560E0
9.415757125E0,-2.931153073E0,-2.187279069E0,-5.189953530E-1,3.693941559E0
9.425743125E0,-2.536991681E0,-2.370626702E0,-3.545938683E-1,3.490262821E0
9.435729125E0,-2.368885547E0,-2.686499138E0,1.549020982E-1,3.585092888E0
9.445715125E0,-2.520341150E0,-3.102648985E0,6.087653160E-1,4.043407653E0
9.455701125E0,-2.733665704E0,-3.459175358E0,8.228026450E-1,4.485067059E0
9.465687125E0,-2.898794290E0,-3.690087751E0,8.432871956E-1,4.767692234E0
9.475673125E0,-3.193471154E0,-3.928302147E0,5.434150797E-1,5.091671211E0
9.485658125E0,-3.547320672E0,-4.095720795E0,6.307976246E-3,5.418344080E0
9.495645125E0,-3.829235111E0,-4.256598748E0,-5.346600437E-1,5.750437879E0
9.505630125E0,-3.947063231E0,-4.432832074E0,-1.184552336E0,6.052476566E0
9.515616125E0,-3.976235575E0,-4.444134741E0,-2.045625592E0,6.304392676E0
9.525602125E0,-3.950240316E0,-4.345566473E0,-2.955023746E0,6.574230895E0
9.535588125E0,-3.775590124E0,-4.134895386E0,-3.749862083E0,6.738984069E0
9.545574125E0,-3.362912062E0,-3.732544969E0,-4.422012970E0,6.692926728E0
9.555560125E0,-3.008870755E0,-3.261716055E0,-4.861525952E0,6.582289072E0
9.565546125E0,-2.832477801E0,-3.001309721E0,-4.953469909E0,6.447298246E0
9.575532125E0,-2.668897265E0,-2.858143569E0,-4.674734893E0,6.094681583E0
9.585518125E0,-2.529741134E0,-2.789424752E0,-4.232632765E0,5.665303238E0
9.595504125E0,-2.500399806E0,-2.728146517E0,-3.566160108E0,5.139287939E0
9.605490125E0,-2.470250977E0,-2.690457703E0,-2.819477102E0,4.614125450E0
9.615476125E0,-2.498005371E0,-2.580175708E0,-1.835431053E0,4.033130877E0
9.625462125E0,-2.312169748E0,-2.392593521E0,-1.044260968E0,3.487278835E0
9.635448125E0,-1.816136411E0,-2.178346862E0,-5.990931442E-1,2.898699555E0
9.645434125E0,-1.212870986E0,-1.851917570E0,-2.422314334E-1,2.226955496E0
9.655420125E0,-5.839251745E-1,-1.541098005E0,-6.925325274E-2,1.649468909E0
9.665406125E0,-3.773383677E-2,-1.347300228E0,-1.020450228E-1,1.351685960E0
9.675392125E0,4.900475425E-1,-1.413974566E0,-4.219160780E-1,1.554825985E0
9.685378125E0,1.116175581E0,-1.480239307E0,-7.918164951E-1,2.015919069E0
9.695364125E0,1.791936539E0,-1.446595159E0,-1.192140560E0,2.593236054E0
9.705350125E0,2.516099580E0,-1.332534400E0,-1.664633299E0,3.298091728E0
9.715336125E0,3.117864025E0,-1.090428317E0,-2.070089757E0,3.898125395E0
9.725322125E0,3.485843924E0,-9.119805043E-1,-2.482940312E0,4.375820940E0
9.735308125E0,3.579450245E0,-7.940004301E-1,-2.783571689E0,4.603387023E0
9.745294125E0,3.346550968E0,-8.060921797E-1,-2.972823256E0,4.548281664E0
9.755280125E0,2.805436183E0,-8.795764777E-1,-2.967279803E0,4.177185223E0
9.765266125E0,2.219277372E0,-1.028341631E0,-2.710234741E0,3.650760320E0
9.775252125E0,1.757060822E0,-1.232078651E0,-2.187461794E0,3.064354685E0
9.785238125E0,1.234113336E0,-1.368872361E0,-1.473789536E0,2.359852296E0
9.795224125E0,6.963794106E-1,-1.460224142E0,-9.041216272E-1,1.853276759E0
9.805210125E0,3.061163574E-1,-1.487254065E0,-6.991229242E-1,1.671647314E0
9.815196125E0,-3.594634295E-2,-1.399187689E0,-5.639162949E-1,1.508979760E0
9.825181125E0,-3.885714537E-1,-1.370095013E0,-4.371629852E-1,1.489717959E0
9.835167125E0,-7.326631379E-1,-1.335561796E0,-4.115469182E-1,1.577938988E0
9.845153125E0,-8.137891620E-1,-1.371311673E0,-5.106426054E-1,1.674366858E0
9.855139125E0,-5.130814791E-1,-1.468872320E0,-4.746845680E-1,1.626703395E0
9.865125125E0,-2.857475817E-2,-1.457972817E0,-3.163744202E-1,1.492177612E0
9.875111125E0,4.573738861E-1,-1.455367590E0,-2.048285490E-1,1.539233715E0
9.885097125E0,1.008176338E0,-1.543126404E0,-1.698329633E-1,1.851081268E0
9.895083125E0,1.671082778E0,-1.679888685E0,-2.576490793E-1,2.383469465E0
9.905069125E0,2.360177727E0,-1.843880572E0,-3.480783159E-1,3.015210272E0
9.915055125E0,2.829171785E0,-1.706785584E0,-4.338601854E-1,3.332501265E0
9.925041125E0,3.203977724E0,-1.593667105E0,-5.218601963E-1,3.616294534E0
9.935027125E0,3.428989107E0,-1.489660048E0,-5.696991912E-1,3.781747020E0
9.945013125E0,3.571997384E0,-1.446104431E0,-4.990373442E-1,3.885797422E0
9.954999125E0,3.390007474E0,-1.402310540E0,-4.407522985E-1,3.694981477E0
9.964985125E0,2.960394999E0,-1.386248239E0,-5.397895136E-1,3.313154909E0
9.974971125E0,2.238746261E0,-1.575764392E0,-8.081524462E-1,2.854492707E0
9.984957125E0,1.280161913E0,-1.758729909E0,-9.118115929E-1,2.358674585E0
9.994943125E0,5.167488527E-1,-2.264625453E0,-1.089863256E0,2.565805865E0
1.000492913E1,-1.957355440E-2,-2.865469546E0,-9.548245883E-1,3.020428585E0
1.001491512E1,-1.579911822E-1,-3.083345572E0,-7.644415855E-2,3.088336905E0
1.002490112E1,6.335282743E-2,-3.103574307E0,8.547225952E-1,3.219741880E0
1.003488713E1,2.149255210E-1,-3.178084791E0,1.571597666E0,3.551948077E0
1.004487312E1,2.999668407E-1,-3.497261782E0,1.982058903E0,4.031051670E0
1.005485912E1,4.945025361E-1,-3.796170861E0,2.326151464E0,4.479556518E0
1.006484513E1,6.637548709E-1,-4.074738062E0,2.811018519E0,4.994585660E0
1.007483112E1,9.051788038E-1,-4.304792669E0,3.347186560E0,5.527589570E0
1.008481712E1,1.083684942E0,-4.317420900E0,3.852906979E0,5.887222476E0
1.009480313E1,1.107365581E0,-4.184859551E0,4.242918602E0,6.061490432E0
1.010478912E1,1.087079836E0,-4.156253803E0,4.381154382E0,6.136016783E0
1.011477512E1,8.939866483E-1,-4.252655093E0,4.410329064E0,6.191549881E0
1.012476113E1,5.231305039E-1,-4.270939629E0,4.545634804E0,6.259184181E0
1.013474612E1,-6.569346786E-3,-4.104973722E0,4.674659464E0,6.221197113E0
1.014473212E1,-6.514435583E-1,-3.979184326E0,4.674155434E0,6.173007017E0
1.015471813E1,-1.352659786E0,-3.791799775E0,4.690511851E0,6.181289142E0
1.016470412E1,-1.952693455E0,-3.457729341E0,4.683843101E0,6.140626200E0
1.017469012E1,-2.326994194E0,-2.993441123E0,4.717387993E0,6.052217875E0
1.018467613E1,-2.573861884E0,-2.475775134E0,4.638757560E0,5.854254796E0
1.019466212E1,-2.618006024E0,-2.063397765E0,4.532444070E0,5.626243429E0
1.020464812E1,-2.632731652E0,-1.726131974E0,4.512766435E0,5.502351174E0
1.021463413E1,-2.678220066E0,-1.497883719E0,4.483384761E0,5.432978674E0
1.022462012E1,-2.588964073E0,-1.418906254E0,4.367370740E0,5.271618073E0
1.023460612E1,-2.375350667E0,-1.448078598E0,4.054856359E0,4.917426411E0
1.024459213E1,-2.144500839E0,-1.370527269E0,3.626016886E0,4.430036941E0
1.025457812E1,-1.965985930E0,-1.248047981E0,3.072654230E0,3.855376565E0
1.026456412E1,-1.739212781E0,-1.106019113E0,2.470524042E0,3.217394663E0
1.027455013E1,-1.534467847E0,-9.052024850E-1,1.998254667E0,2.677126225E0
1.028453612E1,-1.393154678E0,-6.188479623E-1,1.634804898E0,2.235271753E0
1.029452212E1,-1.236450468E0,-3.296987629E-1,1.413424051E0,1.906640653E0
1.030450863E1,-1.105523708E0,-1.261408138E-1,1.263420165E0,1.683545273E0
1.031449462E1,-1.118425004E0,-1.254309618E-1,9.793147740E-1,1.491866228E0
1.032448062E1,-1.258706725E0,-1.407892585E-1,6.860845104E-1,1.440443053E0
1.033446663E1,-1.219610487E0,-2.650733621E-1,4.798742643E-1,1.337158531E0
1.034445262E1,-1.097749835E0,-4.943984556E-1,2.261238161E-1,1.224996536E0
1.035443862E1,-1.068731858E0,-5.998216342E-1,-1.169960609E-1,1.231122193E0
1.036442463E1,-1.051224124E0,-5.391106519E-1,-4.486515945E-1,1.263724934E0
1.037441062E1,-1.003571656E0,-4.444092203E-1,-6.918060109E-1,1.297401703E0
1.038439662E1,-8.189996159E-1,-4.207801102E-1,-7.529839665E-1,1.189454129E0
1.039438263E1,-6.319033331E-1,-4.330566318E-1,-6.906237039E-1,1.031407276E0
1.040436862E1,-5.723541194E-1,-3.484588965E-1,-5.717501020E-1,8.808581156E-1
1.041435462E1,-5.217482221E-1,-2.667199380E-1,-4.470406866E-1,7.370251747E-1
1.042434063E1,-4.211503851E-1,-2.845819393E-1,-2.720145187E-1,5.764949483E-1
1.043432662E1,-2.574850649E-1,-3.869368646E-1,-5.188936114E-2,4.676656943E-1
1.044431262E1,-1.365669841E-1,-4.810817143E-1,1.840089530E-1,5.328690756E-1
1.045429863E1,-1.062585264E-1,-5.588869585E-1,3.589740175E-1,6.726870387E-1
1.046428363E1,-1.381147420E-1,-6.348803698E-1,4.668475449E-1,8.000596204E-1
1.047426962E1,-8.202591062E-2,-7.234614477E-1,5.946828818E-1,9.400917223E-1
1.048425562E1,5.541406274E-2,-8.264276263E-1,6.681730270E-1,1.064193842E0
1.049424163E1,1.419972932E-1,-9.037639238E-1,6.094476861E-1,1.099262909E0
1.050422762E1,1.975990516E-1,-8.920707350E-1,5.996945304E-1,1.092917706E0
1.051421362E1,3.027828598E-1,-9.686874595E-1,5.592209807E-1,1.158775630E0
1.052419963E1,3.832399625E-1,-1.125647778E0,4.776479369E-1,1.281445801E0
1.053418562E1,5.101233727E-1,-1.147148720E0,5.508477679E-1,1.370988441E0
1.054417162E1,8.510394341E-1,-1.083243404E0,6.542116302E-1,1.525017131E0
1.055415763E1,1.240257005E0,-1.029703886E0,6.444333315E-1,1.736036247E0
1.056414362E1,1.422843331E0,-1.071194559E0,4.592596132E-1,1.839255370E0
1.057412962E1,1.652000390E0,-1.147236940E0,3.494190824E-1,2.041409214E0
1.058411563E1,1.994030930E0,-1.186120559E0,2.889366531E-1,2.338060248E0
1.059410162E1,2.343309680E0,-1.186225224E0,1.463873827E-1,2.630524625E0
1.060408762E1,2.598510822E0,-1.272752468E0,-1.130120605E-1,2.895674198E0
1.061407363E1,2.653247777E0,-1.325526366E0,-4.232267314E-1,2.995974763E0
1.062405962E1,2.446118934E0,-1.207793191E0,-8.014942217E-1,2.843352812E0
1.063404562E1,2.207090605E0,-1.066639870E0,-1.069873819E0,2.674621382E0
1.064403163E1,2.025170862E0,-7.970735074E-1,-1.021300998E0,2.404100440E0
1.065401762E1,2.063274828E0,-4.392238364E-1,-6.256690317E-1,2.200336867E0
1.066400362E1,2.274333000E0,-1.668587040E-1,1.069987839E-1,2.282954481E0
1.067398963E1,2.258977627E0,-2.395338935E-1,7.822486961E-1,2.402554771E0
1.068397562E1,1.887770650E0,-5.169922431E-1,1.299896266E0,2.349614715E0
1.069396162E1,1.181564409E0,-8.350853062E-1,2.048487804E0,2.507940231E0
1.070394763E1,3.215208471E-1,-1.190346488E0,3.169960962E0,3.401316351E0
1.071393362E1,-9.985433426E-1,-1.855770885E0,4.385443899E0,4.865500239E0
1.072391962E1,-2.546195199E0,-2.639380813E0,5.492004903E0,6.603904824E0
1.073390563E1,-4.116271127E0,-3.250975889E0,6.574028066E0,8.410135388E0
1.074389162E1,-5.486547697E0,-3.534871657E0,7.387603805E0,9.857698172E0
1.075387762E1,-6.073644401E0,-3.350175364E0,7.635440379E0,1.031565708E1
1.076386363E1,-5.902226257E0,-2.731930835E0,7.436488867E0,9.879326270E0
1.077384962E1,-5.159039301E0,-1.790824984E0,6.939388998E0,8.830507363E0
1.078383462E1,-4.376259385E0,-1.333368067E0,6.112072887E0,7.634589156E0
1.079382062E1,-3.732801661E0,-1.267880714E0,5.084745748E0,6.433969931E0
1.080380663E1,-3.216443403E0,-1.346624582E0,3.975207927E0,5.287833582E0
1.081379262E1,-2.889460672E0,-1.569309358E0,2.806533705E0,4.323001998E0
1.082377862E1,-2.764950354E0,-1.798825729E0,1.810882688E0,3.762980278E0
1.083376463E1,-2.776773424E0,-1.939326720E0,1.046575588E0,3.544965336E0
1.084375062E1,-2.737110883E0,-1.881279071E0,4.501648539E-1,3.351661577E0
1.085373662E1,-2.724627955E0,-1.752705815E0,2.259136087E-1,3.247554792E0
1.086372263E1,-2.887198969E0,-1.758362412E0,3.244350994E-1,3.396029209E0
1.087370862E1,-3.148194702E0,-2.005320150E0,6.791611147E-1,3.793902819E0
1.088369462E1,-3.499491910E0,-2.350374286E0,1.111452785E0,4.359590600E0
1.089368063E1,-3.721007535E0,-2.705172806E0,1.410077105E0,4.811670649E0
1.090366662E1,-3.932350175E0,-2.988068116E0,1.598586659E0,5.191089315E0
1.091365262E1,-4.228226596E0,-3.152145081E0,1.926988510E0,5.614909035E0
1.092363863E1,-4.675376625E0,-3.542635590E0,2.000488595E0,6.197690549E0
1.093362462E1,-5.251621774E0,-4.114052986E0,1.702906249E0,6.885118222E0
1.094361062E1,-5.861510925E0,-4.659830341E0,1.152237114E0,7.576211421E0
1.095359663E1,-6.229103739E0,-5.055768117E0,3.837416536E-1,8.031798198E0
1.096358262E1,-6.360957282E0,-5.254962873E0,-4.799049622E-1,8.264788026E0
1.097356862E1,-6.483321964E0,-5.284273211E0,-1.403029163E0,8.480890159E0
1.098355463E1,-6.357251317E0,-5.106410851E0,-2.281633249E0,8.467344706E0
1.099354062E1,-5.868142837E0,-4.764422411E0,-2.971390103E0,8.121821250E0
1.100352662E1,-5.263741883E0,-4.525739068E0,-3.550534009E0,7.797152331E0
1.101351263E1,-4.775416346E0,-4.364225523E0,-3.919054191E0,7.563732639E0
1.102349862E1,-4.368437272E0,-4.350236059E0,-4.103940811E0,7.406087237E0
1.103348462E1,-3.850338882E0,-4.732665013E0,-4.382167119E0,7.511765192E0
1.104347063E1,-3.329225083E0,-5.098998336E0,-4.362803480E0,7.491166658E0
1.105345662E1,-2.602080547E0,-5.300248389E0,-4.365678556E0,7.343201306E0
1.106344262E1,-1.502453756E0,-5.009576283E0,-4.358290599E0,6.807930579E0
1.107342863E1,-1.147516072E-2,-4.016502718E0,-4.315334614E0,5.895298007E0
1.108341462E1,1.808526844E0,-2.457013173E0,-4.497372763E0,5.434523424E0
1.109339962E1,3.043679815E0,-1.185239091E0,-4.764414809E0,5.776541093E0
1.110338562E1,3.307506770E0,-7.033574778E-1,-4.780468048E0,5.855526238E0
1.111337163E1,2.536018705E0,-8.576292461E-1,-4.536578636E0,5.267586214E0
1.112335762E1,1.188555340E0,-1.373523090E0,-3.843158209E0,4.250775752E0
1.113334362E1,1.181079090E-2,-2.065878300E0,-2.966861142E0,3.615281135E0
1.114332963E1,-6.258456177E-1,-2.588108918E0,-2.276331286E0,3.503095008E0
1.115331562E1,-8.329218364E-1,-2.592417439E0,-1.806586154E0,3.267742415E0
1.116330162E1,-6.069158417E-1,-2.205045834E0,-1.754382797E0,2.882435249E0
1.117328763E1,-9.229479074E-2,-1.834028745E0,-2.044892643E0,2.748411484E0
1.118327362E1,3.106245607E-1,-1.563195363E0,-2.503841185E0,2.968044481E0
1.119325962E1,8.175185162E-1,-1.613549538E0,-3.199151140E0,3.675111787E0
1.120324563E1,1.521533221E0,-1.682070135E0,-3.959933245E0,4.563495873E0
1.121323162E1,2.242173314E0,-1.721122665E0,-4.199650961E0,5.062279387E0
1.122321762E1,2.784437662E0,-1.652419927E0,-3.819627551E0,5.007308592E0
1.123320363E1,2.955112039E0,-1.743497913E0,-3.390471159E0,4.823667361E0
1.124318962E1,3.025976200E0,-2.139909605E0,-3.013782124E0,4.776884735E0
1.125317562E1,2.953123401E0,-2.291147254E0,-2.639806198E0,4.575901040E0
1.126316163E1,2.562599562E0,-2.269389764E0,-2.402265109E0,4.181856534E0
1.127314762E1,1.986354706E0,-2.507824308E0,-2.476658064E0,4.045815485E0
1.128313362E1,1.386109368E0,-2.782023639E0,-2.723411734E0,4.132544758E0
1.129311963E1,6.676865387E-1,-2.816188920E0,-3.182157669E0,4.301494249E0
1.130310562E1,-1.310513055E-1,-3.033910287E0,-3.718015223E0,4.800564891E0
1.131309142E1,-5.328415596E-1,-3.503235297E0,-3.791829304E0,5.189850397E0
1.132307742E1,-4.899463856E-1,-4.015056701E0,-3.556041794E0,5.385736813E0
1.133306342E1,-2.602619076E-1,-4.349874701E0,-3.279876337E0,5.454056744E0
1.134304942E1,2.502736938E-1,-4.579559180E0,-3.020858717E0,5.491865493E0
1.135303542E1,6.388065559E-1,-4.924982859E0,-2.824529096E0,5.713273545E0
1.136302142E1,8.701609987E-1,-5.517303466E0,-2.262950810E0,6.026505129E0
1.137300742E1,9.963620389E-1,-6.163107970E0,-1.221824242E0,6.361563616E0
1.138299342E1,1.167733405E0,-6.902182580E0,-1.531619668E-1,7.001941463E0
1.139297942E1,1.085009336E0,-7.550496123E0,6.443514705E-1,7.655222125E0
1.140296542E1,8.145206487E-1,-8.062715138E0,1.413645076E0,8.226129812E0
1.141295042E1,7.074990606E-1,-8.472596185E0,2.483910073E0,8.857496840E0
1.142293642E1,8.957033908E-1,-8.580552742E0,3.904993976E0,9.469801893E0
1.143292242E1,1.470308104E0,-8.500388001E0,5.412587435E0,1.018403186E1
1.144290842E1,2.338778087E0,-8.386832734E0,6.829144424E0,1.106553477E1
1.145289442E1,3.296122826E0,-8.404597160E0,8.034385378E0,1.208524007E1
1.146288042E1,4.027086763E0,-8.114184085E0,9.021990627E0,1.278490227E1
1.147286642E1,4.589625746E0,-7.566278928E0,9.591813487E0,1.305052211E1
1.148285242E1,4.934605622E0,-6.932991559E0,9.962102451E0,1.310191550E1
1.149283842E1,5.015383152E0,-6.165455042E0,1.015558214E1,1.289584246E1
1.150282442E1,4.750021303E0,-5.359810467E0,1.005473638E1,1.234455322E1
1.151281042E1,3.875180778E0,-4.667324132E0,9.496232561E0,1.126851248E1
1.152279642E1,2.470346287E0,-4.283031671E0,8.593996661E0,9.914824743E0
1.153278242E1,1.018898962E0,-3.957398185E0,7.514898859E0,8.554113651E0
1.154276842E1,-2.864755601E-1,-3.610402773E0,6.213967052E0,7.192389238E0
1.155275442E1,-1.410550729E0,-3.170178478E0,4.843608913E0,5.958207134E0
1.156274042E1,-2.303444533E0,-2.671951266E0,3.526978793E0,4.988462658E0
1.157272642E1,-3.011140645E0,-2.174217559E0,2.380054168E0,4.411218405E0
1.158271242E1,-3.432857040E0,-1.773287284E0,1.348053349E0,4.092224710E0
1.159269842E1,-3.543200431E0,-1.430711198E0,5.519654632E-1,3.860812052E0
1.160268442E1,-3.412415174E0,-1.033585998E0,-6.736577153E-2,3.566148551E0
1.161267042E1,-3.190189404E0,-5.366608147E-1,-5.923335437E-1,3.288794961E0
1.162265642E1,-2.823577754E0,-8.524597228E-2,-1.089466084E0,3.027671474E0
1.163264242E1,-2.359017055E0,1.908855709E-1,-1.437477157E0,2.769068317E0
1.164262842E1,-1.816353927E0,4.110814798E-1,-1.439381011E0,2.353709257E0
1.165261442E1,-1.283599491E0,4.521187010E-1,-1.328072244E0,1.901529610E0
1.166260042E1,-9.501397991E-1,4.002705628E-1,-1.157462186E0,1.550064796E0
1.167258642E1,-8.130652767E-1,4.186664879E-1,-9.350820494E-1,1.307950768E0
1.168257242E1,-8.139096147E-1,3.559876983E-1,-6.161696452E-1,1.081129564E0
1.169255842E1,-9.989394915E-1,1.751045206E-1,-2.356457144E-1,1.041187113E0
1.170254442E1,-1.220025054E0,-3.310035691E-2,1.729799348E-1,1.232671418E0
1.171253042E1,-1.453641785E0,-2.163471253E-1,5.780113006E-1,1.579233226E0
1.172251542E1,-1.637336742E0,-3.840989184E-1,9.020698392E-1,1.908437471E0
1.173250142E1,-1.664304686E0,-4.833352312E-1,1.061515224E0,2.032323203E0
1.174248742E1,-1.419410430E0,-7.850462964E-1,1.019751486E0,1.915963661E0
1.175247342E1,-1.133959302E0,-8.922380385E-1,8.146843708E-1,1.657004237E0
1.176245942E1,-8.470849621E-1,-6.922017212E-1,4.772286916E-1,1.193500473E0
1.177244542E1,-5.071775454E-1,-4.737096910E-1,2.554549116E-1,7.395181849E-1
1.178243142E1,-1.756392485E-1,-2.986671509E-1,1.745002840E-1,3.879453077E-1
1.179241742E1,2.033544660E-2,-2.035022543E-1,2.446504996E-1,3.188739012E-1
1.180240342E1,1.689202130E-1,-2.621067041E-1,4.409887453E-1,5.400972470E-1
1.181238942E1,2.997159952E-1,-4.665182005E-1,6.740558376E-1,8.728231100E-1
1.182237542E1,4.684338945E-1,-6.325038421E-1,9.721778818E-1,1.250848215E0
1.183236142E1,7.480553484E-1,-8.859259692E-1,1.097674259E0,1.596665402E0
1.184234742E1,9.360228664E-1,-1.128456341E0,1.016249443E0,1.783904552E0
1.185233342E1,1.048167785E0,-1.111010443E0,9.963830888E-1,1.823671892E0
1.186231942E1,1.171127713E0,-1.070253742E0,1.019610568E0,1.885892071E0
1.187230542E1,1.445109528E0,-1.058990250E0,1.033311764E0,2.068220273E0
1.188229142E1,1.883730808E0,-1.138168274E0,9.413134271E-1,2.393729255E0
1.189227742E1,2.122468531E0,-1.347162380E0,4.563269421E-1,2.554985992E0
1.190226342E1,2.277826127E0,-1.578269047E0,-1.655563098E-1,2.776118503E0
1.191224942E1,2.441629441E0,-1.590301301E0,-6.971184987E-1,2.996095252E0
1.192223542E1,2.537674052E0,-1.345598103E0,-1.029230115E0,3.051186405E0
1.193222142E1,2.357920117E0,-1.045647343E0,-1.317278576E0,2.896271481E0
1.194220742E1,2.047368647E0,-9.209270366E-1,-1.567437372E0,2.738007469E0
1.195219342E1,1.557114698E0,-8.512419670E-1,-1.702921452E0,2.459504125E0
1.196217942E1,9.623961478E-1,-8.751898965E-1,-1.854430996E0,2.265188296E0
1.197216542E1,3.709941387E-1,-1.036798166E0,-1.875296785E0,2.174701156E0
1.198215142E1,-7.838601887E-2,-1.278640468E0,-1.651663590E0,2.090229276E0
1.199213742E1,-4.649729276E-1,-1.442197760E0,-1.255217691E0,1.967665026E0
1.200212342E1,-8.009562778E-1,-1.646052748E0,-8.609767771E-1,2.022943800E0
1.201210942E1,-1.051598346E0,-1.811485974E0,-4.510676640E-1,2.142615820E0
1.202209542E1,-1.335440905E0,-1.856028601E0,-1.305449367E-1,2.290259059E0
1.203208142E1,-1.697125692E0,-1.897260242E0,9.583703399E-2,2.547354859E0
1.204206642E1,-2.047937581E0,-1.734833655E0,5.249355394E-1,2.734822383E0
1.205205242E1,-2.311868032E0,-1.420064587E0,9.779263526E-1,2.884034878E0
1.206203842E1,-2.318569525E0,-1.325466871E0,1.571904645E0,3.098953256E0
1.207202442E1,-2.183653795E0,-1.125237449E0,2.297483881E0,3.363470737E0
1.208201042E1,-1.997284614E0,-1.129021767E0,2.864490722E0,3.670033116E0
1.209199642E1,-1.966044987E0,-1.198668099E0,3.165046962E0,3.914033773E0
1.210198242E1,-2.122995949E0,-1.262546591E0,3.220948682E0,4.059020339E0
1.211196842E1,-2.218327492E0,-1.182041834E0,3.355324715E0,4.192422176E0
1.212195442E1,-2.318409604E0,-1.112422253E0,3.392301922E0,4.256785018E0
1.213194042E1,-2.437781389E0,-1.083495785E0,3.516577474E0,4.413961752E0
1.214192642E1,-2.507018562E0,-1.028999442E0,3.811250830E0,4.676495997E0
1.215191242E1,-2.499609555E0,-1.082579818E0,4.081695664E0,4.907164811E0
1.216189842E1,-2.640445591E0,-1.256799071E0,4.348818110E0,5.240583534E0
1.217188442E1,-2.923011410E0,-1.367976275E0,4.488152581E0,5.528007632E0
1.218187042E1,-3.290158373E0,-1.447857719E0,4.185623490E0,5.517325267E0
1.219185642E1,-3.649776462E0,-1.510061276E0,3.628420676E0,5.363449439E0
1.220184242E1,-3.857994642E0,-1.561007482E0,2.955876271E0,5.104710720E0
1.221182842E1,-3.789370842E0,-1.607308659E0,2.397046176E0,4.763255491E0
1.222181442E1,-3.593146763E0,-1.624672550E0,2.048495990E0,4.443714705E0
1.223180042E1,-3.397237264E0,-1.691506518E0,1.588397886E0,4.114051917E0
1.224178642E1,-3.372716965E0,-1.688385274E0,1.233407577E0,3.968268994E0
1.225177242E1,-3.651004669E0,-1.672101363E0,8.795048493E-1,4.110874219E0
1.226175842E1,-3.977177269E0,-1.828195708E0,5.226931322E-1,4.408338314E0
1.227174442E1,-4.350313243E0,-2.134614952E0,2.961936325E-1,4.854846750E0
1.228173042E1,-4.639237617E0,-2.584512588E0,1.272032529E-1,5.312100493E0
1.229171642E1,-4.793919860E0,-3.020106765E0,-5.525618792E-4,5.665925591E0
1.230170242E1,-5.037629469E0,-3.510788730E0,-3.102474153E-2,6.140383596E0
1.231168813E1,-5.310545921E0,-3.985890205E0,-2.644543612E-1,6.645235497E0
1.232167412E1,-5.432010131E0,-4.290109141E0,-7.124335259E-1,6.958400106E0
1.233166012E1,-5.342088141E0,-4.432427446E0,-1.198412576E0,7.044182811E0
1.234164513E1,-5.064138991E0,-4.458573856E0,-1.666634216E0,6.949967925E0
1.235163112E1,-4.512013021E0,-4.328402556E0,-2.139253548E0,6.608308099E0
1.236161712E1,-3.816120684E0,-4.187357190E0,-2.403878648E0,6.154296862E0
1.237160313E1,-3.000306923E0,-3.956434856E0,-2.285058548E0,5.465959291E0
1.238158912E1,-2.207945468E0,-3.847923397E0,-1.880133017E0,4.818343888E0
1.239157512E1,-1.641863657E0,-3.751601045E0,-1.439472227E0,4.340772622E0
1.240156113E1,-1.404311750E0,-3.635072469E0,-1.209953810E0,4.080420513E0
1.241154712E1,-1.495081002E0,-3.470065797E0,-1.184641798E0,3.959797978E0
1.242153312E1,-1.691541016E0,-3.305276642E0,-1.273041759E0,3.925149680E0
1.243151913E1,-1.980788741E0,-3.188918805E0,-1.290391032E0,3.969614112E0
1.244150512E1,-2.222219106E0,-3.264913605E0,-1.329664441E0,4.167244428E0
1.245149112E1,-2.147693419E0,-3.291159709E0,-1.708627750E0,4.285292060E0
1.246147713E1,-1.465547885E0,-3.197250502E0,-2.496859902E0,4.313299288E0
1.247146312E1,-2.785525829E-1,-2.806461784E0,-3.277795313E0,4.324090818E0
1.248144912E1,1.013387961E0,-2.255201788E0,-3.988755048E0,4.692873011E0
1.249143513E1,2.042829453E0,-1.669646702E0,-4.622741452E0,5.322650732E0
1.250142112E1,2.438690046E0,-1.255649216E0,-4.952856537E0,5.661682786E0
1.251140712E1,2.113469081E0,-1.235170074E0,-4.825865538E0,5.411226742E0
1.252139313E1,1.224392340E0,-1.391284153E0,-4.397028987E0,4.771652975E0
1.253137912E1,2.585703081E-1,-1.680883150E0,-4.065343341E0,4.406727045E0
1.254136512E1,-5.187269658E-1,-1.821160485E0,-3.714536129E0,4.169350289E0
1.255135113E1,-1.046674991E0,-1.744534185E0,-3.397553306E0,3.960087945E0
1.256133712E1,-1.231608388E0,-1.721541910E0,-3.425009200E0,4.026320130E0
1.257132312E1,-1.096248270E0,-1.679341239E0,-3.440731193E0,3.982534169E0
1.258130913E1,-7.491072625E-1,-1.635157485E0,-3.186402455E0,3.658970114E0
1.259129513E1,-2.073071837E-1,-1.816242245E0,-2.562288491E0,3.147544197E0
1.260128112E1,6.649810320E-1,-2.061554723E0,-1.769546966E0,2.797052755E0
1.261126713E1,1.382975260E0,-1.953613222E0,-9.997402677E-1,2.593974902E0
1.262125313E1,1.575030566E0,-1.840719567E0,-5.404119498E-1,2.482139175E0
1.263123912E1,1.582041378E0,-1.984321336E0,-4.137396240E-1,2.571296670E0
1.264122513E1,1.592667523E0,-2.025383993E0,-3.576233107E-1,2.601281336E0
1.265121013E1,1.341743034E0,-1.872047487E0,-3.478800952E-1,2.329346845E0
1.266119612E1,1.012462347E0,-1.928638594E0,-4.573563445E-1,2.225736206E0
1.267118212E1,7.895249712E-1,-1.969859710E0,-5.254191041E-1,2.186266725E0
1.268116813E1,9.084222543E-1,-2.223990812E0,-5.208378106E-2,2.402931303E0
1.269115412E1,9.692303735E-1,-2.187693929E0,6.498917073E-1,2.479469999E0
1.270114012E1,9.874169683E-1,-2.008663588E0,8.672835839E-1,2.400396320E0
1.271112613E1,9.622996688E-1,-1.978404247E0,4.967089829E-1,2.255398818E0
1.272111212E1,7.709249783E-1,-2.014936481E0,-2.003146447E-1,2.166661095E0
1.273109812E1,6.584327352E-1,-2.151454933E0,-1.094031006E0,2.501838491E0
1.274108413E1,9.104424673E-1,-2.319653015E0,-1.774914710E0,3.059414621E0
1.275107012E1,1.425683908E0,-2.274556364E0,-2.050750092E0,3.378129245E0
1.276105612E1,2.267256115E0,-2.504486425E0,-1.953019729E0,3.902203045E0
1.277104213E1,3.387601345E0,-2.914012545E0,-1.095551866E0,4.600820131E0
1.278102812E1,4.391459514E0,-3.031509420E0,1.134435850E-1,5.337399693E0
1.279101412E1,4.785064836E0,-2.929271439E0,1.019709971E0,5.702392925E0
1.280100013E1,4.564200298E0,-2.968099290E0,1.519453951E0,5.652457702E0
1.281098612E1,3.921657956E0,-3.273525091E0,1.742674917E0,5.397433049E0
1.282097212E1,3.374352724E0,-3.839098195E0,1.845088899E0,5.434085415E0
1.283095813E1,2.849149382E0,-4.167425201E0,1.704734674E0,5.328339827E0
1.284094412E1,2.193647271E0,-4.618694009E0,1.237357371E0,5.260748613E0
1.285093012E1,1.532941723E0,-5.000126597E0,1.152823005E0,5.355387679E0
1.286091613E1,1.065649205E0,-5.470048023E0,1.654929406E0,5.813417665E0
1.287090212E1,9.499480104E-1,-5.905746866E0,2.779292697E0,6.595810425E0
1.288088812E1,9.213095176E-1,-5.677786732E0,3.921379044E0,6.961557800E0
1.289087413E1,5.842976421E-1,-5.346555414E0,4.578338281E0,7.063160761E0
1.290086012E1,-6.066252351E-2,-4.929785178E0,4.963955137E0,6.996235590E0
1.291084612E1,-7.446382356E-1,-4.615241228E0,4.894630548E0,6.768481801E0
1.292083213E1,-1.459068586E0,-4.045271019E0,5.059787493E0,6.640372597E0
1.293081812E1,-2.254798622E0,-3.475903365E0,5.512046235E0,6.895554707E0
1.294080412E1,-2.890603802E0,-3.017124100E0,5.926536641E0,7.251376748E0
1.295078912E1,-3.352024546E0,-2.293448718E0,6.385399228E0,7.567648174E0
1.296077513E1,-3.768115920E0,-1.698190470E0,6.587456782E0,7.776704656E0
1.297076112E1,-4.120468551E0,-1.441501503E0,6.454860642E0,7.792394598E0
1.298074712E1,-4.126291208E0,-1.333178764E0,6.051840134E0,7.445026108E0
1.299073313E1,-3.619606583E0,-1.246433127E0,5.510518942E0,6.709766491E0
1.300071912E1,-2.775421840E0,-1.106581323E0,5.062259696E0,5.878261804E0
1.301070512E1,-1.709117162E0,-9.727955671E-1,4.493234396E0,4.904749537E0
1.302069113E1,-6.059457886E-1,-8.456246200E-1,3.945284801E0,4.080137676E0
1.303067712E1,2.074001545E-1,-6.817894381E-1,3.514515746E0,3.586038565E0
1.304066312E1,4.542567354E-1,-5.822762597E-1,3.033506829E0,3.122108023E0
1.305064913E1,2.669569695E-1,-5.430586919E-1,2.434918592E0,2.508985316E0
1.306063512E1,-1.888960558E-1,-4.251905188E-1,1.876890151E0,1.933697323E0
1.307062112E1,-7.930227757E-1,-3.438209581E-1,1.396267151E0,1.642151007E0
1.308060713E1,-1.369993272E0,-3.721444322E-1,1.072593943E0,1.779278171E0
1.309059312E1,-1.739800426E0,-4.125557090E-1,8.027537119E-1,1.959979912E0
1.310057912E1,-1.958922493E0,-4.266168009E-1,6.123928555E-1,2.096283435E0
1.311056513E1,-1.873263708E0,-5.796219161E-1,4.031567484E-1,2.001902557E0
1.312055112E1,-1.534591808E0,-7.853750561E-1,2.257627505E-1,1.738607148E0
1.313053712E1,-1.033535712E0,-7.802220511E-1,1.219881213E-1,1.300701203E0
1.314052313E1,-4.827022702E-1,-6.721982503E-1,1.201934646E-1,8.362406581E-1
1.315050912E1,8.224401176E-2,-7.813417929E-1,9.316017866E-2,7.911623688E-1
1.316049512E1,4.031234193E-1,-9.974097137E-1,-1.460600118E-1,1.085664845E0
1.317048113E1,4.799113941E-1,-9.521918795E-1,-3.334404693E-1,1.117213886E0
1.318046712E1,6.670070922E-1,-8.005341089E-1,-1.941088486E-1,1.059920547E0
1.319045312E1,8.451355004E-1,-6.986516386E-1,2.147824104E-1,1.117362793E0
1.320043913E1,8.138464648E-1,-7.066019516E-1,6.716275620E-1,1.269927544E0
1.321042512E1,6.800709414E-1,-6.532639427E-1,1.241997136E0,1.559425263E0
1.322041112E1,4.781642461E-1,-6.985373256E-1,1.775620907E0,1.967085420E0
1.323039713E1,2.253739107E-1,-9.230269910E-1,1.835312208E0,2.066674413E0
1.324038312E1,-6.238979101E-4,-1.103834886E0,1.571091297E0,1.920098880E0
1.325036912E1,-5.395167410E-2,-1.183603186E0,1.272095679E0,1.738405793E0
1.326035412E1,1.385836887E-1,-1.177434812E0,9.353776261E-1,1.510128961E0
1.327034013E1,3.801976562E-1,-1.318283566E0,4.176348929E-1,1.434169001E0
1.328032612E1,6.672181767E-1,-1.536220111E0,-6.468482316E-2,1.676107530E0
1.329031212E1,1.060088503E0,-1.545692600E0,-4.390253234E-1,1.925018567E0
1.330029813E1,1.313574657E0,-1.424310105E0,-9.040824509E-1,2.138107278E0
1.331028462E1,1.381428087E0,-1.281774867E0,-1.206960913E0,2.237866174E0
1.332027063E1,1.392604455E0,-1.103313095E0,-1.344001229E0,2.227776078E0
1.333025663E1,1.481601416E0,-1.000328936E0,-1.410378236E0,2.277052372E0
1.334024262E1,1.459341651E0,-8.770811784E-1,-1.317686419E0,2.152962365E0
1.335022863E1,1.557696496E0,-8.891286354E-1,-9.958527464E-1,2.051509394E0
1.336021463E1,1.757979419E0,-1.071188784E0,-5.693620992E-1,2.135909701E0
1.337020062E1,1.812123467E0,-1.332860236E0,-2.492983782E-1,2.263284682E0
1.338018662E1,1.739588172E0,-1.603361203E0,-7.340009809E-3,2.365795433E0
1.339017263E1,1.477166888E0,-1.700933983E0,2.446048182E-1,2.266060446E0
1.340015862E1,1.050824175E0,-1.753833743E0,4.390147984E-1,2.091147589E0
1.341014462E1,4.808767694E-1,-1.814099095E0,6.992778754E-1,2.002794932E0
1.342013063E1,4.787641704E-2,-1.779863501E0,1.026996771E0,2.055463111E0
1.343011662E1,-2.307293755E-1,-1.600918383E0,1.469834479E0,2.185540919E0
1.344010262E1,-2.408023739E-1,-1.468647348E0,1.996914777E0,2.490497830E0
1.345008863E1,-1.810075772E-1,-1.427755284E0,2.427873282E0,2.822377999E0
1.346007462E1,-3.568298435E-1,-1.448845021E0,2.445419022E0,2.864708297E0
1.347006062E1,-6.279950541E-1,-1.520149039E0,2.225309944E0,2.767170981E0
1.348004663E1,-9.282536709E-1,-1.484657171E0,2.156357238E0,2.777721788E0
1.349003262E1,-1.261154954E0,-1.467375725E0,2.118380157E0,2.869013389E0
1.350001862E1,-1.700868495E0,-1.448499743E0,1.978708302E0,2.984357835E0
1.351000463E1,-2.057643082E0,-1.332714641E0,2.085583709E0,3.218646109E0
1.351999062E1,-2.358190259E0,-1.175366068E0,2.239383608E0,3.457945290E0
1.352997662E1,-2.689224818E0,-1.091401220E0,2.390306675E0,3.759874034E0
1.353996263E1,-2.951431217E0,-9.951352930E-1,2.568174883E0,4.036924907E0
1.354994862E1,-2.874974779E0,-9.609127092E-1,2.710186209E0,4.066195089E0
1.355993362E1,-2.438020540E0,-9.336105976E-1,2.996547748E0,3.974276199E0
1.356991963E1,-2.091950743E0,-1.001134829E0,3.148375965E0,3.910345263E0
1.357990562E1,-1.917654307E0,-1.148725568E0,3.160218331E0,3.870910536E0
1.358989162E1,-1.834606011E0,-1.228714894E0,3.325303940E0,3.991636982E0
1.359987763E1,-2.016347706E0,-1.338145827E0,3.366952488E0,4.146403427E0
1.360986362E1,-2.327922585E0,-1.504642369E0,3.363706114E0,4.358634080E0
1.361984962E1,-2.668142390E0,-1.727435319E0,3.340956352E0,4.611399564E0
1.362983563E1,-2.903503637E0,-2.011365586E0,3.101812248E0,4.700762078E0
1.363982162E1,-3.113688528E0,-2.220315253E0,2.907029800E0,4.803715055E0
1.364980762E1,-3.342088373E0,-2.352292757E0,2.896717651E0,5.009372122E0
1.365979363E1,-3.642011944E0,-2.569457762E0,2.705366349E0,5.213959270E0
1.366977962E1,-3.950036833E0,-2.794766768E0,2.455742281E0,5.426249388E0
1.367976562E1,-4.093978617E0,-3.005636660E0,2.293349315E0,5.572608342E0
1.368975163E1,-4.146891534E0,-3.271740521E0,2.134433103E0,5.697086984E0
1.369973762E1,-4.180376199E0,-3.591794302E0,1.932086697E0,5.840333079E0
1.370972362E1,-4.141040517E0,-3.824171423E0,1.720579458E0,5.893462252E0
1.371970963E1,-4.067555635E0,-4.041484362E0,1.492055068E0,5.924933165E0
1.372969563E1,-3.954421075E0,-4.253417863E0,9.689040989E-1,5.887935522E0
1.373968162E1,-3.909918209E0,-4.383237160E0,3.842737502E-1,5.886246233E0
1.374966763E1,-3.889261750E0,-4.405397522E0,-4.116556764E-2,5.876697959E0
1.375965363E1,-3.880382169E0,-4.407524740E0,-4.011347812E-1,5.885962047E0
1.376963962E1,-3.849933670E0,-4.447714407E0,-7.909101766E-1,5.935460523E0
1.377962563E1,-3.789638059E0,-4.433279386E0,-1.225052490E0,5.959536587E0
1.378961163E1,-3.674359033E0,-4.343590114E0,-1.540428498E0,5.894116502E0
1.379959762E1,-3.550421743E0,-4.227294257E0,-1.785202594E0,5.801935848E0
1.380958362E1,-3.398077217E0,-3.728035596E0,-2.296540141E0,5.542497162E0
1.381956963E1,-2.916679460E0,-3.150359341E0,-2.932423673E0,5.199124123E0
1.382955562E1,-2.352228438E0,-2.560950648E0,-3.412577142E0,4.872076518E0
1.383954162E1,-1.949778033E0,-1.867859126E0,-3.577994288E0,4.482474230E0
1.384952663E1,-1.707151328E0,-1.482978435E0,-3.542432984E0,4.202668455E0
1.385951262E1,-1.811655689E0,-1.570473247E0,-3.326628919E0,4.100602702E0
1.386949862E1,-2.441551673E0,-1.873529171E0,-2.783262079E0,4.149437785E0
1.387948463E1,-3.331380951E0,-2.374962997E0,-2.246091241E0,4.667276952E0
1.388947062E1,-4.014829829E0,-2.797670203E0,-1.852002939E0,5.232182337E0
1.389945662E1,-4.005026972E0,-2.948547955E0,-2.016163519E0,5.366478494E0
1.390944263E1,-3.407995849E0,-2.897840609E0,-2.739568468E0,5.245679297E0
1.391942862E1,-2.375928372E0,-2.593724584E0,-3.705701571E0,5.109272647E0
1.392941462E1,-1.240285656E0,-2.001723235E0,-4.607531090E0,5.174412736E0
1.393940063E1,-2.970584357E-1,-1.565924405E0,-5.177780796E0,5.417543441E0
1.394938662E1,2.834952343E-1,-1.516508416E0,-5.238021151E0,5.460497496E0
1.395937262E1,4.318847036E-1,-1.880098518E0,-4.589790930E0,4.978702202E0
1.396935863E1,7.482179010E-1,-2.473628329E0,-3.952529501E0,4.722410041E0
1.397934462E1,1.458417206E0,-2.726571277E0,-3.401724418E0,4.597053479E0
1.398933062E1,2.096680555E0,-2.560856507E0,-2.788261156E0,4.327638580E0
1.399931663E1,2.348092117E0,-2.361673153E0,-2.415404241E0,4.114026533E0
1.400930262E1,2.148910224E0,-2.378811342E0,-2.291049020E0,3.940236562E0
1.401928862E1,1.696332225E0,-2.505263520E0,-2.547506729E0,3.955209079E0
1.402927463E1,1.424228536E0,-2.780956814E0,-2.914328295E0,4.272640534E0
1.403926062E1,1.487659131E0,-2.956232658E0,-2.948741498E0,4.432552046E0
1.404924662E1,2.118512889E0,-3.254098302E0,-2.565039605E0,4.653673903E0
1.405923263E1,2.973397452E0,-3.307650027E0,-1.889202341E0,4.832258953E0
1.406921862E1,3.511789189E0,-3.249015025E0,-1.308224455E0,4.959860196E0
1.407920462E1,3.495260280E0,-3.237647453E0,-1.140095663E0,4.898879829E0
1.408919063E1,2.987961697E0,-3.266278929E0,-1.476520770E0,4.666541196E0
1.409917662E1,2.338610857E0,-3.441371171E0,-2.001979051E0,4.617364659E0
1.410916262E1,1.928096557E0,-3.461418642E0,-2.200940065E0,4.532451050E0
1.411914863E1,1.739761834E0,-3.332306566E0,-2.003032719E0,4.259480997E0
1.412913462E1,2.340239891E0,-3.625330130E0,-1.010180179E0,4.431727123E0
1.413912062E1,3.108692667E0,-3.816324752E0,6.869732872E-2,4.922704951E0
1.414910562E1,3.500438574E0,-3.945402037E0,7.994348323E-1,5.334638085E0
1.415909163E1,3.284084578E0,-4.036583518E0,9.805084100E-1,5.295338965E0
1.416907762E1,2.724383833E0,-4.131997214E0,5.935502762E-1,4.984773834E0
1.417906362E1,2.064812061E0,-4.188307070E0,1.810122550E-1,4.673128544E0
1.418904963E1,1.934475870E0,-4.470677592E0,3.806542506E-1,4.886108132E0
1.419903562E1,2.083078762E0,-4.562027765E0,1.242295198E0,5.166682864E0
1.420902162E1,2.140790196E0,-4.547673728E0,2.750582283E0,5.729748851E0
1.421900763E1,2.024874993E0,-4.545499733E0,5.134927722E0,7.150466368E0
1.422899362E1,1.557696496E0,-4.539670351E0,7.444765601E0,8.857740125E0
1.423897962E1,6.183646899E-1,-4.438916979E0,9.085471509E0,1.013075275E1
1.424896563E1,-7.286735827E-1,-4.366227610E0,9.816834226E0,1.076871129E1
1.425895162E1,-2.087502766E0,-4.320992965E0,9.850988982E0,1.095767457E1
1.426893762E1,-2.940516804E0,-3.944772000E0,9.695138465E0,1.087214676E1
1.427892363E1,-3.174131781E0,-3.247107663E0,9.521450433E0,1.054878377E1
1.428890962E1,-2.960515451E0,-2.617233022E0,9.227923715E0,1.003838316E1
1.429889562E1,-2.579023222E0,-2.059127836E0,8.910311732E0,9.501843157E0
1.430888129E1,-2.249441988E0,-1.479219991E0,8.217931232E0,8.647686093E0
1.431886729E1,-1.984401151E0,-1.021340028E0,7.251668320E0,7.587336608E0
1.432885329E1,-1.849801170E0,-6.211541042E-1,6.266544630E0,6.563320683E0
1.433883929E1,-1.785987582E0,-2.422549684E-1,5.278006166E0,5.577256332E0
1.434882529E1,-1.581405786E0,-9.325958133E-2,4.223878899E0,4.511174410E0
1.435881129E1,-1.261406969E0,-1.494634567E-1,3.060821512E0,3.313927458E0
1.436879729E1,-9.744817579E-1,-1.029427166E-1,1.842794890E0,2.087128388E0
1.437878329E1,-8.013363469E-1,7.431840330E-2,6.591804479E-1,1.040279784E0
1.438876929E1,-5.258968216E-1,3.263800295E-1,-1.805345374E-1,6.447356899E-1
1.439875529E1,-1.658638734E-1,4.313533379E-1,-5.588020277E-1,7.251456631E-1
1.440874129E1,-6.328850806E-2,4.855846551E-1,-6.450411496E-1,8.098617025E-1
1.441872729E1,-1.980720913E-1,4.152527373E-1,-6.196323663E-1,7.717588085E-1
1.442871329E1,-5.620671129E-1,2.426252434E-1,-4.366843906E-1,7.519838463E-1
1.443869829E1,-1.037390782E0,-1.236656874E-2,-4.090390474E-2,1.038270531E0
1.444868429E1,-1.497473098E0,-3.903019372E-1,4.223343001E-1,1.604097111E0
1.445867029E1,-1.817014078E0,-7.867760490E-1,7.476498440E-1,2.116491673E0
1.446865629E1,-1.910374816E0,-1.036531972E0,9.718842785E-1,2.380858987E0
1.447864229E1,-1.728301876E0,-1.112000961E0,1.189134799E0,2.374366248E0
1.448862829E1,-1.305068128E0,-1.100961856E0,1.407848585E0,2.212997394E0
1.449861429E1,-8.840878969E-1,-9.722443208E-1,1.499950563E0,1.994172039E0
1.450860029E1,-5.736533707E-1,-8.433265181E-1,1.393381550E0,1.726786017E0
1.451858629E1,-4.078766209E-1,-7.111807600E-1,1.254705183E0,1.498808362E0
1.452857229E1,-3.280440009E-1,-6.250463033E-1,1.130880159E0,1.333111278E0
1.453855829E1,-2.862516117E-1,-5.357091804E-1,9.952387887E-1,1.165943634E0
1.454854429E1,-2.835648161E-1,-5.268240438E-1,8.110367315E-1,1.007835878E0
1.455853029E1,-2.834677523E-1,-5.549570449E-1,6.610654441E-1,9.084815956E-1
1.456851629E1,-1.095288742E-1,-6.363953103E-1,5.787870799E-1,8.671735980E-1
1.457850229E1,1.151755303E-1,-7.383418076E-1,5.089244011E-1,9.041117595E-1
1.458848829E1,2.558817583E-1,-6.976377314E-1,3.935722849E-1,8.408763417E-1
1.459847429E1,2.695601499E-1,-5.760378653E-1,2.866866446E-1,6.976184694E-1
1.460846029E1,1.738172561E-1,-4.400748986E-1,2.842594653E-1,5.519798896E-1
1.461844629E1,-4.984049678E-2,-4.370556888E-1,3.253183213E-1,5.471140287E-1
1.462843229E1,-3.509539765E-1,-4.808700451E-1,3.549929407E-1,6.931267430E-1
1.463841829E1,-6.794031894E-1,-5.378843446E-1,3.392159835E-1,9.305781780E-1
1.464840429E1,-9.540808225E-1,-5.589916237E-1,3.783154374E-1,1.168702024E0
1.465839029E1,-1.145904579E0,-5.490127654E-1,2.752676171E-1,1.300109450E0
1.466837629E1,-1.183347809E0,-5.697433376E-1,2.911211729E-2,1.313684522E0
1.467836229E1,-8.943433285E-1,-6.357388142E-1,-2.102059409E-1,1.117228878E0
1.468834829E1,-2.838758880E-1,-8.245224573E-1,-5.280874810E-1,1.019460244E0
1.469833429E1,4.096290314E-1,-8.463039203E-1,-8.197425047E-1,1.247398911E0
1.470832029E1,9.974431890E-1,-6.114315002E-1,-1.080732975E0,1.592710005E0
1.471830529E1,1.470672385E0,-3.848551096E-1,-1.395217283E0,2.063400588E0
1.472829129E1,1.775324600E0,-3.673593633E-1,-1.769179176E0,2.533125598E0
1.473827729E1,1.964618266E0,-4.573178990E-1,-1.955525554E0,2.809438517E0
1.474826329E1,2.102748211E0,-5.319706169E-1,-1.808784122E0,2.824224279E0
1.475824929E1,2.260092106E0,-6.823811764E-1,-1.478004501E0,2.785346963E0
1.476823529E1,2.337091751E0,-7.812283570E-1,-1.029761627E0,2.670716122E0
1.477822129E1,2.487019622E0,-9.509521236E-1,-3.396790829E-1,2.684205361E0
1.478820729E1,2.565599184E0,-1.174581225E0,5.789196655E-1,2.880466665E0
1.479819329E1,2.740947241E0,-1.679741481E0,1.440734056E0,3.522788362E0
1.480817929E1,2.902534461E0,-2.211459791E0,2.281736160E0,4.303670597E0
1.481816529E1,2.975256282E0,-2.532993063E0,3.160315395E0,5.025514620E0
1.482815129E1,2.922718465E0,-2.623893585E0,4.041163934E0,5.635433144E0
1.483813729E1,2.650241724E0,-2.630002171E0,4.801767992E0,6.082570877E0
1.484812329E1,2.054694039E0,-2.763459899E0,5.570333034E0,6.548823430E0
1.485810929E1,1.214505867E0,-2.888454366E0,6.233959851E0,6.977137561E0
1.486809529E1,4.187144351E-1,-2.961006618E0,6.676611618E0,7.315738149E0
1.487808129E1,-5.332380009E-1,-2.654821848E0,6.888179083E0,7.401312916E0
1.488806729E1,-6.833898211E-1,-2.891346691E0,6.987994562E0,7.593350732E0
1.489805329E1,-3.033956480E-1,-3.193909111E0,6.637040586E0,7.371798428E0
1.490803929E1,-1.005048662E-1,-3.038878374E0,6.119520485E0,6.833257932E0
1.491802529E1,1.655346751E-3,-2.535236055E0,5.626373334E0,6.171183151E0
1.492801129E1,8.989450872E-2,-2.090316153E0,5.058004092E0,5.473655820E0
1.493799729E1,6.010528386E-2,-1.801031883E0,4.413980066E0,4.767656501E0
1.494798329E1,-3.520667017E-2,-1.374549568E0,4.006891357E0,4.236248856E0
1.495796929E1,-2.299101806E-1,-9.947723271E-1,3.840660863E0,3.974054169E0
1.496795529E1,-6.180957180E-1,-9.220680477E-1,3.677569155E0,3.841453721E0
1.497794129E1,-1.021219137E0,-1.055811411E0,3.670988406E0,3.953957782E0
1.498792729E1,-1.264645157E0,-1.248130427E0,3.838053297E0,4.229398308E0
1.499791229E1,-1.585367859E0,-1.444839533E0,3.923495444E0,4.471551075E0
1.500789829E1,-1.921100948E0,-1.684189166E0,3.835330541E0,4.608349201E0
1.501788429E1,-2.241916621E0,-1.940320746E0,3.717254500E0,4.754893874E0
1.502787029E1,-2.451011884E0,-1.953148660E0,3.696633124E0,4.846374459E0
1.503785629E1,-2.589220181E0,-1.892783760E0,3.784045782E0,4.960412684E0
1.504784229E1,-2.961358620E0,-2.127649164E0,3.712057202E0,5.203451212E0
1.505782829E1,-3.430560254E0,-2.305303947E0,3.561609805E0,5.456027341E0
1.506781429E1,-3.598030357E0,-2.353627092E0,3.486916595E0,5.535699620E0
1.507780029E1,-3.769202918E0,-2.475366122E0,3.200600372E0,5.529753232E0
1.508778629E1,-3.975183368E0,-2.674020011E0,2.507774314E0,5.407531585E0
1.509777229E1,-4.073648141E0,-2.891843997E0,1.475961192E0,5.209206496E0
1.510775829E1,-4.141728442E0,-3.025037722E0,3.300495958E-1,5.139426081E0
1.511774429E1,-4.196683499E0,-3.095611861E0,-7.503585666E-1,5.268586448E0
1.512773029E1,-4.304267004E0,-3.029760226E0,-1.748018103E0,5.546325699E0
1.513771629E1,-4.318406741E0,-2.818117039E0,-2.509788095E0,5.734933017E0
1.514770229E1,-4.195204738E0,-2.502256005E0,-2.951255801E0,5.707095470E0
1.515768829E1,-4.101764477E0,-2.129389003E0,-3.203961936E0,5.623534604E0
1.516767429E1,-4.215940719E0,-1.897565613E0,-3.326877426E0,5.695877878E0
1.517766029E1,-4.508122576E0,-1.779197211E0,-3.198754991E0,5.806956636E0
1.518764629E1,-4.729910975E0,-1.769863008E0,-2.976240661E0,5.861952010E0
1.519763229E1,-4.807991184E0,-1.835300075E0,-2.683291941E0,5.803891904E0
1.520761829E1,-4.587778611E0,-2.164808511E0,-2.544378469E0,5.675206627E0
1.521760429E1,-4.082664548E0,-2.514979546E0,-2.502810321E0,5.409004661E0
1.522759029E1,-3.436422672E0,-2.632788662E0,-2.451718520E0,4.975088001E0
1.523757629E1,-2.760763455E0,-2.655379087E0,-2.404073360E0,4.522435370E0
1.524756229E1,-2.391594232E0,-2.582166100E0,-2.301551204E0,4.205287468E0
1.525754829E1,-2.087006337E0,-2.372930797E0,-2.348960429E0,3.937513316E0
1.526753329E1,-1.632726213E0,-2.029416379E0,-2.356990702E0,3.512795311E0
1.527751929E1,-1.148505421E0,-1.737363014E0,-2.194340166E0,3.025330347E0
1.528750529E1,-7.085503900E-1,-1.642481123E0,-2.132372837E0,2.783307710E0
1.529749129E1,-4.337540585E-1,-1.553963779E0,-2.125224031E0,2.668243466E0
1.530747729E1,-1.598236996E-1,-1.593840182E0,-2.303464998E0,2.805676592E0
1.531746287E1,1.629016739E-1,-1.741968281E0,-2.461820754E0,3.020190701E0
1.532744888E1,6.565008152E-1,-1.718860377E0,-2.426779853E0,3.045444921E0
1.533743487E1,1.116607105E0,-1.543104184E0,-2.311164319E0,2.994906086E0
1.534742087E1,1.408037011E0,-1.445928723E0,-2.063066667E0,2.886091157E0
1.535740688E1,1.419877623E0,-1.370956162E0,-1.909995039E0,2.746571374E0
1.536739288E1,1.311774300E0,-1.504859739E0,-2.152424109E0,2.935691433E0
1.537737887E1,1.178142033E0,-1.724811673E0,-2.717926168E0,3.427844310E0
1.538736488E1,1.263241240E0,-1.881393676E0,-3.149838354E0,3.880322442E0
1.539735088E1,1.523520105E0,-1.857732334E0,-3.479373395E0,4.228276499E0
1.540733687E1,1.901746665E0,-1.642555090E0,-3.652383735E0,4.433343495E0
1.541732288E1,2.196238757E0,-1.374923936E0,-3.686267765E0,4.505824070E0
1.542730888E1,2.297490313E0,-1.373508910E0,-3.772862398E0,4.625957105E0
1.543729487E1,2.259330799E0,-1.492209435E0,-3.549758084E0,4.464532127E0
1.544728087E1,1.933878284E0,-1.726385159E0,-3.341499558E0,4.229173705E0
1.545726688E1,1.615113814E0,-2.203873759E0,-3.547827041E0,4.478027344E0
1.546725287E1,1.332005666E0,-2.519906702E0,-3.960536970E0,4.879551411E0
1.547723887E1,1.168718660E0,-2.830547050E0,-4.411381271E0,5.370119610E0
1.548722488E1,1.303425061E0,-3.296570722E0,-4.786468460E0,5.956221599E0
1.549721087E1,1.770796516E0,-3.774347883E0,-5.017605094E0,6.523632663E0
1.550719687E1,2.327221066E0,-4.449155161E0,-5.390013090E0,7.366354637E0
1.551718288E1,2.967939661E0,-4.950199562E0,-5.236385100E0,7.793129695E0
1.552716887E1,3.653085986E0,-5.439924338E0,-4.555496718E0,7.980624309E0
1.553715387E1,3.838688305E0,-6.147816916E0,-3.876753094E0,8.219513081E0
1.554713988E1,3.961233666E0,-6.652314098E0,-2.644192194E0,8.181467312E0
1.555712587E1,3.819400679E0,-6.879198344E0,-7.574600101E-1,7.904741430E0
1.556711187E1,3.151444584E0,-7.184297286E0,1.471472869E0,7.981914737E0
1.557709788E1,2.401438605E0,-7.707448840E0,3.840487493E0,8.939855658E0
1.558708387E1,2.004840093E0,-8.227456346E0,6.217993444E0,1.050589664E1
1.559706987E1,1.706987606E0,-8.283131195E0,8.577281810E0,1.204549012E1
1.560705588E1,1.272464054E0,-7.933113357E0,1.072541202E1,1.340104157E1
1.561704187E1,8.404337543E-1,-7.392400276E0,1.209805758E1,1.420270777E1
1.562702787E1,4.574873221E-1,-6.886969294E0,1.272750801E1,1.447857385E1
1.563701388E1,1.868828595E-2,-6.189041541E0,1.265944876E1,1.409135293E1
1.564699987E1,-2.666909212E-1,-5.438606375E0,1.189715661E1,1.308403221E1
1.565698587E1,-5.726792246E-1,-4.748705095E0,1.120050180E1,1.217905588E1
1.566697188E1,-5.377982444E-1,-4.013337035E0,1.011235017E1,1.089292096E1
1.567695787E1,-2.837706381E-1,-3.505249078E0,8.696489580E0,9.380630464E0
1.568694387E1,-9.752337098E-2,-2.980125843E0,7.200862448E0,7.793784758E0
1.569692988E1,5.056087375E-2,-2.573856330E0,5.773478755E0,6.321419915E0
1.570691587E1,1.470510417E-1,-2.098423903E0,4.468300114E0,4.938695455E0
1.571690187E1,1.456097031E-1,-1.613183649E0,3.303106155E0,3.678868568E0
1.572688788E1,-1.134125948E-2,-1.271968502E0,2.397878820E0,2.714379363E0
1.573687387E1,-3.688300842E-1,-1.095750379E0,1.775837985E0,2.119033996E0
1.574685987E1,-8.689541334E-1,-9.554253897E-1,1.328444127E0,1.852750053E0
1.575684588E1,-1.098894135E0,-8.685147151E-1,1.091277552E0,1.775604918E0
1.576683187E1,-1.034560145E0,-7.452153558E-1,1.204198980E0,1.753783283E0
1.577681787E1,-1.180076292E0,-7.111912850E-1,1.281036072E0,1.881336364E0
1.578680388E1,-1.475115684E0,-8.281059234E-1,1.122701658E0,2.030316408E0
1.579678888E1,-1.700525263E0,-8.290802157E-1,9.267474282E-1,2.106661095E0
1.580677487E1,-1.796270496E0,-7.636356930E-1,7.768242341E-1,2.100757734E0
1.581676087E1,-1.940327178E0,-6.320001045E-1,5.740638087E-1,2.119868616E0
1.582674688E1,-2.062127019E0,-5.043001306E-1,3.960330490E-1,2.159520465E0
1.583673287E1,-1.924670674E0,-4.477682264E-1,3.686768506E-1,2.010168204E0
1.584671887E1,-1.697128031E0,-4.169516458E-1,3.549411929E-1,1.783276613E0
1.585670488E1,-1.484420943E0,-2.969124015E-1,2.785162570E-1,1.539231567E0
1.586669087E1,-1.267845923E0,-1.159597881E-1,2.084572580E-1,1.290090844E0
1.587667687E1,-9.850383210E-1,-1.825793087E-3,2.041969766E-1,1.005982223E0
1.588666288E1,-5.222259396E-1,-2.180001332E-1,2.248358937E-1,6.089295273E-1
1.589664887E1,-6.187289715E-2,-5.149410398E-1,3.002603710E-1,5.992902638E-1
1.590663487E1,2.433061516E-1,-6.039321537E-1,4.631391677E-1,7.990180338E-1
1.591662088E1,5.198899770E-1,-6.439295939E-1,6.379967165E-1,1.044974029E0
1.592660687E1,6.702528816E-1,-6.988907897E-1,7.875972904E-1,1.248197402E0
1.593659287E1,5.937292010E-1,-7.845454824E-1,7.569986647E-1,1.241399596E0
1.594657888E1,4.515062052E-1,-8.737750165E-1,6.712084629E-1,1.190739868E0
1.595656487E1,3.660409623E-1,-9.927005124E-1,6.036935873E-1,1.218148694E0
1.596655087E1,2.078995067E-1,-1.086765986E0,4.663413222E-1,1.200731753E0
1.597653688E1,-5.229749680E-2,-1.155640339E0,1.947818631E-1,1.173106814E0
1.598652287E1,-1.464745063E-1,-1.224391024E0,-1.734592603E-1,1.245261529E0
1.599650887E1,-3.298940599E-2,-1.264913252E0,-5.627157153E-1,1.384825914E0
1.600649488E1,7.909879446E-2,-1.299379372E0,-9.459508538E-1,1.609181901E0
1.601648087E1,3.325141972E-1,-1.311242349E0,-1.307732120E0,1.881511490E0
1.602646687E1,7.111857301E-1,-1.409281883E0,-1.745599110E0,2.353503095E0
1.603645288E1,1.196658996E0,-1.487144869E0,-2.150633399E0,2.875555012E0
1.604643887E1,1.650204125E0,-1.374804946E0,-2.397925597E0,3.219209447E0
1.605642487E1,2.197319323E0,-1.406764949E0,-2.398181705E0,3.543793916E0
1.606641088E1,2.650189099E0,-1.427371268E0,-2.008990739E0,3.618968746E0
1.607639588E1,3.087791210E0,-1.518052958E0,-1.269829883E0,3.667616020E0
1.608638187E1,3.389270141E0,-1.725656596E0,-3.386432487E-1,3.818340218E0
1.609636787E1,3.619480868E0,-2.252035082E0,4.987704188E-1,4.291978063E0
1.610635388E1,3.929543511E0,-2.835908070E0,1.323790328E0,5.023555277E0
1.611633987E1,4.024459024E0,-3.011942298E0,2.076238397E0,5.438642544E0
1.612632587E1,4.009390749E0,-3.225310121E0,2.696879700E0,5.809561057E0
1.613631188E1,3.720121390E0,-3.115839719E0,3.371374445E0,5.908800720E0
1.614629787E1,3.333576581E0,-2.913320820E0,4.157863834E0,6.073549430E0
1.615628387E1,2.831052250E0,-2.846782137E0,4.865335413E0,6.307972262E0
1.616626988E1,2.112085045E0,-2.698010844E0,5.362568014E0,6.363749009E0
1.617625587E1,1.255947424E0,-2.816526597E0,5.610885229E0,6.402519743E0
1.618624187E1,4.078918236E-1,-2.916835581E0,5.635506100E0,6.358713278E0
1.619622788E1,-3.453289551E-1,-2.838655384E0,5.556784451E0,6.249405565E0
1.620621387E1,-7.986466277E-1,-2.749246194E0,5.379036112E0,6.093457193E0
1.621619987E1,-9.374688828E-1,-2.636645485E0,5.052021221E0,5.775263261E0
1.622618588E1,-1.130752105E0,-2.443971836E0,4.688812065E0,5.407083987E0
1.623617187E1,-1.332473443E0,-2.252994756E0,4.456334957E0,5.168209757E0
1.624615787E1,-1.431866754E0,-2.000663719E0,4.274818964E0,4.932238325E0
1.625614388E1,-1.522941231E0,-1.681599580E0,4.219897237E0,4.791102152E0
1.626612987E1,-1.710402380E0,-1.454516528E0,4.225889756E0,4.785314918E0
1.627611587E1,-2.119566557E0,-1.407109643E0,4.157301039E0,4.873979059E0
1.628610188E1,-2.638101150E0,-1.350034386E0,4.150912079E0,5.100219761E0
1.629608787E1,-3.112022656E0,-1.423762805E0,4.119584160E0,5.355628739E0
1.630607387E1,-3.528191798E0,-1.664747612E0,3.892326276E0,5.510873417E0
1.631605992E1,-3.725938200E0,-1.798012674E0,3.780654105E0,5.604356386E0
1.632604592E1,-3.704891147E0,-1.963299719E0,3.660595272E0,5.566032873E0
1.633603192E1,-3.641801444E0,-2.290729762E0,3.369034097E0,5.464480885E0
1.634601692E1,-3.650506779E0,-2.677764568E0,2.846710801E0,5.347932798E0
1.635600292E1,-3.682601561E0,-2.912860644E0,2.184126250E0,5.178486156E0
1.636598892E1,-3.583893544E0,-2.969234819E0,1.550048922E0,4.905435761E0
1.637597492E1,-3.294066945E0,-2.962209975E0,1.183738988E0,4.585499205E0
1.638596092E1,-3.077708856E0,-2.971809933E0,8.298041010E-1,4.358040951E0
