"Time (s)","Linear Acceleration x (m/s^2)","Linear Acceleration y (m/s^2)","Linear Acceleration z (m/s^2)","Absolute acceleration (m/s^2)"
1.214166405E-4,2.486393970E-1,3.122705519E-2,-3.153181207E-1,4.027681665E-1
1.010741666E-2,7.021278083E-2,1.303642577E-1,-6.333248643E-1,6.504037654E-1
2.009341668E-2,6.714123845E-2,1.757860136E-1,-5.442442149E-1,5.758562615E-1
3.007941664E-2,1.679311565E-1,1.151597428E-1,-2.507864946E-1,3.230425755E-1
4.006541666E-2,2.052942798E-1,6.924389720E-2,5.806460559E-2,2.243032702E-1
5.005141668E-2,2.251464540E-1,1.458821833E-1,1.922120849E-1,3.300273060E-1
6.003741664E-2,2.836683118E-1,2.511589622E-1,1.261893457E-1,3.993398132E-1
7.002341666E-2,4.656897962E-1,2.535171443E-1,7.530972563E-2,5.355459677E-1
8.000929165E-2,5.639031386E-1,2.948528659E-1,1.245625041E-2,6.364590486E-1
8.999529167E-2,5.888909224E-1,4.901299882E-1,-4.306072332E-2,7.673813587E-1
9.998129169E-2,6.733840656E-1,6.117742932E-1,-1.535549728E-1,9.226554153E-1
1.099672916E-1,8.011512825E-1,6.755077744E-1,-2.918462276E-1,1.087808968E0
1.199532917E-1,8.499164763E-1,7.470443648E-1,-2.916064187E-1,1.168532243E0
1.299392917E-1,8.883972949E-1,8.525345671E-1,-3.440068996E-1,1.278438770E0
1.399242917E-1,1.033028174E0,1.044613847E0,-5.164195814E-1,1.557258643E0
1.499102917E-1,1.217784109E0,1.192082380E0,-5.101520240E-1,1.778851771E0
1.598962917E-1,1.393729751E0,1.307235106E0,-3.064216186E-1,1.935262373E0
1.698822917E-1,1.486332983E0,1.431137021E0,-9.307122789E-3,2.063352983E0
1.798682917E-1,1.565159589E0,1.597437097E0,1.368558365E-1,2.240593524E0
1.898542917E-1,1.648624500E0,1.605357735E0,1.686735336E-1,2.307289960E0
1.998402917E-1,1.615409976E0,1.494580480E0,2.398475236E-1,2.213785680E0
2.098262917E-1,1.392950610E0,1.356480356E0,3.749953518E-1,1.980144407E0
2.198122917E-1,1.178388201E0,1.240200287E0,6.402291834E-1,1.826633218E0
2.297982917E-1,1.253822545E0,1.343988950E0,7.219095236E-1,1.974722925E0
2.397842917E-1,1.530110209E0,1.610067083E0,3.039318377E-1,2.241858119E0
2.497702917E-1,1.860292537E0,1.887761879E0,-1.591564592E-1,2.655120339E0
2.597562917E-1,2.349187593E0,2.216343239E0,-4.463758582E-1,3.260385116E0
2.697422917E-1,3.127443518E0,2.627362154E0,-4.267071404E-2,4.084820147E0
2.797282917E-1,3.889542709E0,2.660391321E0,7.295407248E-1,4.768485518E0
2.897132917E-1,3.711918331E0,2.275107172E0,1.538810574E0,4.617617169E0
2.996992916E-1,2.371659905E0,2.328934885E0,2.132687125E0,3.949311683E0
3.096852917E-1,1.554890417E0,2.195905466E0,2.461525762E0,3.646751171E0
3.196712917E-1,1.425316118E0,1.200925709E0,2.803073323E0,3.366150420E0
3.296572916E-1,1.272445050E0,-1.932411218E-1,2.482730105E0,2.796499117E0
3.396432917E-1,1.508349796E0,-6.974254775E-1,2.314658323E0,2.849414774E0
3.496292917E-1,7.582042875E-1,-1.981445968E-1,2.862343040E0,2.967683052E0
3.596152916E-1,3.093709908E-1,6.947661638E-2,3.048379807E0,3.064825747E0
3.696012917E-1,3.707590806E-1,-4.114685655E-1,3.195692804E0,3.243334884E0
3.795872917E-1,2.095634050E-1,-1.064376851E0,3.647007805E0,3.804928492E0
3.895732916E-1,-2.634730522E-1,-1.589000734E0,4.442510385E0,4.725488324E0
3.995592917E-1,-7.890269347E-1,-2.483955681E0,5.208923067E0,5.824558253E0
4.095452917E-1,-1.440795744E0,-3.572851077E0,5.410597628E0,6.641966869E0
4.195312916E-1,-2.455703689E0,-3.886115656E0,4.780270119E0,6.631995018E0
4.295172917E-1,-2.770876215E0,-3.734096235E0,3.544413729E0,5.846716888E0
4.395032917E-1,-2.818481321E0,-4.099200473E0,2.512417004E0,5.573106914E0
4.494882917E-1,-2.786279242E0,-4.773225979E0,2.306737685E0,5.988996327E0
4.594742917E-1,-3.206750473E0,-5.545777652E0,2.564119254E0,6.900261293E0
4.694602917E-1,-3.628229472E0,-5.958348418E0,2.246828721E0,7.328997494E0
4.794462917E-1,-3.588307022E0,-6.258716962E0,1.705300099E0,7.413199966E0
4.894322917E-1,-3.891299797E0,-6.963089517E0,1.504962212E0,8.117372789E0
4.994182917E-1,-3.917594141E0,-7.209830323E0,1.140285405E0,8.284289224E0
5.094042917E-1,-3.813606089E0,-7.520128024E0,1.128344221E0,8.507001680E0
5.193902917E-1,-3.741490916E0,-8.467643008E0,1.660809220E0,9.405212366E0
5.293762917E-1,-3.913229780E0,-9.265694974E0,2.186959226E0,1.029316576E1
5.393622917E-1,-3.772580562E0,-9.967226951E0,2.112664504E0,1.086468262E1
5.493482916E-1,-3.448414142E0,-1.056890427E1,1.586077126E0,1.122982361E1
5.593342917E-1,-3.248384403E0,-1.042524403E1,-4.046616755E-2,1.091967728E1
5.693202917E-1,-2.633739127E0,-1.007448944E1,-1.351392109E0,1.050038952E1
5.793062916E-1,-1.481131884E0,-9.767598331E0,-1.133989123E0,9.944126917E0
5.892922917E-1,-5.871291563E-1,-9.050133861E0,-2.314971149E0,9.359953791E0
5.992782917E-1,-1.405837288E-1,-8.806805490E0,-4.238523835E0,9.774695444E0
6.092632916E-1,3.724728996E-1,-8.803669043E0,-5.405166149E0,1.033726975E1
6.192492917E-1,1.466838951E0,-8.830434673E0,-5.820105622E0,1.067716360E1
6.292352917E-1,2.412505045E0,-9.282563607E0,-5.460961450E0,1.103667829E1
6.392212916E-1,2.658408530E0,-9.344200276E0,-5.261326983E0,1.104820240E1
6.492072917E-1,3.061594514E0,-8.460847374E0,-5.414425800E0,1.050120498E1
6.591932917E-1,3.739658691E0,-7.150636035E0,-5.618160335E0,9.832617575E0
6.691792916E-1,4.182575921E0,-5.864499437E0,-5.940599195E0,9.336863166E0
6.791652917E-1,4.293411064E0,-4.722753983E0,-6.660465117E0,9.224943323E0
6.891512917E-1,3.979342493E0,-4.451568014E0,-7.625207752E0,9.684803443E0
6.991372917E-1,3.393155031E0,-5.124664105E0,-8.191573738E0,1.024097474E1
7.091232917E-1,2.728176922E0,-6.108576837E0,-7.979966512E0,1.041333404E1
7.191092917E-1,2.791817433E0,-7.134310609E0,-7.239516052E0,1.054055146E1
7.290952917E-1,2.976616344E0,-7.907275681E0,-6.881085241E0,1.089654017E1
7.390812917E-1,3.405067563E0,-8.512160200E0,-6.969449533E0,1.151627471E1
7.490672917E-1,4.441030455E0,-8.643507375E0,-6.784240147E0,1.185153516E1
7.590532917E-1,5.997806599E0,-7.640813971E0,-7.368105680E0,1.219199342E1
7.690382916E-1,8.765383229E0,-4.972119604E0,-8.541284012E0,1.321012676E1
7.790242917E-1,1.099627493E1,-2.960670110E0,-1.051508065E1,1.550001777E1
7.890102917E-1,1.284981539E1,-1.964110874E0,-1.300703532E1,1.838908521E1
7.989962916E-1,1.359526990E1,-5.374205142E-1,-1.442685857E1,1.983064377E1
8.089822917E-1,1.482486918E1,-2.541755408E-1,-1.580147816E1,2.166859625E1
8.189682917E-1,1.687847681E1,-1.936968830E0,-1.520084866E1,2.279694338E1
8.289542916E-1,1.724786764E1,-3.513253332E0,-1.051205296E1,2.050207659E1
8.389402917E-1,1.736426816E1,-6.638101856E0,-6.710000973E0,1.976376275E1
8.489262917E-1,1.681844578E1,-6.534974513E0,-4.613280072E0,1.862386543E1
8.589122916E-1,1.905874565E1,-4.399400326E0,-4.869393380E0,2.015692191E1
8.688982917E-1,2.309384251E1,-3.205321999E0,-6.564374313E0,2.422169815E1
8.788842917E-1,2.558052534E1,-2.764015676E0,-8.060162244E0,2.696236775E1
8.888702916E-1,2.610420665E1,-4.813203392E0,-7.330232679E0,2.753777120E1
8.988562917E-1,2.353359289E1,-9.854182731E0,-2.579150691E0,2.564345784E1
9.088422917E-1,1.659063826E1,-1.241480243E1,3.395372880E0,2.099774165E1
9.188272917E-1,9.791697630E0,-1.247199170E1,8.326723357E0,1.790983644E1
9.288132917E-1,5.043921658E0,-1.077297093E1,1.176365532E1,1.672966332E1
9.387992917E-1,3.123546934E0,-8.292306061E0,1.295212529E1,1.569319709E1
9.487852917E-1,2.657392868E0,-5.223534674E0,1.304152688E1,1.429784860E1
9.587712917E-1,2.835381236E0,-2.747669200E0,1.158755941E1,1.224175665E1
9.687572917E-1,2.750733141E0,-1.780093004E0,1.015310058E1,1.066867917E1
9.787432917E-1,1.658291409E0,-5.677009052E-1,8.457716190E0,8.637428892E0
9.887292917E-1,5.060933255E-1,-9.165709341E-1,5.617705421E0,5.714441962E0
9.987152917E-1,-5.333321410E-1,-2.090736861E0,2.822023564E0,3.552385225E0
1.008701292E0,-1.379247221E0,-2.841045141E0,1.723701287E0,3.597916969E0
1.018687292E0,-2.067134721E0,-3.344848258E0,2.839254139E0,4.849991742E0
1.028673292E0,-2.579078186E0,-3.628038268E0,4.559476917E0,6.372058986E0
1.038659292E0,-2.599051105E0,-3.423189254E0,5.618011231E0,7.073566392E0
1.048645292E0,-2.651112666E0,-3.048269879E0,5.529297275E0,6.847881131E0
1.058631292E0,-2.492205226E0,-2.694263656E0,4.533035223E0,5.832542488E0
1.068616292E0,-1.842574596E0,-2.063553740E0,3.663111037E0,4.590394063E0
1.078602625E0,-9.394920925E-1,-1.402405558E0,3.129077230E0,3.555349638E0
1.088588625E0,-4.463586820E-1,-1.268680320E0,2.545100015E0,2.878596866E0
1.098574625E0,-6.052531859E-1,-1.468472078E0,1.787673334E0,2.391342220E0
1.108560625E0,-1.005036164E0,-1.893140148E0,1.114512632E0,2.415826094E0
1.118546625E0,-1.441822808E0,-2.377402455E0,5.941718352E-1,2.843226268E0
1.128532625E0,-1.598448373E0,-2.468267017E0,2.315795606E-1,2.949747169E0
1.138518625E0,-1.068563019E0,-1.971249593E0,5.136960214E-1,2.300333778E0
1.148504625E0,-3.407526317E-1,-1.298440309E0,6.098499745E-1,1.474441109E0
1.158490625E0,2.289711177E-1,-5.702204704E-1,4.289172417E-1,7.493658371E-1
1.168476625E0,5.938588630E-1,1.481035405E-1,1.892234999E-1,6.406313610E-1
1.178462625E0,7.904615490E-1,4.037455630E-1,9.171299279E-2,8.923290947E-1
1.188448625E0,7.410867830E-1,3.340292108E-1,-1.451582980E-1,8.257457630E-1
1.198434625E0,5.598529185E-1,3.163349515E-1,-6.218461221E-1,8.945365792E-1
1.208420625E0,3.640407760E-1,1.001937944E-1,-1.099502830E0,1.162527830E0
1.218406625E0,1.678748770E-1,-1.052405262E-1,-1.345393451E0,1.359904806E0
1.228392625E0,-1.610405052E-1,-2.165434456E-1,-1.656022105E0,1.677866002E0
1.238377625E0,-1.854745576E-1,-6.948129416E-2,-1.945406070E0,1.955462410E0
1.248363625E0,2.723808467E-1,3.072279131E-1,-1.903479195E0,1.947257908E0
1.258349625E0,8.874151088E-1,7.821902239E-1,-1.768244206E0,2.127443230E0
1.268335625E0,1.386815273E0,1.299710324E0,-1.899532909E0,2.687141381E0
1.278321625E0,1.914627788E0,1.711415702E0,-2.295105234E0,3.444161917E0
1.288307625E0,2.514920197E0,1.996677965E0,-2.548874978E0,4.099793915E0
1.298293625E0,2.760557048E0,2.239906933E0,-2.806923714E0,4.529534085E0
1.308279625E0,2.526787121E0,2.120935975E0,-3.063382593E0,4.501925752E0
1.318265625E0,2.261374401E0,1.975717451E0,-3.176263676E0,4.371032437E0
1.328251625E0,2.120273486E0,2.037014982E0,-3.344009768E0,4.452795865E0
1.338237625E0,2.338177871E0,2.222192793E0,-3.696501562E0,4.906051403E0
1.348223625E0,3.339661778E0,2.817532902E0,-4.252862377E0,6.097431496E0
1.358209625E0,4.659563123E0,3.531542253E0,-5.172274473E0,7.806134921E0
1.368195625E0,5.499080034E0,3.674734717E0,-5.646271994E0,8.696202843E0
1.378181625E0,5.719726471E0,3.478068881E0,-5.361372843E0,8.576511692E0
1.388167625E0,5.661017502E0,2.736426174E0,-4.768411966E0,7.891318017E0
1.398152625E0,5.279774364E0,1.529623429E0,-3.732784997E0,6.644505173E0
1.408138625E0,4.702455958E0,6.346404147E-1,-2.635127256E0,5.427684234E0
1.418124625E0,3.933898517E0,-1.113619763E-1,-1.642092283E0,4.264320122E0
1.428110625E0,3.291863129E0,-1.524480218E-1,-1.388662847E0,3.576029609E0
1.438096625E0,3.368774480E0,-2.070768034E-1,-2.345942242E0,4.110348806E0
1.448082625E0,3.582555409E0,-6.622223157E-1,-2.738155196E0,4.557492241E0
1.458068625E0,3.540476798E0,-1.209958488E0,-2.256135149E0,4.369109900E0
1.468054625E0,2.854543439E0,-2.205059867E0,-1.462629540E0,3.892299119E0
1.478040625E0,1.875999328E0,-3.292220394E0,1.867951512E-2,3.789252898E0
1.488026625E0,2.930545548E-1,-4.752908074E0,1.875702581E0,5.118034418E0
1.498012625E0,-1.823529338E0,-5.795216364E0,3.285353424E0,6.906760389E0
1.507998625E0,-3.664088399E0,-6.030486687E0,4.098173702E0,8.160106689E0
1.517984625E0,-4.059711595E0,-5.928934000E0,4.911847674E0,8.704008512E0
1.527970625E0,-3.728839881E0,-6.211135245E0,5.539083175E0,9.119423792E0
1.537956625E0,-3.869662468E0,-6.886456493E0,5.497369723E0,9.623858089E0
1.547941625E0,-3.231913674E0,-6.678448228E0,4.135048583E0,8.493854456E0
1.557927625E0,-1.951345087E0,-6.757562810E0,3.068331091E0,7.673790359E0
1.567913625E0,-1.203356104E0,-7.194025299E0,4.288117579E0,8.461088481E0
1.577899625E0,-8.439412066E-1,-7.376229216E0,6.419406050E0,9.814772960E0
1.587885625E0,-5.666408050E-1,-8.407227822E0,7.563588624E0,1.132300465E1
1.597871625E0,-2.017681456E0,-1.011274310E1,7.999890314E0,1.305131627E1
1.607857625E0,-3.883225670E0,-1.130029038E1,8.279783664E0,1.453722194E1
1.617843625E0,-3.730226548E0,-1.274537710E1,7.880938652E0,1.544242279E1
1.627829625E0,-2.326593660E0,-1.375796516E1,5.850377827E0,1.513015414E1
1.637815625E0,-1.123995208E0,-1.388011818E1,3.553765765E0,1.437185781E1
1.647801625E0,-1.135266886E-1,-1.432525033E1,2.326046945E0,1.451331044E1
1.657787625E0,1.815453456E0,-1.289436299E1,-3.199596405E-3,1.302153902E1
1.667773625E0,2.790548002E0,-9.318190107E0,-1.600920868E0,9.857929430E0
1.677759625E0,1.067103847E0,-9.414563915E0,-1.683985244E0,9.623332616E0
1.687745625E0,-7.179519819E-1,-1.196114386E1,-2.827235187E0,1.231168861E1
1.697731625E0,-9.256206697E-1,-1.390091672E1,-3.732709275E0,1.442308490E1
1.707717625E0,1.199570909E-1,-1.590462889E1,-3.708278439E0,1.633165450E1
1.717702625E0,2.481193457E0,-1.639868236E1,-3.097325387E0,1.687206356E1
1.727688625E0,5.440475146E0,-1.480923139E1,-2.873242249E0,1.603644677E1
1.737674625E0,1.019703890E1,-1.059944194E1,-3.521491474E0,1.512377843E1
1.747660625E0,1.211063495E1,-3.742613289E0,-7.594546123E0,1.477673049E1
1.757646625E0,1.125612051E1,1.019860829E0,-1.291735424E1,1.716386919E1
1.767632625E0,1.155626043E1,2.974643494E0,-1.539563929E1,1.947874144E1
1.777618625E0,1.111311516E1,1.903471886E0,-1.372394840E1,1.776151158E1
1.787604625E0,9.601597633E0,-1.212140376E0,-8.491551104E0,1.287503016E1
1.797590625E0,6.770974569E0,-4.419179702E0,-3.233661114E0,8.708146189E0
1.807576625E0,3.992356056E0,-6.503379668E0,-1.282002032E0,7.737983148E0
1.817562625E0,2.098791985E0,-7.704460913E0,-2.183980654E0,8.278491243E0
1.827548625E0,1.326946655E0,-8.214685442E0,-3.373100835E0,8.978844780E0
1.837534625E0,1.901195272E0,-7.693297409E0,-3.171361370E0,8.535742582E0
1.847520625E0,2.848599159E0,-7.138542824E0,-3.141976773E0,8.303332395E0
1.857506625E0,4.028237495E0,-6.215451660E0,-4.120151632E0,8.475505066E0
1.867492625E0,5.316017160E0,-5.010411850E0,-5.716616921E0,9.275989132E0
1.877477625E0,7.066454256E0,-3.835466782E0,-7.321720887E0,1.087442771E1
1.887463625E0,8.056942767E0,-2.348168423E0,-8.368015809E0,1.185124087E1
1.897449625E0,8.836905786E0,-2.020843045E0,-8.694358270E0,1.256051656E1
1.907435625E0,9.745114617E0,-1.667835088E0,-8.462920212E0,1.301422112E1
1.917421625E0,1.064273473E1,-9.495309578E-1,-7.764679048E0,1.320831754E1
1.927407625E0,1.137496985E1,-5.730848752E-1,-6.650321367E0,1.318882632E1
1.937393625E0,1.140227868E1,-1.286113501E0,-5.174339710E0,1.258728877E1
1.947379625E0,1.047603996E1,-2.607674578E0,-3.524185871E0,1.135637557E1
1.957365625E0,9.066271591E0,-3.760701359E0,-2.637774875E0,1.016356294E1
1.967351625E0,8.291345363E0,-4.537237910E0,-1.647844189E0,9.594181896E0
1.977337625E0,8.022193934E0,-4.986181573E0,-6.703774273E-1,9.469266502E0
1.987323625E0,8.294223948E0,-4.403052789E0,2.259755892E-1,9.393193798E0
1.997309625E0,9.242714247E0,-2.481938684E0,3.802660686E-1,9.577702677E0
2.007295625E0,1.139149291E1,1.051295387E-1,-3.871651983E-1,1.139855516E1
2.017281625E0,1.414479122E1,2.548106361E0,-1.570451612E0,1.445801795E1
2.027267625E0,1.642162215E1,3.337772543E0,-2.244260770E0,1.690701352E1
2.037252625E0,1.786796369E1,-3.492047819E-1,-1.960702386E0,1.797861019E1
2.047238625E0,1.508750857E1,-5.575104947E0,4.801885521E-1,1.609177712E1
2.057224625E0,1.127648169E1,-6.743678597E0,3.979814948E0,1.372862583E1
2.067210625E0,8.727306161E0,-6.741805149E0,5.904209633E0,1.250909673E1
2.077196750E0,8.074711286E0,-5.471466558E0,7.399422782E0,1.224293127E1
2.087182750E0,8.697574823E0,-2.117335845E0,6.351339197E0,1.097590217E1
2.097168750E0,8.736250647E0,7.256970575E-1,4.054364024E0,9.658497772E0
2.107154750E0,7.586001586E0,9.577031726E-1,1.204537534E0,7.740512005E0
2.117140750E0,5.210511755E0,-7.299143618E-1,2.997826535E-1,5.269921951E0
2.127126750E0,2.211897455E0,-2.838615038E0,2.465518241E0,4.362224878E0
2.137112750E0,-6.928110011E-1,-4.794914471E0,6.098512609E0,7.788648657E0
2.147098750E0,-2.832390677E0,-5.411113937E0,9.423679140E0,1.122979606E1
2.157084750E0,-3.448612363E0,-5.000727691E0,1.034731000E1,1.199862613E1
2.167070750E0,-3.349644729E0,-4.509889605E0,9.456803616E0,1.099956175E1
2.177056750E0,-3.196771908E0,-3.709784682E0,7.717538211E0,9.140144914E0
2.187042750E0,-2.636087369E0,-2.148636575E0,4.538125809E0,5.670994764E0
2.197027750E0,-1.211512678E0,-7.279380029E-1,2.191386738E0,2.607648853E0
2.207013750E0,8.356533632E-2,1.809736633E-1,1.446562561E0,1.460232130E0
2.216999750E0,2.897530706E-1,3.446676350E-1,1.584712971E0,1.647442813E0
2.226985750E0,3.348174155E-2,-2.247751558E-1,2.029589018E0,2.042272382E0
2.236971750E0,-7.181412855E-1,-1.157845178E0,2.376552855E0,2.739404285E0
2.246957750E0,-1.488714992E0,-2.054848405E0,2.531763101E0,3.584480255E0
2.256943750E0,-2.078707822E0,-2.514880435E0,1.895228189E0,3.773266450E0
2.266929750E0,-2.254557278E0,-2.607341872E0,8.591448444E-1,3.552378080E0
2.276915750E0,-1.980351369E0,-2.376880299E0,9.139198065E-4,3.093760226E0
2.286901750E0,-1.420133438E0,-1.708154125E0,-7.049607843E-1,2.330566284E0
2.296887750E0,-8.814876401E-1,-1.048249646E0,-1.094834998E0,1.753428485E0
2.306873750E0,-8.103743881E-2,-4.890324658E-1,-1.259880261E0,1.353889985E0
2.316859750E0,4.556004256E-1,-7.987822831E-2,-1.110880342E0,1.203331797E0
2.326845750E0,3.708862576E-1,-1.229996896E-1,-9.572389036E-1,1.033920625E0
2.336831750E0,9.629399389E-2,-4.110610145E-1,-9.145799571E-1,1.007323279E0
2.346817750E0,1.567053795E-3,-4.174578685E-1,-9.350767869E-1,1.024032287E0
2.356802750E0,-1.290100425E-2,-2.741016823E-1,-1.158150403E0,1.190214487E0
2.366788750E0,-1.419686419E-1,-2.740958351E-1,-1.372208782E0,1.406499400E0
2.376774750E0,-4.363630861E-2,-1.790557766E-1,-1.678040380E0,1.688130509E0
2.386760750E0,2.124711522E-1,2.718101585E-1,-2.407888083E0,2.432478114E0
2.396746750E0,2.107719514E-1,5.225925601E-1,-3.237131436E0,3.285810058E0
2.406732750E0,6.029713100E-1,6.830173534E-1,-3.611246819E0,3.724404743E0
2.416718750E0,1.610279044E0,1.340368938E0,-3.572663382E0,4.141679747E0
2.426704750E0,1.946579460E0,1.818433197E0,-3.595438287E0,4.474711986E0
2.436690750E0,1.693618824E0,1.421769782E0,-3.762987912E0,4.364613621E0
2.446676750E0,1.120206797E0,8.384310830E-1,-3.921461490E0,4.163615036E0
2.456662750E0,8.811808075E-1,7.633054715E-1,-4.044682204E0,4.209343059E0
2.466648750E0,1.121688043E0,9.416373628E-1,-4.406214378E0,4.643230571E0
2.476634750E0,2.203963075E0,1.518119032E0,-4.998056683E0,5.669454051E0
2.486620750E0,3.562271418E0,2.379523825E0,-5.619929118E0,7.066506532E0
2.496606750E0,4.261846624E0,2.772442684E0,-6.153680504E0,7.982327908E0
2.506592750E0,4.854037130E0,2.662137299E0,-6.386734148E0,8.452160939E0
2.516577750E0,5.137606916E0,2.461623995E0,-6.082482467E0,8.333738086E0
2.526563750E0,4.775760454E0,1.784054493E0,-5.324712555E0,7.371790972E0
2.536549750E0,4.421699852E0,9.705670470E-1,-4.351838781E0,6.279484911E0
2.546535750E0,4.118392205E0,4.746945083E-1,-3.374234025E0,5.345273097E0
2.556521750E0,3.971513656E0,-1.101089180E-1,-2.314817367E0,4.598197923E0
2.566507750E0,3.536519403E0,-8.534110647E-1,-1.457406807E0,3.919096137E0
2.576493750E0,2.455365720E0,-1.549255455E0,-1.105194510E0,3.106520270E0
2.586479750E0,1.827252845E0,-1.694383932E0,-1.152611628E0,2.745597100E0
2.596465750E0,2.049543226E0,-1.388874516E0,-1.374569010E0,2.831790921E0
2.606451750E0,2.119777788E0,-1.428287088E0,-1.455939156E0,2.941635719E0
2.616437750E0,1.807534572E0,-1.977154697E0,-1.323176955E0,2.987828505E0
2.626423750E0,1.494451696E0,-2.642750856E0,-6.218595707E-1,3.099068776E0
2.636409750E0,1.233181436E0,-3.176592874E0,1.356928436E-1,3.410262642E0
2.646395750E0,5.780153936E-1,-3.943324229E0,1.058713823E0,4.123685576E0
2.656381750E0,-2.715169206E-1,-4.432572457E0,2.925092434E0,5.317667325E0
2.666367750E0,-5.627079678E-1,-4.787851619E0,4.993588825E0,6.940899995E0
2.676353750E0,-8.483415288E-1,-4.822519176E0,6.330952295E0,8.003582418E0
2.686338750E0,-1.373309228E0,-4.898789672E0,6.845837055E0,8.529337810E0
2.696324750E0,-1.531637502E0,-5.068105157E0,7.026865683E0,8.798206899E0
2.706310750E0,-1.307114654E0,-5.060003840E0,6.377234176E0,8.245077520E0
2.716296750E0,-6.014945957E-1,-5.187794738E0,5.941002653E0,7.910153128E0
2.726282750E0,-6.182261109E-3,-5.294661959E0,6.447490811E0,8.342878475E0
2.736268750E0,1.992994219E-2,-5.577694094E0,7.013693075E0,8.961191838E0
2.746254750E0,-7.358282357E-2,-6.083468308E0,6.613030164E0,8.985887215E0
2.756240750E0,-6.039589047E-1,-6.849361172E0,5.418508326E0,8.754355905E0
2.766226750E0,-1.511882392E0,-7.716702059E0,4.623886921E0,9.122149379E0
2.776212750E0,-2.318149988E0,-8.967832546E0,4.402672135E0,1.025569899E1
2.786198750E0,-2.878054508E0,-1.040264571E1,4.052769488E0,1.152923137E1
2.796184750E0,-3.237548635E0,-1.229567710E1,3.520338988E0,1.319311120E1
2.806170750E0,-2.679267302E0,-1.365190603E1,3.018278925E0,1.423597623E1
2.816156750E0,-1.038618258E0,-1.369774118E1,2.799174399E0,1.401935158E1
2.826142750E0,1.253726213E0,-1.265772968E1,2.455061080E0,1.295443071E1
2.836128750E0,1.848090567E0,-1.146095900E1,1.013269848E0,1.165314274E1
2.846114750E0,5.614190952E-1,-1.170763432E1,-9.402719649E-1,1.175874160E1
2.856099750E0,-6.592954919E-2,-1.312321950E1,-2.094735771E0,1.328951296E1
2.866085750E0,2.527935514E-1,-1.458309383E1,-2.160030459E0,1.474436373E1
2.876071750E0,2.915952944E0,-1.387507905E1,-2.855345092E0,1.446283498E1
2.886057750E0,5.364106416E0,-8.606706169E0,-4.392854075E0,1.105197700E1
2.896043750E0,5.417875072E0,-6.528932585E0,-8.772092324E0,1.220368529E1
2.906029750E0,6.173259321E0,-4.861044726E0,-1.331724766E1,1.546246978E1
2.916015750E0,7.720226176E0,-2.159926963E0,-1.514703790E1,1.713767586E1
2.926001750E0,8.325030588E0,-1.018998950E0,-1.565312494E1,1.775851383E1
2.935987750E0,7.916055275E0,-1.282672123E0,-1.299488364E1,1.527010739E1
2.945973750E0,7.082122455E0,-2.912289956E0,-8.437676028E0,1.139439634E1
2.955959750E0,5.962243833E0,-5.533915406E0,-5.415933212E0,9.772661040E0
2.965945750E0,4.223411121E0,-7.579401249E0,-4.427359664E0,9.740946484E0
2.975931750E0,2.770112568E0,-8.227875007E0,-3.893775508E0,9.514879846E0
2.985917750E0,2.217358316E0,-8.188498102E0,-3.459405738E0,9.161641072E0
2.995903750E0,2.611667057E0,-7.850175866E0,-3.548823699E0,9.002233922E0
3.005889750E0,3.640553064E0,-6.348009208E0,-4.417679014E0,8.547908246E0
3.015874750E0,3.978731459E0,-4.433595428E0,-6.340162829E0,8.699697531E0
3.025860750E0,3.522986022E0,-3.811840522E0,-8.884081707E0,1.028924032E1
3.035846750E0,3.691436119E0,-4.617739744E0,-9.735369648E0,1.138980435E1
3.045832750E0,4.173165413E0,-5.749322737E0,-8.117832162E0,1.078745663E1
3.055818750E0,4.212445253E0,-6.626737207E0,-6.362800909E0,1.010661053E1
3.065804750E0,4.128355275E0,-7.471647590E0,-5.395879601E0,1.009873020E1
3.075790750E0,4.375224720E0,-8.061575516E0,-4.923190688E0,1.041006233E1
3.085776375E0,5.124439571E0,-7.393584922E0,-4.599898134E0,1.010366477E1
3.095762375E0,6.676887606E0,-6.068612287E0,-4.472876438E0,1.007052664E1
3.105748375E0,8.359043257E0,-4.049114978E0,-4.946434540E0,1.052312458E1
3.115734375E0,1.008756148E1,-1.954583859E0,-6.093447751E0,1.194610397E1
3.125720375E0,1.251867353E1,-5.038172968E-1,-6.967552112E0,1.433589207E1
3.135706375E0,1.412055101E1,-3.674495566E-1,-7.618156595E0,1.604871614E1
3.145692375E0,1.434927537E1,-2.054025410E0,-5.857244212E0,1.563419438E1
3.155678375E0,1.294394971E1,-4.180404266E0,-2.582254978E0,1.384520331E1
3.165664375E0,1.121974849E1,-5.302594877E0,3.068028206E-1,1.241347641E1
3.175649375E0,1.053509099E1,-4.993037433E0,2.071942155E0,1.184109409E1
3.185635375E0,1.190825463E1,-3.384243582E0,1.818501610E0,1.251265683E1
3.195621375E0,1.395966838E1,-1.209866833E0,-1.301175052E0,1.407228395E1
3.205607375E0,1.599468186E1,8.530637401E-1,-5.800926754E0,1.703550166E1
3.215593375E0,1.814111871E1,1.356424662E0,-8.120592048E0,1.992194998E1
3.225579375E0,1.902810624E1,-6.752320781E-1,-8.574794989E0,2.088185515E1
3.235565375E0,1.743326998E1,-6.435140322E0,-4.818366483E0,1.919756727E1
3.245551375E0,1.233742037E1,-1.139339910E1,2.444019198E0,1.697040702E1
3.255537375E0,4.408459125E0,-1.176622693E1,1.285066558E1,1.797270747E1
3.265523375E0,-2.571144976E-1,-8.894331876E0,1.880736099E1,2.080605860E1
3.275509375E0,-2.442604172E-1,-6.750156727E0,1.721139271E1,1.848935688E1
3.285495375E0,1.616896631E0,-4.170517501E0,1.286990876E1,1.362505495E1
3.295481375E0,2.057384343E0,-7.504749262E-1,8.118524473E0,8.408714680E0
3.305467375E0,2.043960305E0,1.280706289E0,2.026741424E0,3.150502044E0
3.315453375E0,1.723428514E0,2.193627976E0,-3.234538781E0,4.271352323E0
3.325439375E0,1.224916835E0,2.399789105E0,-3.950360184E0,4.781710424E0
3.335425375E0,4.287216523E-1,1.320978987E0,-1.660204033E0,2.164501137E0
3.345410375E0,-1.387743080E0,-1.105477515E0,1.171251090E0,2.125968134E0
3.355396375E0,-3.222551404E0,-3.300303585E0,3.451611984E0,5.761116784E0
3.365382375E0,-4.253952591E0,-3.961518425E0,5.217696814E0,7.811152343E0
3.375368375E0,-4.172299440E0,-3.799661649E0,5.816632960E0,8.104241498E0
3.385354375E0,-3.342766942E0,-3.241576490E0,4.965134520E0,6.806942762E0
3.395340375E0,-2.159182905E0,-2.212465950E0,3.652893028E0,4.785467989E0
3.405326375E0,-9.377539346E-1,-9.138361913E-1,1.673443884E0,2.124827866E0
3.415312375E0,-2.761359286E-1,-6.996135056E-2,-4.333886075E-1,5.186244564E-1
3.425298375E0,-1.041544059E-1,1.378656507E-2,-1.067895121E0,1.073050884E0
3.435284375E0,-3.944900054E-1,-3.268096536E-1,-7.160090983E-1,8.803953333E-1
3.445270375E0,-8.467888007E-1,-1.004441137E0,-1.151106262E-1,1.318788735E0
3.455256375E0,-1.185463332E0,-1.723349285E0,1.709743398E-1,2.098687278E0
3.465242375E0,-1.400791141E0,-2.015055764E0,4.108680564E-1,2.488268095E0
3.475228375E0,-1.378499216E0,-1.891161450E0,4.519798297E-1,2.383492707E0
3.485214375E0,-9.656416449E-1,-1.433626766E0,1.406845933E-1,1.734226526E0
3.495200375E0,-4.863421619E-1,-7.954271507E-1,-3.243924147E-1,9.871491727E-1
3.505185375E0,-2.032132557E-1,-3.058865619E-1,-9.510151273E-1,1.019456712E0
3.515171375E0,-4.659441501E-2,-6.316162348E-3,-1.646953073E0,1.647624156E0
3.525157375E0,2.122100741E-1,1.026806152E-1,-1.767126219E0,1.782781954E0
3.535143375E0,4.026568115E-1,3.098030269E-2,-1.344224592E0,1.403578299E0
3.545129375E0,3.744475043E-1,-1.725355464E-1,-9.635381091E-1,1.048038709E0
3.555115375E0,1.804760653E-1,-5.014268088E-1,-1.110293866E0,1.231565234E0
3.565101375E0,7.243940055E-2,-4.604331493E-1,-1.178187057E0,1.267032317E0
3.575087375E0,1.013509583E-1,-3.272341615E-1,-8.081349045E-1,8.777449727E-1
3.585073375E0,2.644412050E-1,-1.869436705E-1,-4.538310581E-1,5.575300137E-1
3.595059375E0,5.135568577E-1,1.228997022E-1,-4.238681710E-1,6.771330809E-1
3.605045375E0,7.057308626E-1,3.436817944E-1,-6.367582762E-1,1.010759283E0
3.615031375E0,7.427530932E-1,2.927390975E-1,-9.834075326E-1,1.266676246E0
3.625017375E0,8.966468391E-1,3.803274643E-1,-1.266322138E0,1.597559480E0
3.635003375E0,1.305775349E0,6.123426425E-1,-1.399944465E0,2.009939620E0
3.644989375E0,1.835514961E0,9.517121154E-1,-1.813764780E0,2.750384300E0
3.654975375E0,1.948380548E0,1.085363678E0,-2.675394107E0,3.483092692E0
3.664961375E0,2.130429515E0,1.056691271E0,-3.442897294E0,4.184359944E0
3.674946375E0,2.439640511E0,1.107888907E0,-3.669295052E0,4.543455715E0
3.684932375E0,2.918798784E0,1.351063496E0,-3.738776931E0,4.931856836E0
3.694918375E0,3.467450630E0,1.822299961E0,-4.080061367E0,5.656049131E0
3.704904375E0,4.114493574E0,2.274578583E0,-4.623272379E0,6.593740410E0
3.714890375E0,4.773925598E0,2.608544059E0,-5.248799323E0,7.559415458E0
3.724876375E0,5.322697020E0,2.854872052E0,-5.929595320E0,8.464130118E0
3.734862375E0,5.950543554E0,2.782453117E0,-6.529812591E0,9.262260330E0
3.744848375E0,7.538353795E0,2.657595182E0,-6.985399568E0,1.061533783E1
3.754834375E0,8.873458486E0,2.550689954E0,-7.269140385E0,1.175094408E1
3.764820375E0,9.215286128E0,1.444987321E0,-7.662831661E0,1.207180500E1
3.774806375E0,8.957176580E0,4.894441098E-1,-7.576548393E0,1.174200381E1
3.784792375E0,8.115193314E0,1.300186872E-2,-7.494946990E0,1.104675346E1
3.794778375E0,7.183536564E0,-1.124814842E0,-7.117874086E0,1.017509398E1
3.804764375E0,6.402790017E0,-1.925943612E0,-5.980996438E0,8.970913955E0
3.814750375E0,5.452015210E0,-2.512294212E0,-4.566863705E0,7.542700853E0
3.824736375E0,4.912131264E0,-2.855294806E0,-3.412136847E0,6.627550064E0
3.834721375E0,4.935386810E0,-3.019529645E0,-2.922509719E0,6.482026327E0
3.844707375E0,4.563439283E0,-3.517147577E0,-3.048842322E0,6.518492515E0
3.854693375E0,3.656050232E0,-4.405457749E0,-3.026898306E0,6.475868639E0
3.864679375E0,2.456083466E0,-5.401111105E0,-2.698629772E0,6.518201424E0
3.874665375E0,9.125495115E-1,-6.511390938E0,-1.771458859E0,6.809480527E0
3.884651375E0,-4.541643494E-1,-7.242355460E0,-7.225801992E-1,7.292468718E0
3.894637375E0,-1.677170022E0,-7.865231277E0,3.987017548E-1,8.051939233E0
3.904623375E0,-2.939305846E0,-8.488783032E0,1.970742055E0,9.196889717E0
3.914609375E0,-3.550138153E0,-8.777985148E0,3.003122942E0,9.933541744E0
3.924595375E0,-4.016368232E0,-9.381978552E0,3.907374963E0,1.092796021E1
3.934581375E0,-4.726955207E0,-9.834733722E0,4.638687101E0,1.185679176E1
3.944567375E0,-5.043514107E0,-9.712970719E0,3.969535543E0,1.164199498E1
3.954553375E0,-4.619720780E0,-9.921188314E0,3.640156330E0,1.153353960E1
3.964539375E0,-4.288094190E0,-1.059917648E1,5.306859251E0,1.260527861E1
3.974525375E0,-4.510098935E0,-1.139042521E1,7.304403774E0,1.426313757E1
3.984511375E0,-4.905473040E0,-1.253096672E1,8.122626879E0,1.571832880E1
3.994497375E0,-5.214002543E0,-1.360537622E1,7.417376073E0,1.634960405E1
4.004482375E0,-4.916621926E0,-1.445538830E1,5.849867365E0,1.635091344E1
4.014468375E0,-4.474133297E0,-1.522159224E1,3.971976755E0,1.635516244E1
4.024454375E0,-3.807443708E0,-1.564164803E1,2.398614399E0,1.627609080E1
4.034440375E0,-2.671720009E0,-1.572052696E1,2.024387920E0,1.607392927E1
4.044426375E0,-1.544319236E0,-1.632359241E1,2.704699767E0,1.661806222E1
4.054412375E0,-9.731770979E-1,-1.729714797E1,3.544392679E0,1.768335718E1
4.064398375E0,-1.219491642E-1,-1.836062552E1,4.063081638E0,1.880521400E1
4.074384375E0,1.757795817E0,-1.921401145E1,4.664906309E0,1.985017463E1
4.084370625E0,4.199988637E0,-1.799781164E1,4.461001327E0,1.901214510E1
4.094356625E0,4.775465462E0,-1.745045261E1,2.306262160E0,1.823848162E1
4.104342625E0,5.430692754E0,-1.721501447E1,-1.327561197E0,1.810004326E1
4.114328625E0,7.546071535E0,-1.371374852E1,-5.845456810E0,1.670866420E1
4.124314625E0,8.413215371E0,-1.067312387E1,-1.053518455E1,1.719557733E1
4.134300625E0,9.287910300E0,-9.822361014E0,-1.282093599E1,1.863116887E1
4.144286625E0,1.008083601E1,-9.224070985E0,-1.135603539E1,1.776699975E1
4.154272625E0,1.090371233E1,-8.187740888E0,-7.954462126E0,1.578618102E1
4.164258625E0,1.261264063E1,-6.564238658E0,-6.122586765E0,1.548076230E1
4.174244625E0,1.295932204E1,-3.327070384E0,-7.491878371E0,1.533432968E1
4.184229625E0,1.163893304E1,-2.116630086E0,-9.882487932E0,1.541455329E1
4.194215625E0,1.070651381E1,-3.032127179E0,-1.080109604E1,1.550764034E1
4.204201625E0,9.120450722E0,-4.235976203E0,-9.871309226E0,1.409144640E1
4.214187625E0,6.936255475E0,-5.720660856E0,-8.372514657E0,1.228562584E1
4.224173625E0,5.466636173E0,-6.746140859E0,-7.455127451E0,1.144436337E1
4.234159625E0,4.924744878E0,-7.605788564E0,-7.307866495E0,1.164070636E1
4.244145625E0,4.672682521E0,-8.530095949E0,-7.403805270E0,1.222345415E1
4.254131625E0,5.197549063E0,-8.676765752E0,-7.911962224E0,1.284133663E1
4.264117625E0,6.653256669E0,-8.213636452E0,-8.135693067E0,1.333863373E1
4.274103625E0,8.298332786E0,-7.605390953E0,-8.308543779E0,1.399057534E1
4.284089625E0,1.013842992E1,-6.503766754E0,-8.713088071E0,1.486622504E1
4.294075625E0,1.225412211E1,-4.624712548E0,-9.579029135E0,1.622680726E1
4.304061625E0,1.384223758E1,-2.907957754E0,-1.054841797E1,1.764462754E1
4.314047625E0,1.502839439E1,-2.523370593E0,-1.133158585E1,1.899012572E1
4.324033625E0,1.573895505E1,-3.387106671E0,-1.011686188E1,1.901415504E1
4.334019625E0,1.582703283E1,-4.380821967E0,-7.153325170E0,1.791247136E1
4.344004625E0,1.538485703E1,-5.964190956E0,-5.290078912E0,1.732773310E1
4.353990625E0,1.567040463E1,-7.377634302E0,-3.823267443E0,1.773720506E1
4.363976625E0,1.675576012E1,-7.086385660E0,-8.420306289E-1,1.821212164E1
4.373962625E0,1.858058842E1,-6.153196939E0,2.141465549E0,1.968974285E1
4.383948625E0,1.956512973E1,-5.735941384E0,4.003844665E0,2.077801956E1
4.393934625E0,1.869941554E1,-5.140831071E0,7.611629933E0,2.083346336E1
4.403920625E0,1.579545319E1,-4.310845706E0,1.155036176E1,2.003723007E1
4.413906625E0,1.144649299E1,-3.337619931E0,1.443387172E1,1.872160680E1
4.423892625E0,7.917500707E0,-3.841830599E0,1.534048952E1,1.768550532E1
4.433878625E0,5.522319793E0,-3.583069087E0,1.471732602E1,1.612247144E1
4.443864625E0,3.609831208E0,-2.725064157E0,1.251674395E1,1.330885927E1
4.453850625E0,1.405446402E0,-1.950768551E0,7.849627397E0,8.209593644E0
4.463836625E0,-3.200058335E-1,-7.830576584E-1,2.846454985E0,2.969493056E0
4.473822625E0,-9.552488038E-1,5.046246511E-1,3.277142179E-1,1.128956564E0
4.483808625E0,-9.242851657E-1,1.411644158E0,-7.827796233E-1,1.860050063E0
4.493794625E0,-1.704500200E0,1.630220973E0,-8.037021303E-1,2.491762121E0
4.503780625E0,-3.082887735E0,3.591017792E-1,-3.479005605E-1,3.123169171E0
4.513765625E0,-3.505709254E0,-1.299266228E0,6.842265576E-1,3.800823080E0
4.523751625E0,-3.983021561E0,-1.748470969E0,1.954890254E0,4.768983895E0
4.533737625E0,-3.817118219E0,-1.707237574E0,2.851285955E0,5.061114821E0
4.543723625E0,-2.799837181E0,-1.719147475E0,2.944727969E0,4.412026643E0
4.553709625E0,-1.770697990E0,-1.612167403E0,2.282860579E0,3.308459994E0
4.563695625E0,-1.065336087E0,-1.184528947E0,1.287529989E0,2.048361120E0
4.573681625E0,-3.694048655E-1,-7.803512746E-1,5.414357972E-1,1.019098027E0
4.583667625E0,1.399285483E-1,-6.624819320E-1,-2.017850733E-1,7.065263794E-1
4.593653625E0,2.900704283E-1,-6.944843280E-1,-1.060773212E0,1.300649508E0
4.603639625E0,2.220445061E-1,-8.791686344E-1,-1.511456130E0,1.762594928E0
4.613625625E0,1.780944943E-1,-9.683141148E-1,-1.600485250E0,1.879069693E0
4.623611625E0,2.921017510E-1,-8.955057549E-1,-1.506612881E0,1.776833240E0
4.633597625E0,4.914374256E-1,-6.806588790E-1,-1.465627407E0,1.689044390E0
4.643583625E0,7.139760214E-1,-5.758972397E-1,-1.258489793E0,1.557310486E0
4.653569625E0,6.541198289E-1,-7.443490908E-1,-1.236206054E0,1.584340155E0
4.663555625E0,4.865351200E-1,-7.365246391E-1,-1.314195632E0,1.583128272E0
4.673541625E0,3.644148517E-1,-5.006119993E-1,-1.307383041E0,1.446603254E0
4.683526625E0,4.047091842E-1,-2.173737502E-1,-1.521177126E0,1.589031377E0
4.693512625E0,6.251778656E-1,-5.592569411E-3,-1.862408352E0,1.964546642E0
4.703498625E0,7.303482252E-1,1.848877895E-1,-2.098473896E0,2.229615375E0
4.713484625E0,5.958271819E-1,2.801789859E-1,-2.278182807E0,2.371418815E0
4.723470625E0,5.265055168E-1,1.805807304E-1,-2.201537504E0,2.270811494E0
4.733456625E0,5.400962001E-1,7.473267853E-2,-1.870134278E0,1.947996688E0
4.743442625E0,6.141318905E-1,-1.487119433E-1,-1.350092273E0,1.490644950E0
4.753428625E0,8.011077207E-1,-3.225642827E-1,-9.133964807E-1,1.257026025E0
4.763414625E0,1.066591192E0,-4.010403487E-1,-7.908224684E-1,1.387029311E0
4.773400625E0,1.375544618E0,-2.582715154E-1,-8.582338482E-1,1.641765060E0
4.783386625E0,1.766430400E0,1.277552301E-1,-1.170142457E0,2.122694309E0
4.793372625E0,1.948259511E0,4.311605260E-1,-2.041726668E0,2.854866426E0
4.803358625E0,2.102987362E0,5.626155818E-1,-3.044936382E0,3.743090929E0
4.813344625E0,2.356154258E0,7.176264381E-1,-3.497701492E0,4.277892743E0
4.823330625E0,2.701560397E0,1.088630225E0,-3.570602823E0,4.607900700E0
4.833316625E0,3.010075867E0,1.210729735E0,-3.571757063E0,4.825336437E0
4.843302625E0,3.149832507E0,9.923040712E-1,-3.931550860E0,5.134511112E0
4.853288625E0,3.280789672E0,6.024216717E-1,-4.278856174E0,5.425412694E0
4.863273625E0,2.967113450E0,3.439098358E-1,-4.117922089E0,5.087171957E0
4.873259625E0,3.445632037E0,5.035733217E-1,-4.473032266E0,5.668684493E0
4.883245625E0,4.672561191E0,1.579258103E0,-4.921474530E0,6.967624831E0
4.893231625E0,5.493460275E0,2.532222692E0,-5.386348055E0,8.099568070E0
4.903217625E0,6.013480645E0,2.625811472E0,-6.013176590E0,8.900288088E0
4.913203625E0,6.551549031E0,2.068425055E0,-6.812653522E0,9.675403088E0
4.923189625E0,6.742027928E0,1.194734092E0,-7.366011207E0,1.005686090E1
4.933175625E0,6.692726544E0,-3.809636414E-1,-7.331104499E0,9.933922441E0
4.943161625E0,6.242652907E0,-2.940497509E0,-6.038908432E0,9.169823115E0
4.953147625E0,4.999703259E0,-3.968192437E0,-3.725695248E0,7.390831413E0
4.963133625E0,4.383102382E0,-3.227532063E0,-1.887298487E0,5.761114934E0
4.973119625E0,4.772973087E0,-2.982990979E0,-1.058302764E0,5.727085821E0
4.983105625E0,4.880083260E0,-2.950914908E0,-1.003103878E0,5.790451520E0
4.993091625E0,4.349949838E0,-3.137586098E0,-1.060070962E0,5.467198603E0
5.003077625E0,4.050687295E0,-3.160709497E0,-1.467028108E0,5.343250280E0
5.013063625E0,4.435466537E0,-2.988741716E0,-2.010631614E0,5.713893587E0
5.023048625E0,4.872459660E0,-3.153686407E0,-1.639733370E0,6.031196118E0
5.033034625E0,4.655069538E0,-3.977094823E0,-9.868696690E-1,6.201682625E0
5.043020625E0,3.629670226E0,-5.100437336E0,-3.163215029E-1,6.268095904E0
5.053006625E0,2.207181821E0,-6.003960793E0,3.122869241E-1,6.404429711E0
5.062992625E0,6.102043158E-1,-6.502106144E0,7.320421636E-1,6.571576626E0
5.072978625E0,-1.213736081E0,-6.418973356E0,8.561820602E-1,6.588582696E0
5.082964542E0,-2.239925060E0,-6.054012374E0,3.644382405E-1,6.465380525E0
5.092950542E0,-2.053619613E0,-5.521780679E0,-1.827898085E-2,5.891328331E0
5.102936542E0,-1.226373376E0,-5.190632392E0,-1.873988762E-2,5.333573611E0
5.112922542E0,-1.453155881E-1,-4.641105217E0,-2.349593975E-1,4.649320399E0
5.122908542E0,4.332985604E-1,-4.177319859E0,-6.346271123E-1,4.247411026E0
5.132894542E0,7.203898323E-1,-4.109071743E0,-4.233004063E-1,4.193162927E0
5.142880542E0,6.684343976E-1,-4.165742957E0,3.924981514E-1,4.237248367E0
5.152866542E0,-1.903344709E-1,-4.747905781E0,9.111534888E-1,4.838288664E0
5.162852542E0,-9.984015477E-1,-5.352983258E0,1.691013305E0,5.701820885E0
5.172838542E0,-2.172469826E0,-5.952097160E0,2.117722346E0,6.680706076E0
5.182824542E0,-3.471003106E0,-6.772755046E0,2.518955945E0,8.016433903E0
5.192809542E0,-4.726490353E0,-7.553081762E0,3.917458778E0,9.733202887E0
5.202795542E0,-5.361521947E0,-8.279665550E0,5.748780116E0,1.141697210E1
5.212781542E0,-4.918918127E0,-8.891062113E0,6.955533160E0,1.231365838E1
5.222767542E0,-3.067537040E0,-9.171910313E0,7.592790788E0,1.229569820E1
5.232753542E0,-6.191166419E-1,-8.929567782E0,7.985841209E0,1.199558861E1
5.242739542E0,1.214400617E0,-9.221014645E0,8.387226251E0,1.252387496E1
5.252725542E0,2.041583996E0,-9.840623038E0,7.990252349E0,1.283939483E1
5.262711542E0,1.408741601E0,-1.044983742E1,6.450565862E0,1.236096497E1
5.272697542E0,-3.736019969E-1,-1.116168681E1,4.140331542E0,1.191071686E1
5.282683542E0,-1.587970162E0,-1.213909568E1,1.728121197E0,1.236388677E1
5.292669542E0,-1.779558861E0,-1.304784421E1,-1.721104538E-1,1.316976425E1
5.302655542E0,-1.852986441E0,-1.352291411E1,-1.382705119E0,1.371913402E1
5.312641542E0,-1.281212804E0,-1.386411084E1,-1.982855147E0,1.406366916E1
5.322627542E0,-1.004204471E-1,-1.478099401E1,-1.542847638E0,1.486163676E1
5.332613542E0,1.156204961E0,-1.579471410E1,-2.733117235E-1,1.583933403E1
5.342599542E0,3.342841494E0,-1.463472708E1,5.042581768E-1,1.502012325E1
5.352585542E0,6.008168449E0,-1.253886046E1,4.469215496E-1,1.391117711E1
5.362571542E0,6.654672280E0,-1.057977659E1,-1.348964199E0,1.257123861E1
5.372556542E0,5.935195198E0,-8.439505037E0,-5.272294021E0,1.158658153E1
5.382542542E0,5.751149408E0,-6.592900540E0,-9.085855086E0,1.261327950E1
5.392528542E0,6.686437864E0,-6.010931259E0,-1.166156528E1,1.472521139E1
5.402514542E0,8.191423464E0,-6.985015406E0,-1.236165474E1,1.639208244E1
5.412500542E0,7.730663456E0,-7.982295458E0,-1.005384760E1,1.498532782E1
5.422486542E0,6.840280446E0,-9.491128526E0,-5.859479603E0,1.308451216E1
5.432472542E0,5.680663562E0,-1.105629426E1,-2.272196135E0,1.263623585E1
5.442458542E0,4.660202808E0,-1.129763457E1,-8.364383519E-1,1.224963943E1
5.452444542E0,4.010467806E0,-1.042708123E1,-2.098677818E0,1.136715987E1
5.462430542E0,4.609690467E0,-9.154718329E0,-5.233846239E0,1.150874712E1
5.472416542E0,7.581422632E0,-6.076513045E0,-9.033166995E0,1.326650240E1
5.482402542E0,9.491394575E0,-1.008378359E0,-1.197135544E1,1.531067435E1
5.492388542E0,9.301894501E0,3.589434658E-1,-1.244128564E1,1.553832906E1
5.502374542E0,9.883204801E0,-1.730227218E0,-1.064030111E1,1.462489081E1
5.512360542E0,9.158907859E0,-3.574184242E0,-7.070292953E0,1.210988970E1
5.522346542E0,7.664036772E0,-4.874213825E0,-4.185296631E0,1.000060638E1
5.532332542E0,6.701447666E0,-6.379010561E0,-3.118148492E0,9.763402408E0
5.542317542E0,5.972687545E0,-7.955232790E0,-3.544476586E0,1.056039959E1
5.552303542E0,5.588083427E0,-8.449759299E0,-4.526272041E0,1.109559585E1
5.562289542E0,7.064280261E0,-7.406923006E0,-5.902187081E0,1.181534495E1
5.572275542E0,9.155305390E0,-5.458286349E0,-7.657163370E0,1.312420121E1
5.582261542E0,1.139476150E1,-3.321060616E0,-9.519785730E0,1.521500423E1
5.592247542E0,1.360869277E1,-1.743420729E0,-1.112852959E1,1.766579196E1
5.602233542E0,1.558822786E1,-1.321338883E0,-1.161754627E1,1.948605054E1
5.612219542E0,1.736633574E1,-2.567449828E0,-1.025290086E1,2.032986452E1
5.622205542E0,1.783381361E1,-4.807164095E0,-7.055729878E0,1.977212833E1
5.632191542E0,1.692834537E1,-6.641468098E0,-3.442774503E0,1.850758417E1
5.642177542E0,1.631153896E1,-7.402365686E0,1.066240359E0,1.794430800E1
5.652163542E0,1.595147561E1,-6.899654244E0,4.445413527E0,1.793924481E1
5.662149542E0,1.551151356E1,-5.937449884E0,4.802165018E0,1.728933640E1
5.672135542E0,1.491715345E1,-5.228877275E0,4.574142904E0,1.645555857E1
5.682121542E0,1.328471843E1,-5.509243079E0,6.667878801E0,1.585232193E1
5.692107542E0,1.006858376E1,-5.295762405E0,8.947393019E0,1.447333134E1
5.702093542E0,6.592921590E0,-5.086179485E0,1.003018041E1,1.303611737E1
5.712079542E0,3.391864258E0,-5.546368221E0,1.142483958E1,1.314510947E1
5.722064542E0,1.201062826E0,-5.046197979E0,1.251004071E1,1.354281302E1
5.732050542E0,1.699990243E-1,-4.193995534E0,1.151608655E1,1.225719167E1
5.742036542E0,-1.386415469E0,-3.837518277E0,8.314489812E0,9.261718805E0
5.752022542E0,-1.690873264E0,-2.841910529E0,4.807672511E0,5.835171190E0
5.762008542E0,-9.730763796E-1,-6.797013974E-1,2.900273343E0,3.133760854E0
5.771994542E0,2.401156184E-1,1.308852446E0,1.680824824E0,2.143810235E0
5.781980542E0,7.895369580E-1,1.294135589E0,6.564780110E-1,1.652004513E0
5.791966542E0,1.293953741E-1,8.384176344E-1,7.904675424E-1,1.159537075E0
5.801952542E0,-9.512484312E-1,-1.041038275E-2,1.199984307E0,1.531321094E0
5.811938542E0,-1.675133144E0,-1.136274215E0,1.522436031E0,2.532785346E0
5.821924542E0,-2.098242347E0,-1.729025761E0,1.655290033E0,3.183101651E0
5.831910542E0,-2.341016986E0,-1.852597893E0,1.559211509E0,3.368029100E0
5.841896542E0,-2.351257800E0,-1.968456379E0,1.154663708E0,3.276657143E0
5.851882542E0,-2.302168670E0,-2.015691941E0,3.575233233E-1,3.080717045E0
5.861868542E0,-2.176111472E0,-1.789495912E0,-5.023647022E-1,2.861839801E0
5.871854542E0,-1.794728000E0,-1.516085955E0,-6.610832781E-1,2.440613922E0
5.881840542E0,-1.288147455E0,-1.255000759E0,-6.764877677E-1,1.921454260E0
5.891825542E0,-5.288011336E-1,-7.799098098E-1,-9.366415018E-1,1.328603497E0
5.901811542E0,1.128033149E-1,-3.116337901E-1,-1.352734045E0,1.392741758E0
5.911797542E0,6.849481040E-1,1.022110838E-1,-1.764664541E0,1.895690363E0
5.921783542E0,1.099395826E0,3.750532758E-1,-2.266211802E0,2.546576540E0
5.931769542E0,1.101950474E0,5.732054740E-2,-3.145831842E0,3.333742412E0
5.941755542E0,5.993302488E-1,-4.486507174E-1,-3.916349854E0,3.987264776E0
5.951741542E0,2.270456296E-1,-5.834673375E-1,-3.920707199E0,3.970381442E0
5.961727542E0,3.328147441E-1,-5.836000693E-1,-3.211760368E0,3.281274044E0
5.971713542E0,5.501621819E-1,-4.676328260E-1,-2.862152420E0,2.951825768E0
5.981699542E0,6.925822288E-1,-3.470842892E-1,-3.097045598E0,3.192464422E0
5.991685542E0,8.143195045E-1,-9.223397970E-2,-3.631350131E0,3.722677415E0
6.001671542E0,8.880014384E-1,2.236478126E-1,-4.058557062E0,4.160582931E0
6.011657542E0,1.169628487E0,3.379626328E-1,-3.859505562E0,4.046978221E0
6.021643542E0,1.527069950E0,5.740001106E-1,-3.719075323E0,4.061150085E0
6.031629542E0,2.105995170E0,1.076313942E0,-3.876655446E0,4.541158971E0
6.041615542E0,2.609419388E0,1.308610371E0,-3.975740608E0,4.932346706E0
6.051601542E0,3.100132343E0,1.254000301E0,-4.341764613E0,5.480351928E0
6.061586542E0,3.483606194E0,1.562084246E0,-4.765319958E0,6.106053850E0
6.071572542E0,3.646874781E0,1.673828046E0,-4.994244298E0,6.406549157E0
6.081558500E0,3.713487431E0,1.203418962E0,-5.142440810E0,6.456229827E0
6.091544500E0,3.752340133E0,2.824871743E-1,-4.797698330E0,6.097357193E0
6.101530500E0,3.643730441E0,-2.633837360E-1,-4.192022683E0,5.560503277E0
6.111516500E0,3.900858241E0,-1.504494435E-1,-3.843340350E0,5.478192685E0
6.121502500E0,4.672969911E0,3.000755990E-1,-3.837079151E0,6.053913575E0
6.131488500E0,5.550800411E0,6.719661158E-1,-3.922089481E0,6.829766435E0
6.141474500E0,6.274351832E0,6.368220109E-1,-4.112031019E0,7.528733777E0
6.151460500E0,6.476452655E0,-2.341476578E-1,-3.915330392E0,7.571596674E0
6.161446500E0,5.870675851E0,-1.522242488E0,-3.464344589E0,6.984535816E0
6.171432500E0,4.870384483E0,-2.115786332E0,-3.204035904E0,6.201858019E0
6.181418500E0,4.765964906E0,-2.531132771E0,-2.954329097E0,6.152163441E0
6.191404500E0,4.668248285E0,-2.959588083E0,-1.901783502E0,5.845381438E0
6.201390500E0,4.007833343E0,-3.376450705E0,-1.391905932E-1,5.242377466E0
6.211376500E0,3.215375701E0,-3.153156064E0,1.201770047E0,4.661039081E0
6.221362500E0,3.238867767E0,-2.644673420E0,1.825344021E0,4.562503995E0
6.231348500E0,3.412952533E0,-2.427883807E0,1.726025555E0,4.530124611E0
6.241333500E0,3.403288548E0,-2.772917477E0,5.603503704E-1,4.425543674E0
6.251319500E0,2.701460994E0,-3.196528956E0,-6.552579895E-2,4.185687816E0
6.261305500E0,1.896640876E0,-3.634816945E0,-8.456155568E-2,4.100767184E0
6.271291500E0,1.618787912E0,-3.981962630E0,-1.269070914E-1,4.300303025E0
6.281277500E0,9.435192892E-1,-4.063602625E0,6.263215810E-2,4.172171824E0
6.291263500E0,4.957126173E-1,-4.285237241E0,4.811182594E-1,4.340560331E0
6.301249500E0,-2.738359264E-1,-4.466310892E0,9.389309791E-1,4.572145063E0
6.311235500E0,-1.272633915E0,-4.451460133E0,1.412205491E0,4.840394483E0
6.321221500E0,-1.735977516E0,-4.413854350E0,1.452259795E0,4.960321227E0
6.331207500E0,-1.364856493E0,-4.185722308E0,8.331913930E-1,4.480771405E0
6.341193500E0,-4.944639444E-2,-3.491108172E0,1.860779902E-1,3.496413338E0
6.351179500E0,9.662056088E-1,-2.953781798E0,-7.132989138E-2,3.108611932E0
6.361165500E0,1.311714073E0,-2.896776123E0,5.347834200E-1,3.224577340E0
6.371151500E0,9.783795118E-1,-3.021330587E0,1.506781573E0,3.515118162E0
6.381137500E0,-2.923315465E-2,-3.698020669E0,1.958557920E0,4.184753346E0
6.391123500E0,-8.644161093E-1,-4.352453908E0,2.133634081E0,4.923765290E0
6.401109500E0,-1.671384494E0,-4.539349047E0,2.200776489E0,5.314379837E0
6.411095500E0,-2.177003172E0,-5.035020441E0,1.985465929E0,5.833767960E0
6.421080500E0,-2.135712474E0,-5.330470893E0,1.551265143E0,5.948244384E0
6.431066500E0,-1.221279867E0,-5.351964088E0,1.438648354E0,5.674923189E0
6.441052500E0,2.057991868E-1,-5.536843107E0,1.642825377E0,5.779088173E0
6.451038500E0,8.908689129E-1,-5.668553978E0,2.118200648E0,6.116610631E0
6.461024500E0,5.501177430E-1,-6.067546924E0,2.927842965E0,6.759439299E0
6.471010500E0,-4.105347651E-1,-6.958788890E0,3.670393159E0,7.878138584E0
6.480996500E0,-1.281645936E0,-7.743637258E0,4.075095912E0,8.843808059E0
6.490982500E0,-1.448924836E0,-8.401082398E0,4.219996347E0,9.512409674E0
6.500968500E0,-1.110749949E0,-9.078263646E0,3.965845950E0,9.968779783E0
6.510954500E0,-7.217843932E-1,-9.736871797E0,3.503569758E0,1.037316953E1
6.520940500E0,-1.357741016E-1,-1.030098719E1,2.801736649E0,1.067607137E1
6.530926500E0,9.608288017E-1,-1.050794705E1,1.686512411E0,1.068571323E1
6.540912500E0,2.241133972E0,-9.700130818E0,3.526908919E-2,9.955725150E0
6.550898500E0,3.612217749E0,-7.766419764E0,-1.603969314E0,8.714247562E0
6.560884500E0,3.645347196E0,-5.403985596E0,-2.599116594E0,7.017622359E0
6.570870500E0,2.908784550E0,-4.539963589E0,-3.389262247E0,6.368625874E0
6.580856500E0,2.463022649E0,-4.963575068E0,-3.747284045E0,6.689222357E0
6.590842500E0,1.936040146E0,-5.787728419E0,-3.308615110E0,6.942116799E0
6.600827500E0,1.642615462E0,-7.236048068E0,-2.000108234E0,7.684986022E0
6.610813500E0,1.599681697E0,-8.788363956E0,-4.635394827E-1,8.944785711E0
6.620799500E0,1.480235799E0,-9.964524368E0,3.541842708E-1,1.008009377E1
6.630785500E0,2.056690278E0,-1.008032380E1,-2.090721658E-1,1.029012215E1
6.640771500E0,3.675090520E0,-8.557773744E0,-1.893022034E0,9.503963079E0
6.650757500E0,5.144974993E0,-6.645938879E0,-3.700198756E0,9.183177124E0
6.660743500E0,6.704346131E0,-4.481539380E0,-5.774360515E0,9.918452078E0
6.670729500E0,7.879819495E0,-1.969203653E0,-7.849078928E0,1.129501476E1
6.680715500E0,8.027642369E0,-1.048326244E0,-9.252278538E0,1.229417293E1
6.690701500E0,7.650845454E0,-2.226606857E0,-9.115746052E0,1.210743740E1
6.700687500E0,7.220203868E0,-3.912307674E0,-7.069068546E0,1.083555376E1
6.710673500E0,5.875695101E0,-5.587937247E0,-4.398213633E0,9.224593149E0
6.720659500E0,3.996049742E0,-7.214936696E0,-2.297946542E0,8.561792066E0
6.730645500E0,2.389780426E0,-8.477421892E0,-3.034460071E-1,8.813047821E0
6.740631500E0,1.534928023E0,-8.932343456E0,9.624166131E-1,9.114220174E0
6.750617500E0,1.812686554E0,-8.946072718E0,4.951491650E-1,9.141292158E0
6.760602500E0,2.769912593E0,-8.475567740E0,-6.923723137E-1,8.943547602E0
6.770588500E0,4.041383205E0,-6.956990286E0,-2.208878099E0,8.343358707E0
6.780574500E0,5.722992141E0,-5.368733318E0,-4.120648645E0,8.863164319E0
6.790560500E0,8.274064502E0,-3.716606628E0,-6.319216933E0,1.105467371E1
6.800546500E0,8.892965382E0,-2.109642663E0,-8.309724916E0,1.235260918E1
6.810532500E0,8.448994483E0,-1.996262959E0,-9.577796541E0,1.292690064E1
6.820518500E0,8.776109362E0,-2.976522497E0,-9.718479381E0,1.342864934E1
6.830504500E0,8.826608840E0,-4.077424565E0,-9.180267738E0,1.337205035E1
6.840490500E0,9.056911368E0,-4.977403733E0,-8.802314243E0,1.357508481E1
6.850476500E0,1.011977145E1,-5.015349239E0,-8.600198218E0,1.419601746E1
6.860462500E0,1.195404768E1,-4.851607320E0,-8.663497835E0,1.554006256E1
6.870448500E0,1.350973215E1,-4.564535928E0,-8.856516763E0,1.678647492E1
6.880434500E0,1.539573168E1,-4.069479076E0,-8.300669918E0,1.795801590E1
6.890420500E0,1.717544987E1,-3.746928535E0,-6.986930954E0,1.891699648E1
6.900406500E0,1.793293210E1,-4.204588642E0,-5.689325042E0,1.927788990E1
6.910392500E0,1.777451817E1,-4.485108228E0,-4.098592363E0,1.878425275E1
6.920378500E0,1.799700940E1,-5.342974579E0,-1.821401244E0,1.886152770E1
6.930364500E0,1.800635325E1,-7.548780550E0,1.403120087E0,1.957502468E1
6.940349500E0,1.515834525E1,-8.512035654E0,6.144602117E0,1.843871787E1
6.950335500E0,1.134121855E1,-7.651450641E0,9.025645137E0,1.638994220E1
6.960321500E0,8.602705504E0,-6.712205958E0,1.032632785E1,1.502309215E1
6.970307500E0,6.556098164E0,-6.411704682E0,1.079865424E1,1.416697969E1
6.980293500E0,4.171182914E0,-6.067119493E0,1.043108540E1,1.276778166E1
6.990279500E0,2.353406944E0,-4.873822939E0,1.007833107E1,1.143964297E1
7.000265500E0,1.785482383E0,-3.606314985E0,1.015827186E1,1.092629591E1
7.010251500E0,1.414294116E0,-2.565888036E0,9.824620378E0,1.025217903E1
7.020237500E0,3.168325496E-1,-2.164460602E0,8.400912829E0,8.681048838E0
7.030223500E0,-7.014904618E-3,-1.459009529E0,5.201930966E0,5.402670061E0
7.040209500E0,-3.171775353E-1,-9.420870137E-1,3.339364155E0,3.484176013E0
7.050195500E0,-5.588043666E-1,3.994604310E-1,2.931590445E0,3.010988790E0
7.060181500E0,-5.401727986E-1,2.748045176E-1,2.969980339E0,3.031185806E0
7.070167500E0,-1.152416623E0,-3.861471981E-1,3.269054895E0,3.487677399E0
7.080154125E0,-2.088886802E0,-8.435263467E-1,3.420600107E0,4.095789284E0
7.090140125E0,-2.461247435E0,-1.160105712E0,3.235286055E0,4.227370348E0
7.100126125E0,-2.289318829E0,-1.266483229E0,2.675737923E0,3.742263206E0
7.110112125E0,-2.034342220E0,-1.209519069E0,1.994818550E0,3.095284429E0
7.120098125E0,-1.657825386E0,-1.159192669E0,1.305071636E0,2.407348049E0
7.130083125E0,-1.326423329E0,-1.123908231E0,4.864842492E-1,1.805335283E0
7.140069125E0,-1.160443681E0,-1.159860713E0,-4.527961010E-1,1.702037226E0
7.150055125E0,-1.009825253E0,-1.157827344E0,-1.133166420E0,1.909025232E0
7.160041125E0,-8.285937274E-1,-9.950177640E-1,-1.446256751E0,1.941207487E0
7.170027125E0,-5.005497265E-1,-7.281642902E-1,-1.754330172E0,1.964293159E0
7.180013125E0,-1.939018571E-1,-5.939262521E-1,-2.117145810E0,2.207408595E0
7.189999125E0,2.032433689E-2,-6.242268160E-1,-2.429641480E0,2.508631084E0
7.199985125E0,1.181470853E-1,-8.106313732E-1,-2.575955772E0,2.703077894E0
7.209971125E0,2.290284204E-1,-7.066465366E-1,-2.484578410E0,2.593247620E0
7.219957125E0,5.420363063E-1,-4.698173457E-1,-2.422578043E0,2.526542315E0
7.229943125E0,9.578329808E-1,-2.749369571E-1,-2.808069769E0,2.979645981E0
7.239929125E0,1.404585984E0,6.112357646E-2,-3.832539958E0,4.082273926E0
7.249915125E0,1.875333622E0,4.223528650E-1,-4.798970684E0,5.169659347E0
7.259901125E0,1.969117699E0,4.232615224E-1,-5.075826990E0,5.460823606E0
7.269887125E0,1.806368052E0,2.530552143E-1,-4.931086768E0,5.257624862E0
7.279873125E0,1.957067172E0,2.146863699E-2,-4.215591055E0,4.647771591E0
7.289859125E0,1.812359110E0,-1.175959852E-1,-4.436086634E0,4.793468366E0
7.299845125E0,1.869331455E0,-4.713265121E-2,-4.469022830E0,4.844459375E0
7.309830125E0,2.249699265E0,2.400860900E-1,-4.546279167E0,5.078133750E0
7.319816125E0,2.842892861E0,6.933096224E-1,-4.441678911E0,5.318950047E0
7.329802125E0,3.181803328E0,6.102481699E-1,-4.587758145E0,5.616386743E0
7.339788125E0,3.340814264E0,6.518820995E-1,-4.866291432E0,5.938584219E0
7.349774125E0,3.359078627E0,6.733975142E-1,-5.338794989E0,6.343469506E0
7.359760125E0,3.446279324E0,7.168639612E-1,-6.050506968E0,6.999954978E0
7.369746125E0,3.750870143E0,5.429420400E-1,-6.711563934E0,7.707717128E0
7.379732125E0,3.954201512E0,2.084906602E-1,-7.352714054E0,8.351142551E0
7.389718125E0,4.908672636E0,-3.950671256E-1,-7.433300380E0,8.916563218E0
7.399704125E0,5.716220480E0,-1.282815380E0,-6.239255090E0,8.558568569E0
7.409690125E0,5.865533225E0,-1.773809001E0,-3.886255112E0,7.256297760E0
7.419676125E0,5.427686700E0,-2.375677527E0,-2.019469534E0,6.259543420E0
7.429662125E0,5.262842581E0,-2.423762689E0,-1.328077799E0,5.944403103E0
7.439648125E0,5.207897465E0,-2.121833523E0,-1.511516941E0,5.823148373E0
7.449634125E0,5.966514639E0,-2.242070988E0,-2.283034680E0,6.770408157E0
7.459620125E0,5.949498072E0,-2.623078483E0,-2.655249864E0,7.023348196E0
7.469606125E0,5.848029000E0,-2.673967386E0,-2.276011297E0,6.821273502E0
7.479591125E0,5.839355240E0,-3.394591691E0,-1.579594903E0,6.936601649E0
7.489577125E0,5.322145627E0,-4.270187092E0,-1.220448393E0,6.931754912E0
7.499563125E0,4.291430027E0,-4.820727589E0,-1.171877326E0,6.559655679E0
7.509549125E0,3.485110098E0,-4.901608615E0,-6.813503122E-1,6.052767768E0
7.519535125E0,3.152420192E0,-4.690041150E0,3.928846523E-1,5.664679815E0
7.529521125E0,2.239114343E0,-4.059248203E0,1.733926021E0,4.949507901E0
7.539507125E0,1.348393950E0,-3.867518587E0,3.005164790E0,5.080047409E0
7.549493125E0,1.050123094E0,-4.276823097E0,3.390181721E0,5.557634967E0
7.559479125E0,9.459037837E-1,-4.100262913E0,3.038087246E0,5.190073606E0
7.569465125E0,5.903106263E-1,-3.843560205E0,2.485508117E0,4.615102630E0
7.579451125E0,6.882304385E-1,-3.761139023E0,2.184215713E0,4.403478871E0
7.589437125E0,7.309797245E-1,-3.622572876E0,1.959828227E0,4.183096016E0
7.599423125E0,1.601909047E-1,-4.114925390E0,2.187153061E0,4.662822172E0
7.609409125E0,-5.913306731E-1,-4.483822133E0,2.852146080E0,5.346874802E0
7.619395125E0,-9.100998205E-1,-4.726634195E0,3.510848080E0,5.957802173E0
7.629381125E0,-8.082167655E-1,-4.822485262E0,4.349883180E0,6.544544455E0
7.639367125E0,-7.815329969E-1,-5.429413968E0,5.000286226E0,7.422411482E0
7.649353125E0,-1.437180119E0,-6.271910620E0,5.408151737E0,8.405382486E0
7.659339125E0,-2.142331522E0,-7.401478078E0,5.128865329E0,9.256172085E0
7.669324125E0,-2.106782790E0,-8.115513741E0,4.806031490E0,9.664265916E0
7.679310125E0,-1.334260352E0,-8.542092682E0,4.442126808E0,9.720086864E0
7.689296125E0,-9.345370889E-2,-8.843220779E0,4.482747415E0,9.914953945E0
7.699282125E0,8.283668554E-1,-9.278011549E0,4.965919216E0,1.055594826E1
7.709268125E0,1.299322654E0,-9.589372859E0,4.683087641E0,1.075061026E1
7.719254125E0,1.683653707E0,-9.586911766E0,2.551810280E0,1.006256939E1
7.729240125E0,1.787740870E0,-9.671091791E0,7.695918131E-1,9.865004075E0
7.739226125E0,1.130989501E0,-9.404076934E0,-1.095896121E-1,9.472476451E0
7.749212125E0,2.563957286E-1,-9.916330447E0,-9.562700200E-1,9.965630971E0
7.759198125E0,-5.006318799E-1,-1.096781653E1,-1.919445456E0,1.114575715E1
7.769184125E0,-5.940892433E-1,-1.219074765E1,-1.847352941E0,1.234422874E1
7.779170125E0,2.810250780E-1,-1.335250286E1,-3.486519277E-1,1.336000995E1
7.789156125E0,1.531232144E0,-1.429009921E1,1.558410441E0,1.445614923E1
7.799142125E0,2.655583740E0,-1.450803195E1,2.895144750E0,1.503053490E1
7.809128125E0,4.079134291E0,-1.415161142E1,2.901652409E0,1.501089701E1
7.819114125E0,5.628387115E0,-1.249046774E1,1.635807403E0,1.379733277E1
7.829100125E0,5.412845882E0,-1.007246982E1,-9.143969393E-1,1.147125409E1
7.839086125E0,4.389843929E0,-8.820035985E0,-4.490979710E0,1.082740335E1
7.849071125E0,5.021048520E0,-6.689159743E0,-7.612588291E0,1.130961037E1
7.859057125E0,6.676494089E0,-4.940464532E0,-9.376210274E0,1.252585655E1
7.869043125E0,7.015913848E0,-6.168157625E0,-9.015986706E0,1.298295929E1
7.879029125E0,7.177550769E0,-6.769702799E0,-5.946803091E0,1.152000773E1
7.889015125E0,6.979078143E0,-7.191318623E0,-2.533547087E0,1.033641408E1
7.899001125E0,6.271645156E0,-7.596916584E0,-1.333770940E0,9.941107557E0
7.908987125E0,6.044014805E0,-7.377914384E0,-2.877514225E0,9.962119440E0
7.918973125E0,6.764243254E0,-6.027040923E0,-5.984750351E0,1.085805903E1
7.928959125E0,8.759067652E0,-4.516230326E0,-9.263719785E0,1.352531355E1
7.938945125E0,1.089381767E1,-1.439612560E0,-1.152605605E1,1.592475168E1
7.948931125E0,1.072145813E1,-6.806939623E-1,-1.221969136E1,1.627064429E1
7.958917125E0,1.021240772E1,-2.570612587E0,-1.134928654E1,1.548249416E1
7.968903125E0,8.980547317E0,-4.952463604E0,-9.462205274E0,1.395386880E1
7.978889125E0,7.690761471E0,-7.031396690E0,-7.706648941E0,1.296074031E1
7.988875125E0,7.476715956E0,-8.739122214E0,-7.012087430E0,1.347007456E1
7.998861125E0,7.524236863E0,-9.371383397E0,-7.175990732E0,1.399756444E1
8.008847125E0,8.012292843E0,-8.921158901E0,-8.075967268E0,1.445701076E1
8.018832125E0,9.134690446E0,-7.918507013E0,-9.643260214E0,1.546408065E1
8.028818125E0,1.084111906E1,-6.786206565E0,-1.085812861E1,1.677740799E1
8.038804125E0,1.275880699E1,-5.251552777E0,-1.094165024E1,1.760924962E1
8.048790125E0,1.449746370E1,-4.837436593E0,-1.080392141E1,1.871635553E1
8.058776125E0,1.561592963E1,-5.532889804E0,-1.063728044E1,1.968811477E1
8.068762125E0,1.622409619E1,-6.907828066E0,-9.561929537E0,2.005915956E1
8.078748125E0,1.662480588E1,-8.637092979E0,-6.981778972E0,1.999321843E1
8.088734000E0,1.723195386E1,-9.796414579E0,-4.153197756E0,2.025238317E1
8.098720000E0,1.806366766E1,-1.037518836E1,-1.438713843E0,2.088086493E1
8.108706000E0,1.916337222E1,-1.098192235E1,2.701170387E0,2.225160162E1
8.118692000E0,1.883368983E1,-1.042610942E1,9.697332340E0,2.361037663E1
8.128678000E0,1.653910675E1,-8.358455027E0,1.706925976E1,2.519455202E1
8.138664000E0,1.337628465E1,-6.920362158E0,2.108287045E1,2.590953164E1
8.148650000E0,1.039995716E1,-6.509432121E0,1.995794100E1,2.342757402E1
8.158636000E0,7.013726404E0,-4.857987217E0,1.532497686E1,1.753987781E1
8.168622000E0,5.482552879E0,-3.405118726E0,1.185326975E1,1.349641520E1
8.178608000E0,4.782516912E0,-2.888638261E0,8.993316466E0,1.058756063E1
8.188594000E0,3.482851903E0,-1.485973671E0,5.936856392E0,7.041636099E0
8.198580000E0,2.954778748E0,-3.023016340E-1,2.576224744E0,3.931798273E0
8.208565000E0,2.204544727E0,1.033582490E0,3.739370424E-1,2.463359318E0
8.218551000E0,1.268982037E0,1.492670780E0,1.436701816E-1,1.964439510E0
8.228537000E0,-4.709634000E-1,4.286020768E-1,-9.614518225E-2,6.440109940E-1
8.238523000E0,-2.190246531E0,-7.450475407E-1,2.893447888E-1,2.331522273E0
8.248509000E0,-3.136520151E0,-1.843175105E0,4.920601541E-1,3.671127391E0
8.258495000E0,-3.749077386E0,-2.249933154E0,5.312458545E-1,4.404543405E0
8.268481000E0,-4.117162535E0,-2.367106093E0,2.256224173E-1,4.754484627E0
8.278467000E0,-3.694903518E0,-2.269140673E0,-3.046972382E-1,4.346740366E0
8.288453000E0,-2.539862080E0,-1.571534809E0,-7.685317129E-1,3.084033403E0
8.298439000E0,-1.510351006E0,-8.106050608E-1,-1.186448003E0,2.084682131E0
8.308425000E0,-7.520203453E-1,-4.960997030E-1,-1.204902400E0,1.504473100E0
8.318411000E0,-2.919696039E-1,-5.416582838E-1,-1.113704547E0,1.272390571E0
8.328397000E0,-2.713341951E-1,-8.404001328E-1,-1.203197937E0,1.492507924E0
8.338383000E0,-5.891777283E-1,-1.235773652E0,-1.305099703E0,1.891441818E0
8.348369000E0,-8.966342676E-1,-1.463477094E0,-1.265385414E0,2.132350455E0
8.358355000E0,-8.750808460E-1,-1.548846442E0,-9.745408148E-1,2.028403705E0
8.368341000E0,-6.600173306E-1,-1.560735586E0,-7.644164425E-1,1.858991916E0
8.378327000E0,-2.303621703E-1,-1.162045818E0,-1.201472424E0,1.687291675E0
8.388312000E0,3.261144197E-1,-7.130156162E-1,-2.270454542E0,2.402021172E0
8.398298000E0,8.011240929E-1,-2.810499287E-1,-3.219417881E0,3.329480495E0
8.408284000E0,1.085591134E0,7.072470456E-2,-3.751888728E0,3.906427923E0
8.418270000E0,1.305866273E0,3.002121314E-1,-3.865098424E0,4.090770083E0
8.428256000E0,1.343541053E0,3.109835798E-1,-3.610244021E0,3.864670134E0
8.438242000E0,1.211606233E0,2.269023728E-1,-3.335758762E0,3.556228461E0
8.448228000E0,1.233248532E0,1.423975351E-1,-3.263900574E0,3.492023190E0
8.458214000E0,1.530426836E0,-2.471471876E-2,-3.222171335E0,3.567240563E0
8.468200000E0,1.604877679E0,3.090604305E-2,-3.311214489E0,3.679772947E0
8.478186000E0,1.507204034E0,7.497358382E-2,-3.618516077E0,3.920579503E0
8.488172000E0,1.599364339E0,1.390187216E-1,-4.367249703E0,4.652973507E0
8.498158000E0,2.285267293E0,4.096915966E-1,-4.907637679E0,5.429106869E0
8.508144000E0,2.843778715E0,7.919006950E-1,-5.506829349E0,6.248148011E0
8.518130000E0,3.530987352E0,1.068535976E0,-6.000889251E0,7.044168696E0
8.528116000E0,4.490558125E0,1.354071888E0,-5.758772423E0,7.427118066E0
8.538102000E0,5.221899208E0,1.871042935E0,-5.778248329E0,8.009818147E0
8.548088000E0,5.981944272E0,2.007194182E0,-5.928575565E0,8.657972857E0
8.558074000E0,6.853974041E0,1.761183693E0,-6.091514661E0,9.337305769E0
8.568060000E0,7.151556387E0,1.302892379E0,-5.693223966E0,9.233368098E0
8.578045000E0,7.412124689E0,9.004630244E-1,-5.532050144E0,9.292685557E0
8.588031000E0,7.893107293E0,7.883374017E-1,-6.048288535E0,9.975189863E0
8.598017000E0,8.589296669E0,9.133520418E-1,-6.268167232E0,1.067240131E1
8.608003000E0,1.005301496E1,6.977722174E-1,-6.197428202E0,1.183038935E1
8.617989000E0,1.091263284E1,-7.974970651E-1,-5.360417408E0,1.218423703E1
8.627975000E0,1.087633333E1,-1.220527915E0,-4.161252588E0,1.170898536E1
8.637961000E0,1.106876871E1,-2.639097515E0,-3.150284497E0,1.180706436E1
8.647947000E0,1.085942552E1,-4.648821788E0,-1.826848948E0,1.195307675E1
8.657933000E0,9.767828711E0,-5.982638336E0,-4.437299931E-1,1.146295492E1
8.667919000E0,7.780501029E0,-6.159704890E0,5.393824013E-1,9.938264133E0
8.677905000E0,6.332008302E0,-6.522046319E0,8.710269713E-1,9.131818292E0
8.687891000E0,4.844810809E0,-6.971942786E0,7.256008708E-1,8.520955029E0
8.697877000E0,3.518772811E0,-6.754536876E0,6.697149378E-1,7.645524744E0
8.707863000E0,3.001855266E0,-6.056693907E0,4.322226727E-1,6.773587865E0
8.717849000E0,2.844849924E0,-5.906402923E0,3.629681774E-1,6.565859615E0
8.727835000E0,2.204724529E0,-6.148104599E0,8.113144742E-1,6.581658726E0
8.737821000E0,6.330599123E-1,-6.358578050E0,1.487841564E0,6.560941411E0
8.747807000E0,-1.122157282E0,-6.735369703E0,2.332584278E0,7.215635206E0
8.757793000E0,-2.294574891E0,-6.888578448E0,3.155852800E0,7.916880311E0
8.767778000E0,-2.913194520E0,-6.934161002E0,3.848371879E0,8.448624576E0
8.777764000E0,-2.750713845E0,-6.845110831E0,3.820816875E0,8.307864379E0
8.787750000E0,-1.745813118E0,-6.743202049E0,3.270452964E0,7.695095834E0
8.797736000E0,-6.195189303E-1,-6.624794177E0,3.166232777E0,7.368631596E0
8.807722000E0,7.802173734E-2,-6.818144057E0,2.825677489E0,7.380896223E0
8.817708000E0,2.294125825E-1,-6.682443631E0,1.720001607E0,6.904063191E0
8.827694000E0,4.589099497E-1,-6.743218421E0,1.655928403E0,6.958713379E0
8.837680000E0,2.953808695E-1,-7.601478581E0,3.083408137E0,8.208357462E0
8.847666000E0,-5.007824457E-1,-8.255763887E0,4.609770573E0,9.468812235E0
8.857652000E0,-1.288032265E0,-8.651727390E0,6.024610820E0,1.062108043E1
8.867638000E0,-2.281826207E0,-9.471280738E0,6.680728058E0,1.181287505E1
8.877624000E0,-2.644615533E0,-1.064171731E1,6.681964159E0,1.284090276E1
8.887610000E0,-2.421153662E0,-1.134090982E1,6.674872656E0,1.338028944E1
8.897596000E0,-1.716924949E0,-1.235885510E1,6.529140161E0,1.408257085E1
8.907582000E0,-8.355332029E-1,-1.360183866E1,6.271139957E0,1.500117752E1
8.917568000E0,6.292580527E-1,-1.441582136E1,5.601910923E0,1.547880090E1
8.927554000E0,3.415293174E0,-1.423608965E1,4.800442429E0,1.540696996E1
8.937540000E0,6.098709075E0,-1.219294035E1,4.230169041E0,1.427432580E1
8.947525000E0,5.700359323E0,-9.911517019E0,1.281130797E0,1.150537101E1
8.957511000E0,2.891697232E0,-9.713009310E0,-3.591303428E0,1.075183347E1
8.967497000E0,1.170033772E0,-1.024488082E1,-6.834763014E0,1.237095580E1
8.977483000E0,9.544475891E-1,-1.154092786E1,-6.349252911E0,1.320670279E1
8.987469000E0,1.853859723E0,-1.330273838E1,-3.611856391E0,1.390845609E1
8.997455000E0,2.202746708E0,-1.515639462E1,-9.972885302E-1,1.534806096E1
9.007441000E0,2.590186141E0,-1.753151607E1,7.768800750E-1,1.773884615E1
9.017427000E0,4.442355434E0,-1.869000269E1,1.586905677E0,1.927612492E1
9.027413000E0,7.911979181E0,-1.563594114E1,1.315729649E0,1.757308210E1
9.037399000E0,1.042408628E1,-1.106896868E1,-1.212432152E0,1.525298771E1
9.047385000E0,1.195568607E1,-8.469957336E0,-5.354670764E0,1.559971492E1
9.057371000E0,1.187551490E1,-4.852121875E0,-1.027052437E1,1.643333842E1
9.067357000E0,1.101064504E1,-1.639349354E0,-1.370975604E1,1.766010139E1
9.077343000E0,1.299358907E1,-1.673046565E0,-1.563670830E1,2.039948745E1
9.087331500E0,1.383871989E1,-3.726809435E0,-1.337707871E1,1.960473186E1
9.097317500E0,1.239609017E1,-4.436309413E0,-8.897772378E0,1.589069684E1
9.107303500E0,9.742225508E0,-5.177007794E0,-5.896066800E0,1.250903559E1
9.117289500E0,7.596685034E0,-6.634268421E0,-5.002370174E0,1.125819028E1
9.127275500E0,6.456831154E0,-7.534345529E0,-5.654439969E0,1.142058328E1
9.137260500E0,5.691286198E0,-7.953555223E0,-7.348918626E0,1.223341262E1
9.147246500E0,5.518330237E0,-7.361491309E0,-9.058547419E0,1.291126656E1
9.157232500E0,6.231611025E0,-6.051476437E0,-1.033292585E1,1.349898884E1
9.167218500E0,6.908792857E0,-5.220563704E0,-1.109329193E1,1.407291121E1
9.177204500E0,7.859286997E0,-5.005091468E0,-1.131047974E1,1.465422412E1
9.187190500E0,8.866391541E0,-5.334002611E0,-1.065848011E1,1.485488745E1
9.197176500E0,9.658601553E0,-6.084088697E0,-8.704037166E0,1.435496368E1
9.207162500E0,9.773980567E0,-7.402344636E0,-6.520459970E0,1.388674910E1
9.217148500E0,9.008753700E0,-8.371414211E0,-4.367487684E0,1.305040872E1
9.227134500E0,7.899048064E0,-8.413309511E0,-2.214036512E0,1.175077423E1
9.237120500E0,6.954923295E0,-7.954434645E0,-1.261128057E0,1.064116688E1
9.247106500E0,6.822694945E0,-7.309248192E0,-1.003172876E0,1.004891194E1
9.257092500E0,7.484256526E0,-6.356927966E0,-2.002601194E-1,9.821646146E0
9.267078500E0,9.613238270E0,-4.801847222E0,2.656606418E-1,1.074907728E1
9.277064500E0,1.234033112E1,-3.989187742E0,5.719348741E-1,1.298169867E1
9.287050500E0,1.418053759E1,-3.828576423E0,2.209248227E0,1.485349863E1
9.297036500E0,1.446293004E1,-3.265242218E0,4.504747564E0,1.549615768E1
9.307022500E0,1.438140699E1,-3.817668734E0,7.081854068E0,1.647883851E1
9.317008500E0,1.253253611E1,-4.705596790E0,1.001268554E1,1.671708630E1
9.326993500E0,1.038280962E1,-4.225927178E0,1.085013196E1,1.560085124E1
9.336979500E0,9.194251354E0,-3.899055252E0,8.767415721E0,1.328926139E1
9.346965500E0,7.521772261E0,-3.647553643E0,6.497008542E0,1.058738993E1
9.356951500E0,5.662062399E0,-2.975669680E0,4.272354655E0,7.691981212E0
9.366937500E0,4.068109658E0,-2.266583978E0,3.177717294E0,5.637801550E0
9.376923500E0,3.201178662E0,-1.446910762E0,2.678481436E0,4.417619085E0
9.386909500E0,2.363604196E0,-3.563977343E-1,2.990217553E0,3.828190846E0
9.396895500E0,1.264252809E0,3.855054662E-1,3.274496314E0,3.531186166E0
9.406881500E0,2.637415856E-1,4.409344393E-1,2.557202582E0,2.608307469E0
9.416867500E0,-4.747518110E-1,-7.907189727E-3,2.042544109E0,2.097006973E0
9.426853500E0,-1.108212258E0,-7.485623020E-1,1.393911307E0,1.931700976E0
9.436839500E0,-1.843659840E0,-1.286990291E0,3.509340960E-1,2.275649436E0
9.446825500E0,-2.266828684E0,-1.597206717E0,1.959431201E-1,2.779923611E0
9.456811500E0,-2.194116218E0,-1.694914567E0,1.255403048E0,3.043504260E0
9.466797500E0,-1.875158206E0,-1.703398585E0,1.976377602E0,3.213075390E0
9.476783500E0,-1.749785131E0,-1.665482022E0,1.638757616E0,2.919093163E0
9.486769500E0,-1.733498881E0,-1.687154435E0,7.272380912E-1,2.525942141E0
9.496755500E0,-2.011584857E0,-1.442603411E0,-2.761610717E-1,2.490751528E0
9.506741500E0,-8.705784899E-1,-1.504687393E0,-8.123431456E-1,1.918825798E0
9.516726500E0,-8.304554808E-1,-2.158644961E0,9.770697355E-4,2.312878148E0
9.526712500E0,-9.364508826E-1,-1.289654283E0,1.950455725E-2,1.593903652E0
9.536698500E0,-7.318755180E-1,-1.272366990E0,-4.954901308E-1,1.549215931E0
9.546684500E0,-4.903282088E-1,-1.215655138E0,-9.733620161E-1,1.632688819E0
9.556670500E0,-3.041142708E-1,-9.855519989E-1,-1.394448082E0,1.734440453E0
9.566656500E0,-7.044316113E-2,-9.499164355E-1,-1.544741405E0,1.814808387E0
9.576642500E0,1.552716422E-1,-9.615310523E-1,-1.321866009E0,1.641944272E0
9.586628500E0,4.535141391E-1,-8.067286491E-1,-1.224991094E0,1.535281528E0
9.596614500E0,7.253079253E-1,-6.578535685E-1,-1.444240631E0,1.744899397E0
9.606600500E0,9.200681537E-1,-7.090637755E-1,-1.923349788E0,2.246902590E0
9.616586500E0,1.073829460E0,-4.174727789E-1,-2.335323552E0,2.604060162E0
9.626572500E0,1.293446202E0,-2.107114327E-1,-2.863629427E0,3.149250051E0
9.636558500E0,1.456820331E0,-4.181373149E-2,-3.433400247E0,3.729921061E0
9.646544500E0,1.677759129E0,1.017438912E-1,-3.938810763E0,4.282459310E0
9.656530500E0,2.027499808E0,7.312586367E-2,-4.202541239E0,4.666632162E0
9.666516500E0,2.387353247E0,2.544679016E-2,-4.331644253E0,4.946033259E0
9.676502500E0,2.724652221E0,7.588107169E-2,-4.701944327E0,5.434865970E0
9.686488500E0,3.419279221E0,4.604930833E-1,-5.177218879E0,6.221504608E0
9.696474500E0,3.890106965E0,8.037734663E-1,-5.659384959E0,6.914305613E0
9.706459500E0,3.970265275E0,7.474443144E-1,-6.175078974E0,7.379246554E0
9.716445500E0,4.124261640E0,7.714044499E-1,-6.402197694E0,7.654589095E0
9.726431500E0,4.658210662E0,1.081969369E0,-6.302145987E0,7.911171110E0
9.736417500E0,5.489692329E0,1.799037398E0,-6.356525677E0,8.589451444E0
9.746403500E0,6.444693503E0,2.011498902E0,-6.551664221E0,9.407683362E0
9.756389500E0,7.490289683E0,1.374238350E0,-6.464282261E0,9.988989725E0
9.766375500E0,7.986030659E0,3.956752360E-1,-5.947853835E0,9.965450809E0
9.776361500E0,8.109167174E0,-5.774470443E-1,-5.574552970E0,9.857366695E0
9.786347500E0,8.902837236E0,-2.245619078E0,-4.729303449E0,1.032809891E1
9.796333500E0,8.302941561E0,-4.741370932E0,-3.056951240E0,1.003814663E1
9.806319500E0,6.576106752E0,-5.403200315E0,-1.260535149E0,8.603993405E0
9.816305500E0,5.614966001E0,-5.172054618E0,-1.316336882E-1,7.635137169E0
9.826291500E0,5.929707001E0,-4.761505235E0,1.474325725E-1,7.606253584E0
9.836277500E0,5.964646454E0,-4.762989258E0,-5.338975668E-2,7.633211936E0
9.846263500E0,4.923886507E0,-4.476987323E0,-1.805481322E-1,6.657377220E0
9.856249500E0,4.446363700E0,-4.763501474E0,6.715490632E-1,6.550730844E0
9.866235500E0,3.576032255E0,-5.102024270E0,9.528562693E-1,6.302903570E0
9.876221500E0,2.682767153E0,-5.558404130E0,5.226300188E-1,6.194048612E0
9.886207500E0,1.487299235E0,-5.858344658E0,-1.120934538E-1,6.045231682E0
9.896192500E0,3.148234463E-1,-5.316877286E0,-7.155717266E-1,5.374043242E0
9.906178500E0,-6.315753043E-1,-5.353579674E0,-8.967553049E-1,5.464784787E0
9.916164500E0,-1.550048922E0,-5.337947727E0,-3.112192225E-1,5.567153223E0
9.926150500E0,-2.243471981E0,-4.835131620E0,4.917544909E-1,5.352895178E0
9.936136500E0,-2.146832124E0,-4.817618040E0,1.303951895E0,5.433104296E0
9.946122500E0,-1.242285697E0,-4.466904384E0,1.976587370E0,5.040179179E0
9.956108500E0,-3.534536612E-1,-3.749327062E0,2.375808504E0,4.452734998E0
9.966094500E0,1.054768122E0,-3.077428190E0,3.065887540E0,4.470208771E0
9.976080500E0,2.236077592E0,-2.590780803E0,3.637300258E0,4.994210781E0
9.986066500E0,2.283831802E0,-3.258008335E0,4.066039744E0,5.688865020E0
9.996052500E0,1.073718363E0,-3.953257479E0,4.726840602E0,6.254929088E0
1.000603850E1,-1.093724027E0,-5.133067138E0,4.973190814E0,7.230299950E0
1.001602450E1,-2.745099934E0,-6.418078732E0,4.645601141E0,8.385041337E0
1.002601050E1,-3.486029865E0,-6.902569665E0,4.086374606E0,8.746218018E0
1.003599650E1,-2.587606350E0,-7.254180869E0,3.572487965E0,8.490083448E0
1.004598250E1,-2.541971755E-1,-7.519968980E0,4.160020287E0,8.597692624E0
1.005596850E1,1.881766144E0,-7.971072897E0,5.791817962E0,1.003116156E1
1.006595450E1,3.519575049E0,-8.749736665E0,7.058872172E0,1.178019425E1
1.007594050E1,3.407248574E0,-8.536389892E0,6.757683263E0,1.140813650E1
1.008592337E1,1.358125763E0,-8.950185065E0,4.825572592E0,1.025848279E1
1.009590837E1,-8.018462241E-1,-1.069310264E1,2.373162493E0,1.098259085E1
1.010589438E1,-1.669124253E0,-1.215714487E1,5.448602191E-1,1.228328213E1
1.011588038E1,-2.034140637E0,-1.380738700E1,6.372962201E-1,1.397096312E1
1.012586637E1,-1.331545490E0,-1.523577174E1,1.237379590E0,1.534382163E1
1.013585238E1,1.248646298E0,-1.603270747E1,2.211729786E0,1.623263919E1
1.014583838E1,2.727657689E0,-1.516556188E1,1.768352380E0,1.551004364E1
1.015582437E1,2.713346337E0,-1.346652941E1,-2.362194724E0,1.393878139E1
1.016581038E1,3.126028784E0,-1.199729135E1,-6.938234757E0,1.420725720E1
1.017579638E1,6.634841448E0,-7.347180249E0,-9.100114106E0,1.344671913E1
1.018578237E1,8.322037398E0,-2.019793763E0,-1.192240723E1,1.467922571E1
1.019576838E1,6.925473209E0,-2.221810970E0,-1.302332333E1,1.491662072E1
1.020575438E1,5.708068292E0,-4.083090225E0,-1.084659907E1,1.291907043E1
1.021574037E1,5.537105062E0,-6.352166578E0,-7.409655994E0,1.122107636E1
1.022572638E1,5.748754388E0,-8.156330230E0,-4.476637367E0,1.093682687E1
1.023571238E1,5.283582655E0,-8.462237842E0,-3.090886141E0,1.044410322E1
1.024569837E1,4.741901860E0,-8.425725489E0,-3.606391876E0,1.031913493E1
1.025568438E1,4.346442971E0,-8.691529387E0,-4.763659934E0,1.082250921E1
1.026567038E1,4.305286174E0,-8.286969892E0,-5.806248890E0,1.099644875E1
1.027565637E1,4.769200755E0,-7.612045670E0,-6.871558957E0,1.130959052E1
1.028564137E1,5.089204250E0,-6.949803473E0,-8.133188120E0,1.184687795E1
1.029562738E1,5.025369612E0,-6.239707664E0,-9.000627240E0,1.204987893E1
1.030561337E1,5.396928592E0,-5.639679258E0,-9.222427332E0,1.208246607E1
1.031559937E1,5.451333425E0,-5.291126733E0,-8.591425055E0,1.146846296E1
1.032558538E1,5.425539018E0,-6.191072863E0,-8.041345904E0,1.150778436E1
1.033557137E1,5.746947598E0,-7.408128117E0,-7.099835426E0,1.176075814E1
1.034555737E1,5.694768800E0,-8.457876989E0,-6.348593345E0,1.201127438E1
1.035554338E1,5.678711177E0,-9.117610145E0,-6.039586709E0,1.232295350E1
1.036552937E1,6.112516690E0,-9.035384844E0,-5.900038229E0,1.240207606E1
1.037551537E1,7.395125079E0,-8.171858681E0,-5.726929656E0,1.242034108E1
1.038550138E1,8.652674639E0,-6.943592561E0,-6.309921030E0,1.276312499E1
1.039548737E1,1.000219798E1,-5.499563014E0,-6.943182671E0,1.336027482E1
1.040547337E1,1.113563980E1,-4.316312268E0,-8.332948887E0,1.456265987E1
1.041545938E1,1.252607962E1,-4.316353784E0,-9.349257533E0,1.621549250E1
1.042544537E1,1.390914376E1,-5.992810153E0,-8.159393002E0,1.720330630E1
1.043543137E1,1.402389887E1,-7.884903649E0,-4.586505672E0,1.672953913E1
1.044541738E1,1.262321941E1,-8.549222776E0,-9.787239128E-1,1.527719800E1
1.045540337E1,1.147250374E1,-8.293658522E0,3.991145682E-1,1.416200573E1
1.046538937E1,1.166636935E1,-7.792026476E0,1.448157681E0,1.410379421E1
1.047537438E1,1.177371253E1,-6.372546464E0,4.180353395E0,1.402515632E1
1.048536038E1,1.112303204E1,-4.536841176E0,7.677341527E0,1.425644915E1
1.049534637E1,1.035969908E1,-3.555562322E0,9.585663385E0,1.455507922E1
1.050533238E1,8.828026789E0,-3.599572853E0,1.076410070E1,1.437904189E1
1.051531838E1,6.734884384E0,-3.787616092E0,1.157449673E1,1.391666906E1
1.052530437E1,5.637999938E0,-3.735677615E0,1.135689727E1,1.321822402E1
1.053529038E1,5.164358513E0,-3.437970723E0,9.837747377E0,1.163062831E1
1.054527638E1,3.577123053E0,-3.086976693E0,6.121046609E0,7.732557534E0
1.055526237E1,2.283542365E0,-1.948883117E0,2.902109368E0,4.175517922E0
1.056524838E1,2.341117558E0,-5.353140548E-1,1.388029593E0,2.773809422E0
1.057523438E1,2.830964541E0,8.634252986E-1,1.544772395E0,3.338590306E0
1.058522037E1,2.797046598E0,1.540491941E0,1.978033533E0,3.756221738E0
1.059520638E1,1.950944552E0,1.341449504E0,1.710813439E0,2.921053584E0
1.060519238E1,7.412065047E-1,5.026120394E-1,1.164975858E0,1.469413044E0
1.061517837E1,-2.137303501E-1,-5.098008987E-1,5.138117963E-1,7.547053604E-1
1.062516438E1,-8.040143716E-1,-1.182119309E0,1.515124673E-1,1.437637367E0
1.063515038E1,-1.308637853E0,-1.695498704E0,-6.427317917E-2,2.142750552E0
1.064513637E1,-1.689165877E0,-1.928297409E0,-1.665947753E-1,2.568923136E0
1.065512237E1,-1.568996240E0,-1.826914583E0,-1.830763221E-1,2.415136235E0
1.066510738E1,-1.210905152E0,-1.623097018E0,-2.310264140E-1,2.038163002E0
1.067509338E1,-8.944655353E-1,-1.450024697E0,-3.785405552E-1,1.745260201E0
1.068507937E1,-6.666960204E-1,-1.409937648E0,-6.276383740E-1,1.681171521E0
1.069506538E1,-5.789813536E-1,-1.122289722E0,-8.541483986E-1,1.524573092E0
1.070505138E1,-4.702360064E-1,-8.382115200E-1,-1.132277643E0,1.485184539E0
1.071503737E1,-4.172163785E-1,-7.035173991E-1,-1.642130290E0,1.834556656E0
1.072502338E1,-5.080172056E-1,-5.694951233E-1,-2.220139251E0,2.347642322E0
1.073500938E1,-7.610016686E-1,-8.434614426E-1,-2.542084606E0,2.784375135E0
1.074499537E1,-1.014542202E0,-1.248049882E0,-2.610184203E0,3.065939654E0
1.075498138E1,-1.150175970E0,-1.326976768E0,-2.647633281E0,3.177063754E0
1.076496738E1,-9.434371358E-1,-1.144933941E0,-2.748131130E0,3.123006895E0
1.077495337E1,-5.327620375E-1,-9.424401855E-1,-2.957598276E0,3.149510510E0
1.078493938E1,-1.277920675E-1,-7.283323976E-1,-2.987113851E0,3.077279326E0
1.079492538E1,2.113826931E-2,-5.518227911E-1,-2.965593174E0,3.016570584E0
1.080491137E1,2.353738189E-1,-4.914929742E-1,-2.955929480E0,3.005742050E0
1.081489738E1,5.047994828E-1,-3.520699176E-1,-2.980962580E0,3.043832066E0
1.082488338E1,6.939586633E-1,-3.016908923E-1,-3.077531685E0,3.169195055E0
1.083486937E1,1.033341000E0,-3.676571327E-1,-3.530849358E0,3.697277725E0
1.084485538E1,1.454682004E0,-2.895406705E-1,-4.181102423E0,4.436389411E0
1.085484138E1,2.028620135E0,-1.570521194E-1,-4.861389127E0,5.270016059E0
1.086482637E1,2.926644285E0,-1.477763888E-1,-5.621382735E0,6.339323977E0
1.087481237E1,3.713239802E0,-2.066829935E-1,-6.336206018E0,7.346997645E0
1.088479838E1,4.259141702E0,-5.254471707E-1,-7.148559104E0,8.337762292E0
1.089478437E1,4.748513891E0,-8.395069706E-1,-8.107309513E0,9.433007138E0
1.090477037E1,5.403404968E0,-7.273345703E-1,-8.809243194E0,1.035995012E1
1.091475638E1,6.145344713E0,-2.266708231E-1,-8.920036236E0,1.083437528E1
1.092474237E1,7.001980518E0,2.008202827E-1,-8.651989930E0,1.113216015E1
1.093472837E1,7.691108796E0,2.482920724E-1,-8.210101225E0,1.125258040E1
1.094471438E1,8.277850574E0,3.284316713E-1,-7.536630036E0,1.119961918E1
1.095470037E1,9.304290690E0,5.016975349E-1,-6.463988146E0,1.134039983E1
1.096468637E1,1.047752749E1,2.596801096E-1,-5.242603614E0,1.171882711E1
1.097467238E1,1.187041378E1,-1.193767548E-1,-4.836672361E0,1.281851683E1
1.098465837E1,1.268009294E1,-1.667777932E0,-5.047444021E0,1.374928839E1
1.099464437E1,1.321312863E1,-4.111991258E0,-4.236286690E0,1.447208918E1
1.100463038E1,1.189912712E1,-6.298233615E0,-2.933976109E0,1.377915777E1
1.101461637E1,1.108989002E1,-9.231802758E0,-2.269735919E0,1.460696902E1
1.102460237E1,7.177227418E0,-1.141141905E1,-8.399501165E-1,1.350698317E1
1.103458838E1,2.988608984E0,-1.126876102E1,1.402869827E0,1.174243596E1
1.104457437E1,3.660681519E-1,-1.037644083E1,2.218693820E0,1.061730345E1
1.105455937E1,-4.651366496E-1,-8.962989298E0,1.189721274E0,9.053560955E0
1.106454538E1,-8.068485171E-2,-7.078259200E0,4.162358004E-1,7.090946029E0
1.107453138E1,3.810770774E-1,-5.965945120E0,4.204732776E-2,5.978251324E0
1.108451775E1,9.635009792E-1,-5.544103010E0,-2.393025631E-1,5.632288881E0
1.109450375E1,1.150932015E0,-5.611493340E0,-5.278965694E-1,5.752580012E0
1.110448975E1,4.214211112E-1,-6.581051742E0,-5.836079630E-1,6.620304830E0
1.111447575E1,-1.117893493E0,-7.027513554E0,6.933423668E-1,7.149570354E0
1.112446175E1,-2.517586527E0,-6.951733055E0,2.692821148E0,7.868679693E0
1.113444775E1,-3.559779627E0,-6.636332488E0,2.539127085E0,7.947333278E0
1.114443375E1,-3.148556644E0,-6.363080406E0,1.402882690E0,7.236731378E0
1.115441975E1,-1.805937113E0,-6.095565612E0,1.889911315E0,6.632427442E0
1.116440575E1,-1.024891189E0,-5.786243811E0,2.097801759E0,6.239534567E0
1.117439175E1,-2.015155166E-1,-5.791206343E0,1.759223707E0,6.055868845E0
1.118437775E1,5.178504682E-1,-5.758425683E0,1.988683359E0,6.114122746E0
1.119436375E1,9.660038799E-1,-5.866208578E0,3.182516396E0,6.743439567E0
1.120434975E1,6.594133133E-1,-6.425784193E0,4.198744057E0,7.704218329E0
1.121433575E1,-1.400150871E-1,-7.161988989E0,4.327591547E0,8.369094282E0
1.122432175E1,-9.581189096E-1,-7.900300537E0,4.061648485E0,8.934748393E0
1.123430775E1,-1.352268022E0,-8.616986158E0,3.804408419E0,9.516018215E0
1.124429375E1,-1.374437740E0,-9.655874412E0,3.728453087E0,1.044156847E1
1.125427875E1,-1.092466875E0,-1.063594845E1,3.497984498E0,1.124956794E1
1.126426475E1,-4.654968381E-2,-1.011160172E1,1.945873847E0,1.029723659E1
1.127425075E1,9.440826684E-1,-9.494642118E0,7.940415068E-1,9.574446352E0
1.128423675E1,1.517608862E0,-8.747901224E0,-5.651357317E-1,8.896532520E0
1.129422275E1,1.496428493E0,-7.799849465E0,-1.943446083E0,8.176425417E0
1.130420875E1,1.302249478E0,-7.676208336E0,-2.866553035E0,8.296815921E0
1.131419475E1,8.906326854E-1,-8.971266616E0,-4.502715364E0,1.007726634E1
1.132418075E1,2.209877680E-1,-1.013911755E1,-5.055172870E0,1.133160682E1
1.133416675E1,5.078738392E-1,-1.149098913E1,-2.917791893E0,1.186651914E1
1.134415275E1,9.463503648E-1,-1.347387234E1,1.188967276E0,1.355929416E1
1.135413875E1,7.025998248E-1,-1.581530097E1,4.587193597E0,1.648210352E1
1.136412475E1,1.726567446E0,-1.609297706E1,4.602898048E0,1.682710956E1
1.137411075E1,4.318827741E0,-1.348391786E1,2.020488119E0,1.430212174E1
1.138409675E1,6.426149644E0,-9.758519944E0,-2.023665496E0,1.185830227E1
1.139408275E1,7.223632091E0,-6.200418468E0,-6.566467617E0,1.156479774E1
1.140406875E1,8.138264673E0,-2.837964243E0,-1.249142668E1,1.517633465E1
1.141405475E1,9.280859143E0,-1.685225438E0,-1.387842599E1,1.678049580E1
1.142404075E1,9.854303184E0,-2.588423206E0,-8.630669228E0,1.335274044E1
1.143402675E1,9.318435105E0,-4.644334050E0,-3.163419682E0,1.088164949E1
1.144401275E1,7.613864738E0,-6.471348621E0,-6.582361226E-1,1.001411823E1
1.145399775E1,5.577674214E0,-7.725910839E0,-1.347980698E0,9.623783034E0
1.146398375E1,4.479737268E0,-8.082710277E0,-3.711915407E0,9.958743264E0
1.147396975E1,4.630413584E0,-7.893492039E0,-6.209148946E0,1.105899983E1
1.148395575E1,5.668659228E0,-5.991034938E0,-8.384143599E0,1.176095493E1
1.149394175E1,6.800051018E0,-3.819934238E0,-9.987116840E0,1.267182284E1
1.150392775E1,8.063877565E0,-2.609795071E0,-1.079168670E1,1.372215921E1
1.151391375E1,8.706590645E0,-2.597638417E0,-1.043395170E1,1.383545425E1
1.152389975E1,9.117874439E0,-3.864696428E0,-9.007845043E0,1.338703795E1
1.153388575E1,9.736173055E0,-4.709784858E0,-6.975559874E0,1.286987081E1
1.154387175E1,1.025683253E1,-4.890381084E0,-6.086546867E0,1.289048073E1
1.155385775E1,1.070731839E1,-4.569380347E0,-6.256123137E0,1.321608795E1
1.156384375E1,1.040795966E1,-4.681069767E0,-7.021568105E0,1.339927077E1
1.157382975E1,1.064033971E1,-4.631772184E0,-7.037231627E0,1.357176376E1
1.158381575E1,1.104071727E1,-3.817111202E0,-6.985744554E0,1.361133362E1
1.159380175E1,1.128063789E1,-3.162206092E0,-7.842441169E0,1.409809285E1
1.160378775E1,1.256544073E1,-3.068511770E0,-7.707042459E0,1.505671175E1
1.161377375E1,1.432716354E1,-3.539281043E0,-6.263914552E0,1.603217861E1
1.162375975E1,1.573394516E1,-4.620661597E0,-4.652023723E0,1.704549408E1
1.163374575E1,1.543122545E1,-6.206332927E0,-1.309911962E0,1.668403897E1
1.164373175E1,1.389270489E1,-6.504342120E0,1.572073629E0,1.542028311E1
1.165371775E1,1.295204811E1,-6.056674612E0,2.841025845E0,1.457773252E1
1.166370275E1,1.268866496E1,-5.783126661E0,4.898365749E0,1.477974152E1
1.167368875E1,1.157808341E1,-5.906197101E0,8.316501839E0,1.543046929E1
1.168367475E1,9.104755041E0,-5.716473080E0,1.182027274E1,1.597790589E1
1.169366075E1,6.499669610E0,-5.063024511E0,1.174395020E1,1.434574113E1
1.170364675E1,4.311439784E0,-5.136092488E0,9.100669007E0,1.130442990E1
1.171363275E1,1.878242320E0,-5.263752993E0,6.978363613E0,8.940494869E0
1.172361875E1,2.843609145E-1,-5.095908667E0,6.672377649E0,8.400581514E0
1.173360475E1,-7.389687753E-1,-3.878771553E0,6.797650736E0,7.861233945E0
1.174359075E1,-6.138406992E-1,-1.326420990E0,5.650712369E0,5.836672282E0
1.175357675E1,1.861023731E0,5.799034595E-2,5.095794062E0,5.425300852E0
1.176356275E1,1.198515487E0,1.530054953E0,4.133997254E0,4.568089406E0
1.177354875E1,5.153420126E-1,1.482956800E0,2.766905370E0,3.181273894E0
1.178353475E1,-1.998379505E-1,1.192235577E-1,1.943279437E0,1.957162343E0
1.179352075E1,-1.417901849E0,-1.079643347E0,1.529424623E0,2.348449507E0
1.180350675E1,-2.675617470E0,-1.866384459E0,9.595625871E-1,3.400452933E0
1.181349275E1,-3.403219843E0,-2.288345268E0,9.226906300E-3,4.101038222E0
1.182347875E1,-3.739743476E0,-2.481093469E0,-6.386521894E-1,4.533142694E0
1.183346475E1,-3.661754483E0,-2.207979382E0,-5.006374347E-1,4.305143050E0
1.184345075E1,-3.025945795E0,-1.856643582E0,3.641002715E-2,3.550323793E0
1.185343675E1,-2.166212136E0,-1.637675296E0,-7.303289294E-2,2.716576742E0
1.186342175E1,-1.394641625E0,-1.460781235E0,-3.295502436E-1,2.046340744E0
1.187340775E1,-7.553398097E-1,-1.030511240E0,-2.860001814E-1,1.309308118E0
1.188339375E1,-4.512810874E-1,-8.731676370E-1,-5.003468281E-1,1.102915813E0
1.189337975E1,-4.602156329E-1,-1.095244595E0,-1.110268723E0,1.626055285E0
1.190336575E1,-6.538017404E-1,-1.326730893E0,-1.691641003E0,2.247069394E0
1.191335175E1,-7.498171145E-1,-1.520759050E0,-1.960712326E0,2.592166395E0
1.192333775E1,-8.901204693E-1,-1.440665059E0,-2.147125069E0,2.734588877E0
1.193332375E1,-8.790435040E-1,-1.301721182E0,-2.454102137E0,2.913728336E0
1.194330975E1,-6.817151785E-1,-1.192251657E0,-2.863180946E0,3.175532196E0
1.195329575E1,-5.101070005E-1,-1.034977343E0,-2.884381780E0,3.106613189E0
1.196328175E1,-3.371007532E-1,-8.678642124E-1,-2.606602784E0,2.767887874E0
1.197326775E1,2.660483122E-3,-5.637291840E-1,-2.580144718E0,2.641012010E0
1.198325375E1,3.290660942E-1,-2.011714080E-1,-2.778550685E0,2.805191320E0
1.199323975E1,4.623101056E-1,-1.596988615E-1,-2.873981338E0,2.915304974E0
1.200322575E1,4.086098617E-1,-2.815995669E-1,-3.191516722E0,3.229866766E0
1.201321175E1,4.382482284E-1,-1.954648179E-1,-3.639381282E0,3.670880564E0
1.202319775E1,9.555256695E-1,5.718050659E-2,-4.021581025E0,4.133934307E0
1.203318375E1,1.928597079E0,5.666308647E-1,-4.591319100E0,5.012062281E0
1.204316975E1,2.832015286E0,1.225132597E0,-5.345633892E0,6.172281764E0
1.205315575E1,3.806340339E0,1.695290835E0,-6.218366497E0,7.485340318E0
1.206314075E1,4.786974537E0,1.908872082E0,-6.894325676E0,8.607592251E0
1.207312675E1,5.507917516E0,1.781490489E0,-7.232891157E0,9.264209529E0
1.208311275E1,5.816799606E0,1.545724322E0,-7.279909202E0,9.445713278E0
1.209309913E1,6.046166580E0,1.183627306E0,-6.890586382E0,9.243229122E0
1.210308512E1,6.608032549E0,7.128989643E-1,-6.261585606E0,9.131362078E0
1.211307113E1,7.345781595E0,5.193988109E-1,-6.000562976E0,9.499317786E0
1.212305713E1,8.266133339E0,6.593191731E-1,-6.102878140E0,1.029605671E1
1.213304312E1,8.779318314E0,-8.950549346E-1,-5.998493646E0,1.067049574E1
1.214302912E1,8.034769540E0,-2.227622518E0,-4.998162518E0,9.721185741E0
1.215301513E1,6.327069744E0,-2.341798174E0,-3.929806344E0,7.807637807E0
1.216300112E1,6.741624470E0,-2.846225774E0,-2.887950336E0,7.867067992E0
1.217298712E1,6.286692381E0,-2.578187655E0,-1.513938565E0,6.961433951E0
1.218297313E1,6.114528133E0,-2.099916404E0,-7.683171201E-1,6.510561757E0
1.219295912E1,5.204422465E0,-3.270802628E0,-8.254584503E-1,6.202059712E0
1.220294512E1,4.032927839E0,-3.676374276E0,1.218068576E-1,5.458486208E0
1.221293113E1,3.636488664E0,-3.406801847E0,7.895612240E-1,5.045171509E0
1.222291712E1,3.129143596E0,-3.468708658E0,8.314734080E-1,4.744979181E0
1.223290312E1,2.690677266E0,-3.615389571E0,5.686154097E-1,4.542478331E0
1.224288913E1,1.525509328E0,-4.114074621E0,1.039942360E0,4.509353480E0
1.225287512E1,1.551775020E-1,-4.608455535E0,2.078279952E0,5.057785092E0
1.226286112E1,-1.037218874E0,-4.682432753E0,3.400766936E0,5.879303975E0
1.227284613E1,-1.184076372E0,-4.793564349E0,5.033712419E0,7.051138684E0
1.228283213E1,-9.134210390E-1,-4.964671420E0,6.022100025E0,7.857988866E0
1.229281812E1,-6.790970877E-1,-5.253606319E0,5.677418357E0,7.764961778E0
1.230280413E1,-4.593414742E-1,-5.370450060E0,5.340547400E0,7.587764820E0
1.231279013E1,1.555043614E-1,-5.401719216E0,5.218279781E0,7.512203137E0
1.232277612E1,1.330497377E0,-5.209209580E0,3.875649140E0,6.627725400E0
1.233276213E1,2.118755841E0,-4.960574276E0,2.663304988E0,6.015780658E0
1.234274813E1,1.716919394E0,-5.317257940E0,3.660896112E0,6.680060220E0
1.235273412E1,4.978436351E-1,-6.079500387E0,5.451121171E0,8.180641495E0
1.236272013E1,-6.962054560E-1,-7.289644817E0,6.540988959E0,9.818765714E0
1.237270613E1,-9.386327711E-1,-8.279835704E0,7.035869225E0,1.090596931E1
1.238269212E1,-1.939196911E-1,-9.142703471E0,5.610329159E0,1.072857982E1
1.239267813E1,8.705246955E-1,-9.822739913E0,4.105789116E0,1.068183210E1
1.240266413E1,1.508320853E0,-1.030550943E1,3.338325105E0,1.093722866E1
1.241265012E1,2.179895497E0,-9.451759808E0,2.028338299E0,9.909685369E0
1.242263613E1,2.497601913E0,-8.427657993E0,1.873342499E0,8.987371512E0
1.243262213E1,2.328773502E0,-8.336194092E0,1.373806680E0,8.763712841E0
1.244260812E1,2.264698543E0,-8.082828975E0,-8.776672156E-1,8.439862764E0
1.245259413E1,1.274438366E0,-9.195299175E0,-1.918905319E0,9.479447120E0
1.246258013E1,5.523143958E-1,-1.103773402E1,-2.336394470E0,1.129581173E1
1.247256512E1,5.098846601E-1,-1.299223251E1,-1.628085570E0,1.310376857E1
1.248255112E1,2.099184187E0,-1.403347895E1,1.435155228E-1,1.419033835E1
1.249253713E1,4.133420718E0,-1.357061570E1,1.024050651E0,1.422306075E1
1.250252312E1,6.166907490E0,-1.080327354E1,-1.135933907E0,1.249126947E1
1.251250912E1,8.851016872E0,-6.456884363E0,-6.252980844E0,1.261473840E1
1.252249513E1,8.996438879E0,-1.312492338E0,-1.269723230E1,1.561660196E1
1.253248112E1,8.867996601E0,1.079873142E0,-1.599624189E1,1.832176969E1
1.254246712E1,8.572722151E0,4.059844619E-1,-1.535638459E1,1.759189973E1
1.255245313E1,7.476580886E0,-1.930675764E0,-1.206201652E1,1.432197658E1
1.256243912E1,5.367594865E0,-5.141036308E0,-8.537219027E0,1.131925076E1
1.257242512E1,3.839375938E0,-7.390373631E0,-6.641496749E0,1.065213167E1
1.258241113E1,3.195143166E0,-8.093306016E0,-6.567177469E0,1.090130093E1
1.259239712E1,3.535983798E0,-8.292717705E0,-6.985222982E0,1.140463452E1
1.260238312E1,4.226995465E0,-8.375079830E0,-7.162792397E0,1.180317956E1
1.261236913E1,4.586488715E0,-7.284153112E0,-6.796458489E0,1.096752539E1
1.262235513E1,5.219287841E0,-5.848259965E0,-5.573721496E0,9.618184938E0
1.263234112E1,5.414769616E0,-5.016233922E0,-5.521192449E0,9.217694876E0
1.264232713E1,5.125268122E0,-4.380132873E0,-6.206999509E0,9.164102805E0
1.265231313E1,4.547263838E0,-4.304033700E0,-6.605397209E0,9.101295885E0
1.266229912E1,3.612468887E0,-5.098526466E0,-6.872225540E0,9.288293032E0
1.267228513E1,2.720718214E0,-6.334124994E0,-6.822563968E0,9.699011606E0
1.268227013E1,2.592313358E0,-6.734080977E0,-6.579958313E0,9.765438369E0
1.269225612E1,3.323617018E0,-6.701976839E0,-6.700065969E0,1.004259965E1
1.270224213E1,4.732354526E0,-6.484753363E0,-6.875567223E0,1.056979802E1
1.271222813E1,6.255487545E0,-6.094525977E0,-6.421305810E0,1.084008947E1
1.272221412E1,8.014458067E0,-5.122182546E0,-6.562907832E0,1.155595307E1
1.273220012E1,9.612868726E0,-4.442783450E0,-7.471868615E0,1.296049345E1
1.274218613E1,1.079462317E1,-4.384008992E0,-8.123477649E0,1.420332050E1
1.275217212E1,1.233152287E1,-4.840012876E0,-8.086678782E0,1.552052044E1
1.276215812E1,1.352416775E1,-5.460629328E0,-7.546634037E0,1.642173168E1
1.277214413E1,1.544269768E1,-5.101375814E0,-6.291112876E0,1.743786249E1
1.278213012E1,1.852465162E1,-4.778009586E0,-4.358891693E0,1.962121377E1
1.279211612E1,1.982143658E1,-4.785983141E0,-1.543878356E0,2.044941425E1
1.280210213E1,2.011057438E1,-4.837907293E0,1.490663431E0,2.073795135E1
1.281208812E1,1.763832365E1,-6.606063792E0,6.145409617E0,1.981203168E1
1.282207412E1,1.258245262E1,-7.842138283E0,1.233660293E1,1.928753532E1
1.283206013E1,7.367910383E0,-8.152780970E0,1.529263006E1,1.883131634E1
1.284204612E1,3.903864294E0,-7.985640065E0,1.586669332E1,1.818687881E1
1.285203212E1,2.705307292E0,-6.864625914E0,1.451303483E1,1.628096915E1
1.286201813E1,1.934322380E0,-5.666420914E0,1.121559931E1,1.271375621E1
1.287200412E1,1.437069606E0,-3.976848071E0,6.377061099E0,7.651627140E0
1.288198912E1,7.981136540E-1,-2.129686334E0,2.151443238E0,3.130695976E0
1.289197513E1,1.280629983E0,1.395145655E-1,6.551863611E-2,1.289872148E0
1.290196113E1,2.829334045E0,1.481518385E0,-2.238372624E-2,3.193826686E0
1.291194712E1,2.072714280E0,1.554711492E0,7.307043207E-1,2.692062614E0
1.292193313E1,3.554744589E-1,9.917240274E-1,9.454672891E-1,1.415551847E0
1.293191913E1,-1.031199165E0,-5.877755660E-1,1.237075535E0,1.714411769E0
1.294190512E1,-1.800690991E0,-1.656056018E0,1.119221395E0,2.690291083E0
1.295189113E1,-2.135057293E0,-2.078734281E0,1.555709612E0,3.361523204E0
1.296187713E1,-2.074867517E0,-2.029627025E0,1.929261323E0,3.485184404E0
1.297186312E1,-1.751533449E0,-1.618313996E0,1.366105458E0,2.748281960E0
1.298184913E1,-1.068148890E0,-1.072526116E0,2.574189913E-1,1.535421394E0
1.299183513E1,-5.645539337E-1,-6.234546912E-1,-1.060963832E0,1.353905886E0
1.300182112E1,-4.662528831E-1,-3.354471606E-1,-2.298184962E0,2.368875402E0
1.301180713E1,-5.204302597E-1,-3.865646893E-1,-2.923896094E0,2.994903718E0
1.302179313E1,-5.715518814E-1,-5.959458804E-1,-2.759590504E0,2.880479612E0
1.303177912E1,-6.474306142E-1,-8.108661389E-1,-2.453569456E0,2.663958215E0
1.304176513E1,-5.950202662E-1,-1.156555867E0,-1.964569150E0,2.356099008E0
1.305175113E1,-7.511941338E-1,-1.722450567E0,-9.184274250E-1,2.091563415E0
1.306173712E1,-1.007018005E0,-1.526359513E0,-6.434241021E-1,1.938518300E0
1.307172313E1,-7.393336415E-1,-1.149190130E0,-9.852610999E-1,1.684633973E0
1.308170913E1,-2.947803605E-1,-9.217948365E-1,-1.598976669E0,1.869044560E0
1.309169404E1,1.514358687E-1,-3.640727895E-1,-2.518332047E0,2.549015127E0
1.310168004E1,7.459585369E-1,3.234282088E-1,-3.326572786E0,3.424492144E0
1.311166604E1,1.164478260E0,8.003505063E-1,-3.975899068E0,4.219519397E0
1.312165204E1,1.119820735E0,7.841408551E-1,-4.444111353E0,4.649623756E0
1.313163804E1,1.056989479E0,5.869142711E-1,-4.629498494E0,4.784762421E0
1.314162404E1,1.083024791E0,2.693783015E-1,-4.506616334E0,4.642746832E0
1.315161004E1,9.893523967E-1,-2.726369548E-1,-4.081866987E0,4.208893819E0
1.316159604E1,1.034168381E0,-7.264165574E-1,-3.274885738E0,3.510279455E0
1.317158204E1,1.233640296E0,-4.872285998E-1,-3.279881600E0,3.537920773E0
1.318156804E1,2.066092601E0,2.785420579E-1,-3.403317491E0,3.991101886E0
1.319155404E1,3.375008782E0,1.118982829E0,-3.800959731E0,5.204815244E0
1.320154004E1,4.229816161E0,1.851596265E0,-4.267987955E0,6.287724125E0
1.321152604E1,4.702022095E0,2.240001658E0,-4.959649832E0,7.191991773E0
1.322151204E1,5.190620112E0,2.550951909E0,-5.703362453E0,8.122698816E0
1.323149804E1,5.717421498E0,2.743187894E0,-6.278080017E0,8.923467774E0
1.324148404E1,6.402598228E0,2.212477060E0,-6.399771684E0,9.319087747E0
1.325147004E1,6.696719608E0,7.707764590E-1,-6.066247673E0,9.068600260E0
1.326145604E1,6.726119993E0,-6.276319420E-1,-5.438398215E0,8.672415301E0
1.327144204E1,6.718604566E0,-1.810157633E0,-4.379335020E0,8.221611350E0
1.328142804E1,6.534157072E0,-1.024705832E0,-3.221116790E0,7.356685671E0
1.329141404E1,7.115431119E0,-3.962833464E-1,-2.992412013E0,7.729225715E0
1.330140004E1,8.273133041E0,-1.130106572E0,-3.220270405E0,8.949414096E0
1.331138504E1,7.527178012E0,-2.877431780E0,-2.228722087E0,8.360934434E0
1.332137104E1,5.767539738E0,-2.903381138E0,-8.455072372E-1,6.512220754E0
1.333135704E1,4.671845492E0,-3.549928823E0,-1.393987906E-1,5.869204969E0
1.334134304E1,4.207601127E0,-4.046679028E0,9.237299725E-2,5.838497339E0
1.335132904E1,3.674652856E0,-3.942696823E0,-4.420413172E-1,5.407710456E0
1.336131504E1,2.730032828E0,-4.154257856E0,-1.241023575E0,5.123580495E0
1.337130104E1,2.119106382E0,-4.386516278E0,-1.210491169E0,5.019703755E0
1.338128704E1,1.722290938E0,-4.697316256E0,-5.014016658E-1,5.028167630E0
1.339127304E1,8.031697413E-1,-5.145605323E0,1.606516653E-1,5.210388155E0
1.340125904E1,-7.390477127E-1,-5.525304211E0,4.782642335E-1,5.594990154E0
1.341124504E1,-2.336228701E0,-5.232821222E0,4.619727212E-1,5.749243540E0
1.342123104E1,-3.164345881E0,-4.742325783E0,-5.821385577E-2,5.701414521E0
1.343121704E1,-2.756291505E0,-4.512257727E0,-3.122467245E-1,5.296707531E0
1.344120304E1,-2.243457363E0,-4.479821468E0,-3.525609376E-1,5.022569117E0
1.345118904E1,-1.546313721E0,-4.226252283E0,1.140914565E-1,4.501700939E0
1.346117504E1,-5.008578748E-1,-4.260857275E0,1.029511074E0,4.411990070E0
1.347116104E1,3.673472303E-1,-4.347325900E0,2.261887055E0,4.914297460E0
1.348114704E1,7.714734471E-1,-4.354024470E0,3.055224558E0,5.374671847E0
1.349113304E1,1.016281164E-1,-5.244075943E0,3.242647700E0,6.166475887E0
1.350111904E1,-1.426292018E0,-6.235873060E0,3.179064492E0,7.143309652E0
1.351110404E1,-2.146928018E0,-6.851961429E0,3.143749648E0,7.838484368E0
1.352109004E1,-1.949202082E0,-7.403356204E0,2.934515807E0,8.198808137E0
1.353107604E1,-1.440223594E0,-7.688616128E0,2.313195350E0,8.157201401E0
1.354106204E1,-6.560230976E-1,-7.393560364E0,1.025043216E0,7.493051098E0
1.355104804E1,3.456406116E-2,-7.571396996E0,1.383802056E-2,7.571488535E0
1.356103404E1,1.153448072E-1,-7.774767834E0,-5.346518576E-1,7.793983058E0
1.357102004E1,1.557069674E-1,-7.475967513E0,-1.234545883E0,7.578815109E0
1.358100604E1,5.682631150E-1,-6.997631359E0,-2.319417372E0,7.393880209E0
1.359099204E1,1.027005542E0,-6.934860329E0,-2.560158935E0,7.463339865E0
1.360097804E1,1.097289659E0,-7.399418689E0,-2.047146306E0,7.755401313E0
1.361096404E1,6.736634164E-1,-7.989315625E0,-1.617562044E0,8.179211057E0
1.362095004E1,6.628091568E-1,-9.147754880E0,-1.251790638E0,9.256765911E0
1.363093604E1,1.484176822E0,-1.006582855E1,-4.788097787E-1,1.018591891E1
1.364092204E1,2.241170517E0,-9.943169167E0,4.866111338E-1,1.020422700E1
1.365090804E1,3.408365977E0,-8.423010626E0,1.126278985E-1,9.087175122E0
1.366089404E1,3.885965967E0,-7.223561924E0,-1.347320401E0,8.312391391E0
1.367088004E1,3.419417800E0,-7.066010453E0,-2.511488173E0,8.241874462E0
1.368086604E1,2.995073373E0,-7.066457180E0,-3.241375930E0,8.331374407E0
1.369085204E1,2.938470279E0,-7.163102884E0,-3.228836284E0,8.388684894E0
1.370083804E1,3.025007901E0,-7.357973040E0,-2.691939973E0,8.398629702E0
1.371082404E1,3.222477729E0,-7.307248444E0,-2.073828467E0,8.251121563E0
1.372080904E1,4.876400099E0,-7.635110012E0,-1.890692650E0,9.254669173E0
1.373079504E1,4.900294161E0,-6.648505806E0,-2.152078246E0,8.535042653E0
1.374078104E1,4.390382457E0,-6.013684128E0,-2.762382549E0,7.941700842E0
1.375076704E1,4.472056950E0,-5.135093198E0,-3.866743830E0,7.830720489E0
1.376075304E1,5.430695677E0,-3.510710378E0,-5.752544553E0,8.655016565E0
1.377073904E1,6.899378255E0,-1.983453610E0,-7.475189248E0,1.036407077E1
1.378072504E1,8.604063227E0,-8.751077431E-1,-8.272461780E0,1.196784615E1
1.379071104E1,9.087750168E0,-5.179165417E-1,-8.317929729E0,1.233058781E1
1.380069704E1,8.586218694E0,-1.107199812E0,-7.905247282E0,1.172356505E1
1.381068304E1,7.373143641E0,-2.622832900E0,-6.952431797E0,1.046798966E1
1.382066904E1,5.927786191E0,-4.255893281E0,-6.096463745E0,9.508845721E0
1.383065504E1,4.900787666E0,-5.860097653E0,-5.659448694E0,9.507251115E0
1.384064104E1,4.433095783E0,-7.005045043E0,-5.858200232E0,1.015093613E1
1.385062704E1,4.606994315E0,-7.196400438E0,-7.109809606E0,1.111584313E1
1.386061304E1,5.549437425E0,-7.092296610E0,-8.666202757E0,1.249799973E1
1.387059904E1,6.979816062E0,-6.646272170E0,-9.875398768E0,1.379906761E1
1.388058504E1,8.475082421E0,-5.783638292E0,-1.118355189E1,1.517726348E1
1.389057104E1,1.043293663E1,-4.892917606E0,-1.218841110E1,1.677331734E1
1.390055704E1,1.204098174E1,-4.378763748E0,-1.200359932E1,1.755691345E1
1.391054304E1,1.314825962E1,-4.528824643E0,-1.052989984E1,1.744321570E1
1.392052904E1,1.376017658E1,-6.162925537E0,-7.671710658E0,1.691683348E1
1.393051404E1,1.348605443E1,-7.877316887E0,-3.753982031E0,1.606294390E1
1.394050004E1,1.197797449E1,-8.782637193E0,2.303867286E-1,1.485461770E1
1.395048604E1,1.103456600E1,-8.866154144E0,3.596766189E0,1.460503554E1
1.396047204E1,1.030148537E1,-8.054522020E0,6.053303107E0,1.440966358E1
1.397045804E1,9.900629504E0,-6.735926943E0,6.243384393E0,1.350462976E1
1.398044404E1,1.028465358E1,-5.018963403E0,6.370530928E0,1.309762410E1
1.399043004E1,1.059030742E1,-3.397480216E0,6.851514117E0,1.306295253E1
1.400041604E1,1.031328739E1,-2.278143338E0,7.508847576E0,1.295903645E1
1.401040204E1,9.082697589E0,-1.592655829E0,8.243301716E0,1.236866894E1
1.402038804E1,7.281563380E0,-1.406441891E0,8.921073532E0,1.160106879E1
1.403037404E1,5.449349465E0,-1.704610420E0,8.897237357E0,1.057175193E1
1.404036004E1,3.535099699E0,-2.180336085E0,8.611645896E0,9.560922569E0
1.405034604E1,2.008654232E0,-2.548513912E0,7.608754272E0,8.271804915E0
1.406033204E1,1.047182529E0,-2.739123202E0,6.126832429E0,6.792456314E0
1.407031804E1,4.058973384E-1,-2.635731566E0,5.092652353E0,5.748646930E0
1.408030404E1,1.767437875E-2,-2.239499090E0,4.398517689E0,4.935851134E0
1.409028929E1,-2.059477061E-1,-1.866347329E0,3.896751741E0,4.325545161E0
1.410027529E1,-2.358591378E-1,-1.441528108E0,3.285604854E0,3.595668516E0
1.411026129E1,8.730828524E-2,-6.432419613E-1,2.468569318E0,2.552492397E0
1.412024729E1,3.230095482E-1,2.361807346E-2,1.392378168E0,1.429548860E0
1.413023329E1,2.914971489E-1,4.084917480E-1,1.844626969E-1,5.346611848E-1
1.414021829E1,2.154956245E-1,4.944259375E-1,-9.815849555E-1,1.120001963E0
1.415020429E1,-1.474200010E-2,1.569948167E-2,-1.756519369E0,1.756651387E0
1.416019029E1,-4.132776940E-1,-5.805793977E-1,-1.772699785E0,1.910585098E0
1.417017629E1,-9.788297474E-1,-1.018292314E0,-1.387195196E0,1.979731654E0
1.418016229E1,-1.290150127E0,-1.416588272E0,-1.139895980E0,2.229478084E0
1.419014829E1,-1.439089819E0,-1.956807848E0,-9.807803786E-1,2.619543207E0
1.420013429E1,-1.716133236E0,-2.130786195E0,-9.802664083E-1,2.906249356E0
1.421012029E1,-1.668586017E0,-1.917868023E0,-1.321521608E0,2.865103211E0
1.422010629E1,-1.032138813E0,-1.553913932E0,-1.702629676E0,2.525649787E0
1.423009229E1,-2.480593532E-1,-8.695479181E-1,-2.252624043E0,2.427336421E0
1.424007829E1,1.600517410E-1,-2.865527433E-1,-3.142424085E0,3.159518660E0
1.425006429E1,4.209504104E-1,-5.313364863E-2,-4.006456032E0,4.028859934E0
1.426005029E1,7.756080133E-1,1.796469301E-1,-4.494854659E0,4.564817545E0
1.427003629E1,1.037156893E0,2.488703620E-1,-4.600482856E0,4.722507108E0
1.428002229E1,1.211643655E0,-8.717701524E-2,-4.278684851E0,4.447788690E0
1.429000829E1,1.175137149E0,-4.853510588E-1,-3.856759125E0,4.060924023E0
1.429999429E1,1.031862239E0,-8.401285297E-1,-3.539276950E0,3.781142282E0
1.430998029E1,9.495884067E-1,-9.199085248E-1,-3.402625181E0,3.650453117E0
1.431996629E1,9.791139221E-1,-8.142277032E-1,-3.634291865E0,3.850936014E0
1.432995229E1,1.196919197E0,-6.608751172E-1,-3.915585623E0,4.147430802E0
1.433993829E1,1.600721478E0,-4.976524311E-1,-3.879610044E0,4.226268009E0
1.434992329E1,2.045489352E0,-1.844460323E-1,-3.828059236E0,4.344201255E0
1.435990929E1,2.574893333E0,2.948747930E-1,-4.003967457E0,4.769568347E0
1.436989529E1,3.084277618E0,7.195659596E-1,-4.215923762E0,5.273002632E0
1.437988129E1,3.662063801E0,1.216008017E0,-4.416868005E0,5.864990175E0
1.438986729E1,4.380401260E0,1.641201167E0,-4.717280989E0,6.643357314E0
1.439985329E1,5.018802604E0,1.132559479E0,-4.966926107E0,7.151323339E0
1.440983929E1,5.037872713E0,1.303250813E-1,-4.789866570E0,6.952695007E0
1.441982529E1,4.676006078E0,-9.279215491E-1,-4.127740733E0,6.305895242E0
1.442981129E1,4.447990980E0,-1.052936774E0,-3.515062460E0,5.766191439E0
1.443979729E1,4.958420162E0,-5.874539691E-1,-3.505191191E0,6.100606360E0
1.444978329E1,6.014012157E0,-4.364478707E-2,-4.239867233E0,7.358445572E0
1.445976929E1,7.195901086E0,5.481893313E-1,-5.366759298E0,8.993531528E0
1.446975529E1,7.745418320E0,2.438300622E-1,-6.024423709E0,9.815530504E0
1.447974129E1,9.070809615E0,-1.372050907E0,-6.283898581E0,1.111977932E1
1.448972729E1,8.347670422E0,-3.660925933E0,-5.790378377E0,1.079881762E1
1.449971329E1,7.718813488E0,-4.258530083E0,-4.180692826E0,9.756708084E0
1.450969929E1,7.616107146E0,-5.657312121E0,-2.989765563E0,9.947309516E0
1.451968529E1,5.939359585E0,-7.484268805E0,-1.534669576E0,9.677059601E0
1.452967129E1,4.506846129E0,-7.010366594E0,-2.955180964E-2,8.334133136E0
1.453965729E1,3.323577257E0,-6.040740364E0,4.217877316E-1,6.907576625E0
1.454964329E1,2.456158603E0,-5.984245736E0,4.397867040E-1,6.483619703E0
1.455962929E1,1.461225916E0,-5.278114924E0,4.102714942E-1,5.491994267E0
1.456961429E1,-1.659746781E-1,-4.918398895E0,-2.788912828E-1,4.929094808E0
1.457960029E1,-9.852087674E-1,-5.083497368E0,-6.553907213E-1,5.219398318E0
1.458958629E1,-1.340603704E0,-5.142249021E0,-6.509015214E-1,5.353841245E0
1.459957229E1,-1.628985749E0,-5.280797626E0,-4.380418217E-1,5.543671958E0
1.460955829E1,-2.059660079E0,-5.569095179E0,3.123901275E-1,5.945974129E0
1.461954429E1,-3.011409616E0,-5.639151254E0,1.276893904E0,6.519131291E0
1.462953029E1,-2.791736741E0,-4.868814506E0,1.641323374E0,5.847485882E0
1.463951629E1,-1.134735228E0,-3.919276385E0,1.551664508E0,4.365319481E0
1.464950229E1,7.338255644E-4,-3.670866784E0,1.077763467E0,3.825812015E0
1.465948829E1,2.293161035E-2,-3.731714664E0,1.015884138E0,3.867588496E0
1.466947429E1,-7.721365213E-1,-3.736949676E0,1.526978148E0,4.110066904E0
1.467946029E1,-1.140097125E0,-3.786601308E0,2.205815035E0,4.528111183E0
1.468944629E1,-8.689395154E-1,-4.051740963E0,2.852478787E0,5.030735129E0
1.469943229E1,-5.442746204E-1,-4.344719211E0,3.322723564E0,5.496663695E0
1.470941829E1,-1.000172085E-1,-4.541475095E0,3.955085611E0,6.023097348E0
1.471940429E1,6.248018897E-1,-4.769115971E0,4.460342638E0,6.559687569E0
1.472939029E1,7.769265604E-1,-5.475354372E0,4.993658992E0,7.451157662E0
1.473937629E1,3.560065556E-1,-5.979284374E0,5.353959158E0,8.033894507E0
1.474936229E1,4.701085371E-1,-6.064561336E0,5.366711935E0,8.111812574E0
1.475934829E1,4.873449594E-1,-6.477892240E0,5.135632896E0,8.281021569E0
1.476933429E1,-3.588494718E-2,-6.932974602E0,4.660290517E0,8.353785505E0
1.477932029E1,3.120185369E-1,-6.916693030E0,3.484767451E0,7.751232304E0
1.478930529E1,2.787405708E-1,-7.594624475E0,2.534414814E0,8.011196894E0
1.479929129E1,-5.026383519E-2,-8.159630399E0,1.529933331E0,8.301975108E0
1.480927729E1,-9.176386356E-2,-8.293635133E0,5.679519700E-1,8.313565647E0
1.481926329E1,2.273128474E-1,-8.903215551E0,4.380394828E-1,8.916882688E0
1.482924929E1,1.641535774E0,-8.568413923E0,1.271528499E0,8.816413192E0
1.483923529E1,2.037094504E0,-8.343245249E0,1.754471967E0,8.765709737E0
1.484922129E1,1.401298387E0,-8.798087876E0,6.163726898E-1,8.930280104E0
1.485920729E1,1.311020740E0,-9.463627317E0,-6.891528368E-3,9.554007791E0
1.486919329E1,2.111760232E0,-1.016287946E1,3.743321680E-1,1.038671146E1
1.487917929E1,3.471921118E0,-9.338569407E0,3.057772189E-2,9.963134538E0
1.488916529E1,5.354179598E0,-7.136457122E0,-1.692267533E0,9.080750455E0
1.489915129E1,5.400570822E0,-5.365637802E0,-4.403505363E0,8.794719650E0
1.490913729E1,4.514686076E0,-4.267989124E0,-7.013666178E0,9.369612307E0
1.491912329E1,4.766235340E0,-4.360678017E0,-8.104023378E0,1.036376896E1
1.492910929E1,6.224730021E0,-3.834006439E0,-7.062918445E0,1.016521944E1
1.493909529E1,6.389733769E0,-4.368516210E0,-5.228049309E0,9.340510216E0
1.494908129E1,5.370074669E0,-6.121260617E0,-3.722077868E0,8.953289739E0
1.495906729E1,4.086187495E0,-7.923294713E0,-2.690185808E0,9.311961503E0
1.496905329E1,3.420822886E0,-8.646433906E0,-3.242997948E0,9.847836524E0
1.497903929E1,3.394707466E0,-9.061966286E0,-4.217527653E0,1.055607935E1
1.498902529E1,3.224571617E0,-9.295804626E0,-4.866641096E0,1.097697779E1
1.499901029E1,3.570909802E0,-9.202837406E0,-5.786184754E0,1.144218280E1
1.500899629E1,4.616201341E0,-8.229784123E0,-7.144690586E0,1.183576213E1
1.501898229E1,6.582894199E0,-6.034010804E0,-9.815492874E0,1.326980342E1
1.502896829E1,7.478911586E0,-4.509305176E0,-1.212219255E1,1.494039839E1
1.503895429E1,8.480305738E0,-4.064365394E0,-1.337800374E1,1.635254217E1
1.504894029E1,8.970772526E0,-4.561436319E0,-1.287305807E1,1.634004545E1
1.505892629E1,8.203596198E0,-6.463269523E0,-1.153655531E1,1.556165004E1
1.506891229E1,7.517141266E0,-7.938761183E0,-9.701944624E0,1.461708150E1
1.507889829E1,7.759996598E0,-8.725170758E0,-7.587861586E0,1.392558061E1
1.508888429E1,8.431843430E0,-9.199838369E0,-6.667639650E0,1.414886667E1
1.509887029E1,8.840115323E0,-9.040030457E0,-6.260257119E0,1.410888404E1
1.510885629E1,8.864377175E0,-8.230748913E0,-6.265982713E0,1.362295672E1
1.511884229E1,9.364683073E0,-7.401369320E0,-6.659462904E0,1.366843089E1
1.512882829E1,1.033759895E1,-6.624118239E0,-6.339820182E0,1.381803945E1
1.513881429E1,1.049554861E1,-6.359283224E0,-6.169759178E0,1.373546330E1
1.514880029E1,1.083229678E1,-6.713620985E0,-5.280266699E0,1.379465754E1
1.515878629E1,1.158071465E1,-7.037244490E0,-2.470362074E0,1.377455810E1
1.516877229E1,1.170421954E1,-6.736047980E0,-9.456818819E-2,1.350451927E1
1.517875829E1,1.175674157E1,-6.579081230E0,8.307677221E-1,1.349797975E1
1.518874429E1,1.171556548E1,-7.354067684E0,1.950311884E0,1.396926993E1
1.519873029E1,1.144218359E1,-7.813412667E0,4.569077461E0,1.458936091E1
1.520871629E1,1.084435608E1,-7.319670854E0,8.951474376E0,1.585265068E1
1.521870129E1,9.954296418E0,-6.043547028E0,1.276840811E1,1.728134033E1
1.522868729E1,8.595718666E0,-4.323756066E0,1.427881058E1,1.721817869E1
1.523867329E1,7.613999809E0,-2.772912800E0,1.345134770E1,1.570352806E1
1.524865929E1,7.344388204E0,-1.348640410E0,1.166299200E1,1.384861911E1
1.525864529E1,7.262490932E0,-1.454848650E-1,1.003229360E1,1.238595395E1
1.526863129E1,6.275818899E0,3.455350694E-1,7.423780528E0,9.727168893E0
1.527861729E1,4.558161879E0,4.851306188E-1,3.721506595E0,5.904388433E0
1.528860329E1,2.340000156E0,-9.375045508E-2,-2.270649254E-1,2.352859613E0
1.529858929E1,5.618501812E-1,-5.948635608E-1,-2.425917973E0,2.560198487E0
1.530857529E1,-9.848786920E-1,-9.999209467E-1,-2.805410455E0,3.136902255E0
1.531856129E1,-2.091575351E0,-1.143695209E0,-1.740781004E0,2.951786694E0
1.532854729E1,-2.579218519E0,-1.352682005E0,-3.539781564E-1,2.933840028E0
1.533853329E1,-2.560885743E0,-1.736696724E0,5.392629719E-1,3.140868646E0
1.534851929E1,-2.359670189E0,-1.625035662E0,1.170847047E0,3.095103732E0
1.535850529E1,-1.839843947E0,-1.079837474E0,1.297311797E0,2.496816496E0
1.536849129E1,-9.775667489E-1,-8.947371385E-1,7.322783911E-1,1.514074944E0
1.537847729E1,-7.227526921E-1,-1.059731238E0,-4.367560190E-1,1.355048919E0
1.538846329E1,-4.208697188E-1,-7.872109357E-1,-1.068117900E0,1.392015885E0
1.539844929E1,2.120843589E-2,-4.845441431E-1,-1.362302429E0,1.446063876E0
1.540843529E1,7.287267923E-2,-3.917596480E-1,-1.489226185E0,1.541616256E0
1.541842129E1,-3.485361528E-1,-9.709930167E-1,-1.698944176E0,1.987640863E0
1.542840729E1,-8.914992428E-1,-1.643567535E0,-2.397500505E0,3.040410139E0
1.543839229E1,-1.296829401E0,-1.583957218E0,-2.694454860E0,3.383899224E0
1.544837829E1,-1.152461647E0,-1.583623050E0,-2.627493131E0,3.277155774E0
1.545836429E1,-8.116391408E-1,-1.525491786E0,-2.406119885E0,2.962312642E0
1.546835029E1,-4.103956014E-1,-1.201598724E0,-2.154318314E0,2.500670198E0
1.547833629E1,1.533900082E-1,-8.906098813E-1,-2.199364679E0,2.377797184E0
1.548832229E1,6.860467958E-1,-6.225974894E-1,-2.657708033E0,2.814551444E0
1.549830829E1,1.133231909E0,-2.719572160E-1,-3.428874502E0,3.621512893E0
1.550829429E1,1.645452678E0,2.111371100E-1,-4.047541493E0,4.374321150E0
1.551828029E1,2.057760903E0,4.773675629E-1,-4.331914979E0,4.819517311E0
1.552826629E1,2.232757543E0,4.761571893E-1,-4.336709695E0,4.900916536E0
1.553825229E1,2.030750275E0,1.752083087E-1,-4.331500996E0,4.787122884E0
1.554823829E1,1.806697251E0,-2.530487823E-1,-4.232445654E0,4.608881085E0
1.555822429E1,1.909564977E0,-4.486121258E-1,-4.168532079E0,4.606989357E0
1.556821029E1,2.212760065E0,-3.126053050E-1,-4.324969656E0,4.868202102E0
1.557819629E1,2.724325946E0,1.574508995E-2,-4.552555568E0,5.305465292E0
1.558818229E1,3.321886243E0,5.658669260E-1,-4.852880259E0,5.908094481E0
1.559816829E1,4.017771564E0,1.193778950E0,-5.323065979E0,6.775147816E0
1.560815429E1,4.729882908E0,1.669847261E0,-5.651380706E0,7.556340786E0
1.561814029E1,5.406161345E0,1.780855481E0,-6.050252030E0,8.306839132E0
1.562812629E1,6.533557148E0,1.480790407E0,-6.486429759E0,9.324906448E0
1.563811229E1,7.510765463E0,7.224661785E-1,-6.754199492E0,1.012683396E1
1.564809829E1,7.967047673E0,-8.958747143E-1,-6.533761216E0,1.034245985E1
1.565808329E1,7.578637018E0,-2.701411293E0,-5.801167660E0,9.919017504E0
1.566806929E1,6.839248998E0,-3.255953624E0,-5.461896420E0,9.338569128E0
1.567805529E1,7.666244681E0,-3.350991343E0,-5.403044779E0,9.959585502E0
1.568804129E1,9.040238618E0,-3.442799646E0,-4.475008332E0,1.065854039E1
1.569802729E1,9.611829091E0,-2.653103351E0,-2.617854581E0,1.030918903E1
1.570801329E1,1.073941493E1,-3.141324223E0,-2.145617073E0,1.139327097E1
1.571799929E1,9.775392669E0,-4.619289256E0,-2.624847851E0,1.112591395E1
1.572798529E1,8.507901088E0,-5.167989634E0,-3.559849209E0,1.057189785E1
1.573797129E1,7.602794205E0,-6.777943280E0,-3.616543812E0,1.080844040E1
1.574795729E1,5.549812231E0,-8.839727068E0,-2.441894905E0,1.071933026E1
1.575794329E1,1.466080859E0,-9.415660853E0,-8.678531027E-1,9.568554300E0
1.576792929E1,-2.330281791E0,-8.779567990E0,3.249572557E-1,9.089368764E0
1.577791529E1,-3.303204389E0,-7.201057745E0,8.011479203E-1,7.962928473E0
1.578790129E1,-2.235962402E0,-5.739732719E0,4.495466571E-1,6.176257098E0
1.579788729E1,-1.175363144E0,-5.362241154E0,5.535252079E-2,5.489824462E0
1.580787329E1,-8.748881802E-1,-5.182056865E0,-5.329142113E-1,5.282342306E0
1.581785929E1,-9.862007475E-1,-4.951347955E0,-8.438815650E-1,5.118649683E0
1.582784529E1,-8.416341877E-1,-4.765301247E0,-1.362304768E-1,4.840971269E0
1.583783129E1,-8.680431372E-1,-4.947972357E0,7.968983102E-1,5.086351959E0
1.584781729E1,-1.468356303E0,-5.256313580E0,1.106580592E0,5.568610535E0
1.585780329E1,-2.424808756E0,-5.714559871E0,1.008257614E0,6.289075881E0
1.586778929E1,-2.881811344E0,-5.808400666E0,1.542735225E0,6.665012145E0
1.587777429E1,-2.516818787E0,-5.763948963E0,2.803470349E0,6.885995240E0
1.588776029E1,-1.246082586E0,-5.562611201E0,3.780709653E0,6.840258085E0
1.589774629E1,-2.043350440E-1,-5.396912220E0,3.925327961E0,6.676572018E0
1.590773229E1,7.248495036E-1,-5.114732024E0,3.720849953E0,6.366365906E0
1.591771829E1,1.802558007E0,-4.449560373E0,3.961892647E0,6.224499677E0
1.592770429E1,1.827988132E0,-4.219665980E0,4.386421553E0,6.355140883E0
1.593769029E1,6.347602826E-1,-4.880807145E0,4.838608375E0,6.901980151E0
1.594767629E1,-9.949920362E-1,-6.036187137E0,5.178928020E0,8.015413885E0
1.595766229E1,-1.657698501E0,-6.996035069E0,4.528508309E0,8.497049989E0
1.596764829E1,-1.507649007E0,-7.424374021E0,3.825879979E0,8.487148682E0
1.597763429E1,-7.549351823E-1,-7.828644664E0,3.748400863E0,8.712526237E0
1.598762029E1,3.461268076E-1,-8.249832471E0,3.777525845E0,9.080156445E0
1.599760629E1,2.223690850E0,-7.326847726E0,3.497284001E0,8.417748748E0
1.600759229E1,2.843675511E0,-6.015444725E0,2.657619156E0,7.164845094E0
1.601757829E1,3.072344328E0,-4.903081529E0,6.812425773E-1,5.826113593E0
1.602756429E1,2.871593919E0,-3.098824906E0,-1.681854519E0,4.547241148E0
1.603755029E1,1.692942740E0,-3.104253461E0,-3.609639419E0,5.052914150E0
1.604753629E1,1.198892632E0,-4.507982828E0,-4.164354243E0,6.253087156E0
1.605752229E1,1.235242871E0,-5.531102895E0,-3.067686728E0,6.444348381E0
1.606750829E1,1.416533600E0,-6.866282430E0,-1.141767382E0,7.103241133E0
1.607749429E1,1.514780856E0,-8.865132051E0,3.822900823E-1,9.001737222E0
1.608748104E1,1.322465641E0,-1.060157501E1,1.660436460E0,1.081200061E1
1.609746604E1,1.494024264E0,-1.164879496E1,2.483505738E0,1.200392991E1
1.610745204E1,2.562291707E0,-1.190583622E1,2.058742651E0,1.235122245E1
1.611743804E1,3.712191103E0,-1.027701594E1,5.401555493E-1,1.094025537E1
1.612742404E1,5.229717520E0,-7.441194121E0,-2.456975459E0,9.421148746E0
1.613741004E1,6.759627462E0,-2.846432181E0,-7.170349338E0,1.025712675E1
1.614739604E1,7.577281634E0,-2.579241908E-1,-1.160210494E1,1.385967391E1
1.615738204E1,7.185971929E0,-6.129501683E-1,-1.318923339E1,1.503229118E1
1.616736804E1,6.672841333E0,-2.115250728E0,-1.180249604E1,1.372224507E1
1.617735404E1,6.639552550E0,-3.793218017E0,-8.918627057E0,1.174793895E1
1.618734004E1,5.326245695E0,-6.304146904E0,-4.524031681E0,9.411589879E0
1.619732604E1,3.905606765E0,-7.685924070E0,-9.976193364E-1,8.678850001E0
1.620731204E1,3.645643650E0,-7.499355791E0,-1.335116677E-1,8.339597128E0
1.621729804E1,3.739596126E0,-7.107181867E0,-1.537443349E0,8.176817555E0
1.622728404E1,3.974789266E0,-6.429704751E0,-4.132253029E0,8.614845790E0
1.623727004E1,4.501969551E0,-5.447913389E0,-6.320940692E0,9.481654991E0
1.624725604E1,4.775470140E0,-4.283652061E0,-7.779968348E0,1.008378389E1
1.625724204E1,4.804978698E0,-4.192741891E0,-9.008335040E0,1.103707412E1
1.626722804E1,4.590503998E0,-5.000412526E0,-9.390596763E0,1.158706865E1
1.627721404E1,3.947691514E0,-5.714603140E0,-9.173762126E0,1.150647074E1
1.628720004E1,3.651187980E0,-6.658231480E0,-8.503208113E0,1.140034071E1
1.629718604E1,3.887399120E0,-7.503618996E0,-7.447966951E0,1.126447432E1
1.630717204E1,4.064281486E0,-7.456434889E0,-6.469884478E0,1.067596414E1
1.631715704E1,4.296544002E0,-7.317192219E0,-6.066493841E0,1.043091270E1
1.632714304E1,5.113395351E0,-7.515266064E0,-5.592600401E0,1.067254493E1
1.633712904E1,5.606503326E0,-7.856987287E0,-5.235930187E0,1.098089676E1
1.634711504E1,6.338313940E0,-7.625155712E0,-4.775869505E0,1.100573272E1
1.635710104E1,7.178437207E0,-6.454899234E0,-4.825616446E0,1.079269470E1
1.636708704E1,8.446176710E0,-4.853063276E0,-4.495521242E0,1.072845914E1
1.637707304E1,9.964983959E0,-4.188541251E0,-3.479416664E0,1.135566482E1
1.638705904E1,1.092321163E1,-4.288987645E0,-2.817241126E0,1.206850508E1
1.639704504E1,1.189496274E1,-4.169037863E0,-1.514347578E0,1.269504879E1
1.640703104E1,1.274524612E1,-4.084280133E0,1.074206021E0,1.342671075E1
1.641701704E1,1.267763360E1,-4.464507025E0,3.772703061E0,1.396021150E1
1.642700304E1,1.110490567E1,-5.020270840E0,5.867659857E0,1.352595584E1
1.643698904E1,9.423628269E0,-5.213351163E0,7.307215115E0,1.301457617E1
1.644697504E1,8.807031192E0,-5.468161712E0,7.857929859E0,1.300813794E1
1.645696104E1,8.081729699E0,-5.598113156E0,8.180490925E0,1.278959177E1
1.646694704E1,6.969408603E0,-4.997417582E0,8.394620640E0,1.200068725E1
1.647693304E1,6.464582807E0,-3.570145863E0,8.691484948E0,1.140520421E1
1.648691904E1,6.283589264E0,-2.363457138E0,9.277781169E0,1.145192766E1
1.649690504E1,5.567776047E0,-1.594374910E0,8.313408662E0,1.013187668E1
1.650689104E1,4.271492776E0,-8.438508672E-1,5.262190032E0,6.829961841E0
1.651687704E1,2.508691158E0,-3.566620284E-1,1.275037413E0,2.836628198E0
