"Time (s)","Linear Acceleration x (m/s^2)","Linear Acceleration y (m/s^2)","Linear Acceleration z (m/s^2)","Absolute acceleration (m/s^2)"
-2.192208311E-3,2.959907341E-1,3.191474622E-1,-4.429743867E-1,6.210410007E-1
7.793791650E-3,4.982003152E-1,4.245663285E-1,-4.006018075E-1,7.674255206E-1
1.778079168E-2,7.087673217E-1,5.203460598E-1,-2.158287697E-1,9.053690938E-1
2.776679164E-2,8.259548789E-1,6.076958603E-1,-2.592772365E-2,1.025752391E0
3.775279166E-2,8.903578663E-1,6.209058899E-1,1.270366073E-1,1.092885883E0
4.773879168E-2,8.515820557E-1,6.077736282E-1,9.527233914E-2,1.050551093E0
5.772479164E-2,8.469341040E-1,5.890496743E-1,-6.718933180E-2,1.033823632E0
6.771079166E-2,9.241945338E-1,6.365185404E-1,-2.010506630E-1,1.140049454E0
7.769679168E-2,1.026184593E0,7.739725471E-1,-1.906683469E-1,1.299400916E0
8.768279164E-2,1.177602335E0,8.962758332E-1,-5.031412125E-2,1.480739390E0
9.766979166E-2,1.227421197E0,9.530259848E-1,2.645982027E-2,1.554194790E0
1.076557917E-1,1.157480897E0,9.512531090E-1,6.866750792E-2,1.499786562E0
1.176417916E-1,1.153508883E0,9.947382671E-1,3.227779984E-2,1.523525129E0
1.276277917E-1,1.383044257E0,1.167786614E0,-1.455968392E-1,1.815966804E0
1.376137917E-1,1.705264431E0,1.324761550E0,-2.690385783E-1,2.176074838E0
1.475997916E-1,2.192185467E0,1.615288646E0,-3.107621165E-1,2.740694734E0
1.575857917E-1,2.765047710E0,1.803573668E0,-2.719212556E-1,3.312447431E0
1.675717917E-1,3.105660301E0,1.961249101E0,-3.078339770E-2,3.673223592E0
1.775587916E-1,3.420093153E0,2.335008972E0,4.340338477E-1,4.163855120E0
1.875447917E-1,3.940339226E0,2.650252249E0,8.870806481E-1,4.830840742E0
1.975307917E-1,4.644385505E0,2.899025547E0,1.206111458E0,5.606190390E0
2.075167916E-1,5.043149241E0,3.072670310E0,1.362987138E0,6.060725290E0
2.175027917E-1,5.045626706E0,3.055626261E0,1.367558491E0,6.055197514E0
2.274887917E-1,4.998831439E0,2.710594929E0,1.555953441E0,5.895475531E0
2.374747916E-1,5.383785220E0,2.626252937E0,1.584419148E0,6.196186878E0
2.474617917E-1,5.968531344E0,2.394637708E0,1.844502423E0,6.690279915E0
2.574477916E-1,5.950500285E0,1.902796240E0,2.642144207E0,6.783068125E0
2.674337917E-1,5.566865051E0,9.803757513E-1,3.234458967E0,6.512514715E0
2.774197917E-1,4.239407934E0,-4.075398213E-1,3.989057642E0,5.835344823E0
2.874057916E-1,1.976764541E0,-1.427050402E0,4.425061124E0,5.052250672E0
2.973917917E-1,5.304356497E-1,-1.998717474E0,4.122586412E0,4.612152669E0
3.073777917E-1,3.081721654E-1,-2.370619100E0,4.029891964E0,4.685598601E0
3.173637916E-1,6.734711891E-1,-2.628926284E0,3.635242038E0,4.536496613E0
3.273507917E-1,-2.553456783E-1,-3.330938317E0,2.668179227E0,4.275456920E0
3.373367917E-1,-3.163306538E0,-3.061683392E0,2.176412019E0,4.910924834E0
3.473227916E-1,-2.788060597E0,-2.437746305E0,2.324461180E0,4.372528870E0
3.573087917E-1,-5.683435142E-1,-3.572674491E0,2.066721761E0,4.166336065E0
3.672947917E-1,-2.005856339E0,-4.718465635E0,3.689820826E0,6.316815283E0
3.772807916E-1,-2.788321675E0,-5.174802809E0,5.140345752E0,7.808743582E0
3.872667917E-1,-3.018317517E0,-5.737555801E0,4.379963011E0,7.823928884E0
3.972527917E-1,-3.023003476E0,-5.761959155E0,3.454241770E0,7.366852077E0
4.072397916E-1,-2.797999401E0,-6.402758442E0,3.310394417E0,7.731935561E0
4.172257917E-1,-3.234242620E0,-6.724397988E0,3.363073737E0,8.184626967E0
4.272117917E-1,-3.495524866E0,-5.543301356E0,9.109187230E-1,6.616393046E0
4.371977916E-1,-3.530709025E0,-5.538596102E0,-8.592381075E-1,6.624216416E0
4.471837917E-1,-3.903517262E0,-6.480877243E0,-2.514451835E-1,7.569837616E0
4.571697917E-1,-4.255405331E0,-7.067792684E0,1.036069311E0,8.314782473E0
4.671557916E-1,-4.083868489E0,-8.280707524E0,2.002668145E0,9.447686417E0
4.771427917E-1,-4.151084280E0,-9.122852758E0,2.064488125E0,1.023328170E1
4.871287917E-1,-5.102809551E0,-9.372100266E0,1.033375791E0,1.072113773E1
4.971147917E-1,-4.832993878E0,-1.025432524E1,1.238727081E0,1.140365997E1
5.071007917E-1,-3.539336591E0,-1.106234612E1,2.263325324E0,1.183321794E1
5.170867917E-1,-2.548199917E0,-1.092108090E1,1.834309265E0,1.136345112E1
5.270727917E-1,-2.238486060E0,-9.966732277E0,2.111143059E-1,1.021719831E1
5.370587917E-1,-2.317233144E0,-9.994355693E0,-2.282944195E0,1.051040196E1
5.470447917E-1,-2.583548382E0,-9.222320328E0,-4.778699850E0,1.070335867E1
5.570317917E-1,-2.272643155E0,-9.520701989E0,-6.014229673E0,1.148823885E1
5.670177917E-1,-1.817502905E0,-1.114313710E1,-4.650149983E0,1.221051662E1
5.770037916E-1,-1.272520772E0,-1.201913655E1,-3.106159068E0,1.247906954E1
5.869897917E-1,-2.386763263E-1,-1.307871985E1,-2.540011768E0,1.332522191E1
5.969757917E-1,2.788640640E0,-1.153116769E1,-3.171523923E0,1.228018358E1
6.069617916E-1,5.647280638E0,-7.347267373E0,-6.515147774E0,1.132789773E1
6.169477917E-1,6.676834981E0,-4.740981800E0,-1.111959621E1,1.380950592E1
6.269347917E-1,7.108264187E0,-3.997887230E0,-1.319641728E1,1.551308967E1
6.369207916E-1,7.744365236E0,-4.536503792E0,-1.272218471E1,1.556949078E1
6.469067917E-1,7.886839077E0,-5.408673309E0,-1.116402453E1,1.470004834E1
6.568927917E-1,8.124454134E0,-6.912880061E0,-9.855830476E0,1.452350027E1
6.668787916E-1,8.254257644E0,-8.758523276E0,-8.884220871E0,1.495907349E1
6.768647917E-1,7.561756107E0,-1.068192160E1,-8.307484263E0,1.550154506E1
6.868507917E-1,7.199645643E0,-1.098812040E1,-7.830778313E0,1.529361881E1
6.968367916E-1,8.957060221E0,-9.479089694E0,-8.137458926E0,1.537206255E1
7.068237917E-1,1.196325354E1,-6.943255177E0,-9.241655316E0,1.663539662E1
7.168097917E-1,1.496108124E1,-3.885435625E0,-1.075629584E1,1.883158151E1
7.267957916E-1,1.730790100E1,-1.806573143E0,-1.198897427E1,2.113202895E1
7.367817917E-1,1.867108578E1,-2.020495428E0,-1.300983497E1,2.284617368E1
7.467677917E-1,1.762359685E1,-4.461598328E0,-1.090519519E1,2.119953556E1
7.567537916E-1,1.501667657E1,-6.707626419E0,-5.868339888E0,1.746225187E1
7.667397917E-1,1.274722482E1,-8.129936484E0,-2.690897999E0,1.535670993E1
7.767267916E-1,1.239583991E1,-8.864961897E0,-2.345211779E0,1.541896283E1
7.867127917E-1,1.371631896E1,-7.107613392E0,-2.652957755E0,1.567462148E1
7.966987917E-1,1.730392724E1,-3.549715107E0,-3.467523428E0,1.800139144E1
8.066846250E-1,2.160838310E1,-4.054595281E-1,-6.239508859E0,2.249484582E1
8.166706250E-1,2.535684127E1,2.832062356E-1,-6.545616446E0,2.618959144E1
8.266566250E-1,2.493487345E1,-3.006828323E0,-3.091011271E0,2.530500506E1
8.366426250E-1,1.997781218E1,-8.018157016E0,3.049176198E0,2.174169489E1
8.466286250E-1,1.313460286E1,-1.068470370E1,9.964358307E0,1.964609686E1
8.566156250E-1,5.960442306E0,-1.123489629E1,1.624948831E1,2.063481615E1
8.666016250E-1,2.347251434E-1,-1.049503640E1,1.960414586E1,2.223788254E1
8.765876250E-1,-2.259681047E0,-8.578226720E0,1.904519297E1,2.100979551E1
8.865736250E-1,-1.324602506E0,-5.802928841E0,1.642943871E1,1.747441019E1
8.965596250E-1,9.117242501E-1,-2.213069383E0,1.358696919E1,1.379618241E1
9.065456250E-1,2.540638005E0,4.503727224E-1,9.507084993E0,9.851007163E0
9.165316250E-1,3.268335103E0,2.062892420E0,6.924394398E0,7.929992261E0
9.265186250E-1,3.469539548E0,2.937699031E0,5.472292770E0,7.114335417E0
9.365046250E-1,2.596860153E0,2.497981982E0,4.179803172E0,5.518546112E0
9.464906250E-1,6.699444410E-1,5.928059256E-1,3.489270977E0,3.602118317E0
9.564766250E-1,-1.763024105E0,-1.706322777E0,3.371930223E0,4.170096502E0
9.664626250E-1,-3.580842175E0,-2.913372860E0,3.327784329E0,5.690722330E0
9.764486250E-1,-4.116458238E0,-3.080917808E0,3.334887527E0,6.128520032E0
9.864346250E-1,-3.513801801E0,-2.719232436E0,3.766854676E0,5.824965432E0
9.964206250E-1,-2.477240447E0,-2.005458144E0,3.914002197E0,5.047573258E0
1.006407625E0,-1.434031393E0,-1.162308358E0,2.952010092E0,3.481633286E0
1.016393625E0,-6.311826637E-1,-5.907558918E-1,1.236398427E0,1.508663365E0
1.026379625E0,-1.176366234E-1,-3.281165063E-1,-4.157721162E-1,5.425543931E-1
1.036365625E0,9.273537844E-2,-1.178038538E-1,-1.567485319E0,1.574638951E0
1.046351625E0,1.846521467E-1,-7.054256380E-2,-1.893233119E0,1.903524182E0
1.056337625E0,3.791270310E-1,-1.738470769E-1,-1.676437658E0,1.727542571E0
1.066323625E0,4.205083609E-1,-3.306202841E-1,-1.538218836E0,1.628574297E0
1.076310625E0,3.529344285E-1,-3.837931091E-1,-1.594188969E0,1.677288982E0
1.086296625E0,4.412636375E-1,-2.205207217E-1,-1.784043968E0,1.850987808E0
1.096282625E0,5.948091817E-1,5.693199992E-2,-2.173392516E0,2.254035103E0
1.106268625E0,1.078558103E0,6.052797908E-1,-2.675547304E0,2.947576052E0
1.116254625E0,1.633367945E0,1.133312600E0,-3.128553904E0,3.706769190E0
1.126240625E0,2.077606061E0,1.479881750E0,-3.833299511E0,4.604419842E0
1.136226625E0,2.264182526E0,1.601941207E0,-4.644538702E0,5.409665230E0
1.146212625E0,2.498918121E0,1.762297588E0,-5.249793935E0,6.075411173E0
1.156199625E0,2.934525455E0,2.003128613E0,-5.499644875E0,6.547523015E0
1.166185625E0,3.397470568E0,2.140083852E0,-5.297904240E0,6.647597649E0
1.176171625E0,3.682392815E0,2.284341679E0,-4.963922977E0,6.589291697E0
1.186157625E0,4.191866562E0,2.508536791E0,-4.837166451E0,6.874785916E0
1.196143625E0,4.914031609E0,2.746593897E0,-4.892698043E0,7.458550719E0
1.206129625E0,5.654889035E0,2.767772512E0,-4.612343348E0,7.804616957E0
1.216115625E0,6.218858247E0,2.484066778E0,-4.152285005E0,7.879483259E0
1.226102625E0,6.203537958E0,2.037271675E0,-4.074241049E0,7.696349732E0
1.236088625E0,6.166709855E0,1.798817543E0,-4.297829220E0,7.728867380E0
1.246074625E0,6.919306151E0,1.627231584E0,-4.221147664E0,8.266968479E0
1.256060625E0,7.233167145E0,8.994783533E-1,-3.121384048E0,7.929111340E0
1.266046625E0,7.074543294E0,-3.933071136E-2,-1.427084316E0,7.217151749E0
1.276032625E0,6.948375583E0,-6.002114242E-1,7.820709407E-2,6.974689481E0
1.286018625E0,7.029996282E0,-7.588224113E-1,7.549296275E-1,7.111018065E0
1.296005625E0,7.248780380E0,-1.442175980E0,9.670864919E-1,7.453854362E0
1.305991625E0,6.095757986E0,-2.754292926E0,1.531205393E0,6.862141422E0
1.315977625E0,3.419990827E0,-4.168847244E0,2.318146187E0,5.869363368E0
1.325963625E0,3.219798535E-1,-5.144666845E0,3.143225153E0,6.037477315E0
1.335949625E0,-2.105749002E0,-5.496085675E0,3.607561319E0,6.903306112E0
1.345935625E0,-3.075439259E0,-5.815060644E0,3.465459653E0,7.435231505E0
1.355921625E0,-3.067230645E0,-5.839387400E0,3.379072012E0,7.411104958E0
1.365907625E0,-3.123044073E0,-5.840147538E0,4.442154289E0,7.974550914E0
1.375894625E0,-2.891124497E0,-5.492566820E0,5.913526586E0,8.573020927E0
1.385880625E0,-2.020678739E0,-5.159682494E0,5.919971387E0,8.108731543E0
1.395866625E0,-1.656021228E0,-5.628159658E0,5.193892214E0,7.835502778E0
1.405852625E0,-2.021464312E0,-6.184471942E0,5.068479964E0,8.247636043E0
1.415838625E0,-2.343699689E0,-6.550911099E0,5.059886895E0,8.602896016E0
1.425824625E0,-2.528124087E0,-6.857703980E0,4.875442325E0,8.785752849E0
1.435810625E0,-1.276029101E0,-6.023106331E0,3.703222936E0,7.184700429E0
1.445797625E0,2.388996899E-2,-5.564533766E0,2.867329545E0,6.259887018E0
1.455783625E0,8.097630617E-1,-6.214068793E0,3.930621153E0,7.397306931E0
1.465769625E0,1.000673191E0,-6.384288257E0,4.618415097E0,7.942936573E0
1.475755625E0,1.189067848E-1,-6.981098356E0,3.990687261E0,8.042105315E0
1.485741625E0,-1.864217480E0,-8.382374817E0,2.386254409E0,8.912559929E0
1.495727625E0,-3.847295406E0,-9.590692576E0,1.062050975E0,1.038802283E1
1.505713625E0,-4.139919314E0,-1.097317258E1,1.603621112E0,1.183727371E1
1.515699625E0,-2.699968492E0,-1.241086257E1,3.398504648E0,1.314797222E1
1.525686625E0,-1.051641469E0,-1.336874058E1,4.999224372E0,1.431158338E1
1.535672625E0,6.812529561E-1,-1.318402820E1,5.075717647E0,1.414374826E1
1.545658625E0,3.223288446E0,-1.029086683E1,3.427182902E0,1.131534848E1
1.555644625E0,4.789235947E0,-7.143760294E0,-7.529061985E-1,8.633479012E0
1.565630625E0,4.111855310E0,-5.304754254E0,-7.445784770E0,1.002434450E1
1.575616625E0,2.104215862E0,-4.836678209E0,-1.138562114E1,1.254804961E1
1.585602625E0,1.385961433E0,-6.618701379E0,-9.834953578E0,1.193542663E1
1.595589625E0,6.172806162E-1,-9.295262005E0,-4.334022900E0,1.027456498E1
1.605575625E0,1.665879925E0,-1.202238760E1,1.188333145E0,1.219528988E1
1.615561625E0,5.032189804E0,-1.099865474E1,3.478196350E0,1.258535618E1
1.625547625E0,6.893782470E0,-7.394332781E0,-1.961916268E-1,1.011132460E1
1.635533625E0,6.975441175E0,-4.502030362E0,-6.790607765E0,1.072554944E1
1.645519625E0,8.810269965E0,-2.445566956E0,-1.028380924E1,1.376075532E1
1.655505625E0,1.014864500E1,-1.351300893E0,-1.056155549E1,1.470943452E1
1.665492625E0,9.705134280E0,-1.708895552E0,-9.924396096E0,1.398583545E1
1.675478625E0,9.052463976E0,-2.627492254E0,-9.397128688E0,1.331002807E1
1.685464625E0,7.480397948E0,-4.271768764E0,-9.348962833E0,1.271249259E1
1.695450625E0,6.423347073E0,-5.757527550E0,-9.191887325E0,1.260552671E1
1.705436625E0,5.919484314E0,-6.980517728E0,-8.100717362E0,1.222250155E1
1.715422625E0,5.872079768E0,-8.011911020E0,-6.861626877E0,1.207286057E1
1.725408625E0,6.294303702E0,-8.229232730E0,-6.228934754E0,1.208876166E1
1.735394625E0,7.082237645E0,-7.994513800E0,-6.425081942E0,1.246402900E1
1.745381625E0,7.901438990E0,-7.022974361E0,-6.939443961E0,1.264558379E1
1.755367625E0,9.051435451E0,-5.488572587E0,-7.447045430E0,1.294261946E1
1.765353625E0,1.120821310E1,-4.092467112E0,-7.392506111E0,1.403643383E1
1.775339625E0,1.283426647E1,-2.856912730E0,-7.300918833E0,1.503940697E1
1.785325625E0,1.353894016E1,-2.785504194E0,-6.947779167E0,1.547040949E1
1.795311625E0,1.285854411E1,-3.806500552E0,-6.657298849E0,1.497168097E1
1.805297625E0,1.163260752E1,-5.370574021E0,-5.741402099E0,1.404009691E1
1.815284500E0,1.001877834E1,-6.826281627E0,-5.167176871E0,1.317853395E1
1.825270500E0,9.131982016E0,-7.506624464E0,-3.509093623E0,1.233110881E1
1.835256500E0,9.708526250E0,-6.851304787E0,1.598307163E-1,1.188366127E1
1.845242500E0,1.031733951E1,-6.018741969E0,8.599067366E-1,1.197548283E1
1.855228500E0,1.191633899E1,-5.082519713E0,6.817198563E-1,1.297289033E1
1.865214500E0,1.390635931E1,-4.038067541E0,2.030644441E0,1.462245997E1
1.875200500E0,1.539291566E1,-3.462157730E0,4.693128480E0,1.646067567E1
1.885187500E0,1.583693567E1,-2.816717216E0,7.704113588E0,1.783524022E1
1.895173500E0,1.471190448E1,-1.796714299E0,1.020551502E1,1.799502300E1
1.905159500E0,1.304428209E1,-1.564480435E0,1.229418957E1,1.799299840E1
1.915145500E0,1.016372497E1,-1.654659411E0,1.370169507E1,1.713988480E1
1.925131500E0,6.565786416E0,-1.061138371E0,1.296339405E1,1.457000862E1
1.935117500E0,4.745021642E0,-7.427273655E-1,1.184947958E1,1.278581404E1
1.945103500E0,3.458332774E0,-1.050311959E-1,1.029373196E1,1.085965077E1
1.955090500E0,2.328486988E0,4.146538362E-1,7.676622904E0,8.032703696E0
1.965076500E0,1.066598793E0,1.086680763E0,5.335275550E0,5.548303638E0
1.975062500E0,1.967003345E-1,1.532076336E0,2.894037872E0,3.280457914E0
1.985048500E0,-6.645764047E-1,1.668990352E0,1.486651071E0,2.331806596E0
1.995034500E0,-1.436740993E0,8.241030657E-1,9.372162831E-1,1.903088254E0
2.005020500E0,-2.038640800E0,3.742668253E-1,1.247818624E0,2.419335299E0
2.015006500E0,-2.305310964E0,-1.556017175E-1,1.769256944E0,2.910144441E0
2.024992500E0,-2.323537905E0,-7.477895924E-1,2.079700241E0,3.206738337E0
2.034979500E0,-2.263438468E0,-9.413713145E-1,2.507584280E0,3.506752425E0
2.044965500E0,-2.141228153E0,-1.123720535E0,2.267457844E0,3.314961677E0
2.054951500E0,-2.100385936E0,-1.243132666E0,1.411775721E0,2.819594047E0
2.064937500E0,-1.872450360E0,-1.060441675E0,4.671907765E-1,2.202015922E0
2.074923500E0,-1.485048934E0,-6.947474527E-1,-5.159746814E-1,1.718800230E0
2.084909500E0,-1.086216787E0,-3.784505081E-1,-9.826842320E-1,1.512864830E0
2.094895500E0,-8.462529033E-1,-2.749571300E-1,-1.178419776E0,1.476624044E0
2.104882500E0,-7.348558438E-1,-4.572765300E-1,-1.327727258E0,1.584921010E0
2.114868500E0,-5.355950135E-1,-7.031025392E-1,-1.081808571E0,1.396969929E0
2.124854500E0,-2.799605924E-1,-7.012162274E-1,-5.707958364E-1,9.465146686E-1
2.134840500E0,-1.316798812E-1,-8.024031714E-1,-8.419674790E-1,1.170512570E0
2.144826500E0,5.646831572E-2,-9.661135152E-1,-1.651035014E0,1.913760856E0
2.154812500E0,4.210854810E-1,-6.646027172E-1,-2.117449281E0,2.258893802E0
2.164798500E0,1.076477664E0,-9.559554398E-2,-2.055886286E0,2.322630209E0
2.174785500E0,1.899027709E0,3.974782249E-1,-1.885914159E0,2.705728625E0
2.184771500E0,2.390956301E0,6.747216162E-1,-2.104019980E0,3.255583108E0
2.194757500E0,2.461843266E0,9.143147859E-1,-2.983690306E0,3.974802088E0
2.204743500E0,2.415394739E0,1.279668993E0,-4.045762185E0,4.882609562E0
2.214729500E0,2.450227187E0,1.248786631E0,-4.823659968E0,5.552546875E0
2.224715500E0,2.672262923E0,1.040840054E0,-5.378508108E0,6.095300371E0
2.234701500E0,3.100168596E0,1.052972442E0,-5.405554989E0,6.319795964E0
2.244687500E0,3.568694876E0,1.429339587E0,-5.200165107E0,6.466862602E0
2.254674500E0,4.689735925E0,1.701113200E0,-4.664433269E0,6.829666675E0
2.264660500E0,5.847357155E0,1.901699595E0,-4.459106537E0,7.595503812E0
2.274646500E0,6.399548321E0,2.092959972E0,-4.808371838E0,8.273762136E0
2.284632500E0,7.107215781E0,2.074248297E0,-5.503497021E0,9.225155913E0
2.294618500E0,7.944461634E0,1.793634571E0,-6.256489758E0,1.027011488E1
2.304604500E0,8.491927664E0,8.956741548E-1,-6.948632861E0,1.100902204E1
2.314590500E0,8.743471958E0,-1.474104701E0,-6.337100642E0,1.089862978E1
2.324577500E0,7.519692407E0,-4.404340931E0,-3.836681541E0,9.521770747E0
2.334563500E0,5.630488020E0,-5.534483171E0,-1.567303471E0,8.049182534E0
2.344549500E0,4.825138144E0,-5.259538904E0,-2.642824531E-2,7.137605064E0
2.354535500E0,5.301566936E0,-4.571428041E0,8.203286880E-1,7.048227116E0
2.364521500E0,5.070912405E0,-4.157500722E0,9.093665797E-1,6.620114232E0
2.374507500E0,4.359945946E0,-3.698218889E0,9.851286605E-1,5.801416213E0
2.384493500E0,3.844356596E0,-3.483605610E0,2.212592835E0,5.640049001E0
2.394480500E0,3.204651323E0,-3.566797455E0,3.268791770E0,5.803174461E0
2.404466500E0,2.242400625E0,-3.607905720E0,3.367734261E0,5.420975770E0
2.414452500E0,1.147655674E0,-3.819334606E0,2.540935921E0,4.728719249E0
2.424438500E0,8.163736314E-3,-4.287081453E0,1.960456803E0,4.714077312E0
2.434424500E0,-1.206108242E0,-4.592745820E0,2.489849675E0,5.361656709E0
2.444410500E0,-2.115671727E0,-4.787563351E0,2.994451229E0,6.030221212E0
2.454396500E0,-2.353323329E0,-4.914212873E0,3.664416136E0,6.566244320E0
2.464382500E0,-1.347705440E0,-4.254087369E0,5.019177411E0,6.716078556E0
2.474369500E0,6.726821074E-1,-3.231100034E0,6.558304904E0,7.341925623E0
2.484355500E0,2.560379667E0,-3.224725399E0,7.058169336E0,8.171422907E0
2.494341500E0,2.860355571E0,-4.263447592E0,6.684296029E0,8.428430029E0
2.504327500E0,1.832531419E0,-5.253086502E0,6.413173503E0,8.490105039E0
2.514313500E0,-9.697285563E-2,-6.600463328E0,5.593254704E0,8.652168403E0
2.524299500E0,-2.048064466E0,-7.452721322E0,4.594799362E0,8.991651925E0
2.534286500E0,-3.621530902E0,-7.568400882E0,3.760941972E0,9.194610514E0
2.544272500E0,-5.017029728E0,-7.884103165E0,2.383610590E0,9.644235038E0
2.554258500E0,-5.619084195E0,-8.099962487E0,1.115124836E0,9.921038397E0
2.564244500E0,-3.524659495E0,-7.719088892E0,3.427976954E0,9.151971584E0
2.574230500E0,8.681214899E-2,-7.397410170E0,6.981814055E0,1.017226332E1
2.584216500E0,2.118344051E0,-7.798655464E0,8.052336330E0,1.140817816E1
2.594202500E0,7.255027107E-1,-8.280903406E0,5.936514330E0,1.021478917E1
2.604188500E0,-1.762995161E0,-9.001325397E0,1.525207611E0,9.298293881E0
2.614175500E0,-2.752975256E0,-1.013864042E1,-1.117562833E0,1.056502953E1
2.624161500E0,-2.092129521E0,-1.111755553E1,-5.340253285E-1,1.132529161E1
2.634147500E0,-1.429792600E0,-1.222611745E1,1.238001442E0,1.237153598E1
2.644133500E0,-1.166884974E0,-1.267152209E1,1.725666536E0,1.284161273E1
2.654119500E0,1.361147312E0,-1.172314815E1,2.584362607E-1,1.180473269E1
2.664105500E0,4.365517465E0,-1.009126628E1,-1.481628459E0,1.109444098E1
2.674091500E0,5.692140477E0,-7.985510842E0,-5.617263372E0,1.130143771E1
2.684078500E0,5.851934355E0,-5.486703233E0,-1.016388402E1,1.294811130E1
2.694064500E0,5.683498877E0,-5.202085333E0,-1.182905526E1,1.411702517E1
2.704050500E0,6.062822959E0,-6.456461610E0,-9.812524828E0,1.321852345E1
2.714036500E0,7.202647603E0,-7.383155828E0,-5.820678649E0,1.184353927E1
2.724022500E0,8.119940668E0,-8.172988948E0,-3.174507172E0,1.195025860E1
2.734008500E0,7.183780977E0,-8.235650049E0,-5.104405257E0,1.206182382E1
2.743994500E0,6.406386639E0,-8.042445180E0,-6.887422453E0,1.237575462E1
2.753981500E0,6.651085598E0,-7.784602851E0,-7.909140943E0,1.293798638E1
2.763967500E0,7.272194971E0,-6.782745599E0,-8.642594039E0,1.317516183E1
2.773953500E0,8.569958757E0,-5.071664357E0,-8.991328413E0,1.341677901E1
2.783939500E0,8.539913424E0,-3.997486695E0,-9.086909339E0,1.309511140E1
2.793925500E0,8.236236525E0,-3.607632070E0,-9.269965196E0,1.291444370E1
2.803911500E0,8.265946813E0,-4.087095275E0,-8.491838787E0,1.253561129E1
2.813897750E0,8.033057476E0,-4.744168533E0,-6.893264991E0,1.159975214E1
2.823884750E0,7.712330096E0,-6.445541350E0,-5.451911130E0,1.143452552E1
2.833870750E0,7.385908697E0,-8.542999585E0,-4.437658950E0,1.213372598E1
2.843856750E0,6.795475572E0,-9.398749536E0,-4.016035233E0,1.227369219E1
2.853842750E0,6.584544284E0,-9.188399461E0,-4.524506767E0,1.217596278E1
2.863828750E0,7.937110514E0,-8.126094278E0,-5.269687332E0,1.252201007E1
2.873814750E0,9.703807547E0,-6.544393208E0,-6.014613250E0,1.315935165E1
2.883800750E0,1.157803663E1,-4.469899912E0,-6.761132535E0,1.413307647E1
2.893787750E0,1.379604808E1,-2.672378113E0,-7.819063416E0,1.608136499E1
2.903773750E0,1.505069567E1,-1.886096300E0,-7.199307674E0,1.679020042E1
2.913759750E0,1.466984312E1,-1.689866666E0,-6.876425595E0,1.628941913E1
2.923745750E0,1.459760662E1,-2.528692144E0,-7.024501653E0,1.639597592E1
2.933731750E0,1.494315602E1,-5.510392057E0,-5.359733868E0,1.680443630E1
2.943717750E0,1.515522049E1,-8.842367671E0,-1.873074843E0,1.764586591E1
2.953703750E0,1.410092307E1,-9.472846037E0,2.865629175E0,1.722738152E1
2.963690750E0,1.262339015E1,-8.028438175E0,6.638800013E0,1.636702368E1
2.973676750E0,1.255451229E1,-6.335480964E0,8.580542217E0,1.647360928E1
2.983662750E0,1.166201785E1,-4.750344070E0,1.135758958E1,1.695769059E1
2.993648750E0,8.885704309E0,-3.639295620E0,1.386060602E1,1.686169069E1
3.003634750E0,6.480580789E0,-3.645728142E0,1.458118179E1,1.636765480E1
3.013620750E0,4.811463261E0,-3.864141527E0,1.292257580E1,1.432043064E1
3.023606750E0,3.350184427E0,-4.061889390E0,1.085834379E1,1.206757270E1
3.033592750E0,1.769815061E0,-3.533913591E0,8.232933433E0,9.132468644E0
3.043579750E0,1.341530780E0,-2.121605482E0,6.418224328E0,6.891626671E0
3.053565750E0,1.515966672E0,-6.995576647E-1,5.856502200E0,6.089840219E0
3.063551750E0,2.005781495E0,6.253105974E-1,5.545766543E0,5.930404648E0
3.073537750E0,2.475777181E0,1.733059171E0,5.223272134E0,6.034528857E0
3.083523750E0,2.396434850E0,2.240676719E0,4.516745465E0,5.582519301E0
3.093509750E0,1.702122430E0,1.647338697E0,3.457859150E0,4.191388248E0
3.103496750E0,6.919308490E-1,6.094415465E-1,2.778292823E0,2.927302224E0
3.113482750E0,-3.697115520E-1,-2.883267885E-1,2.574129687E0,2.616479049E0
3.123468750E0,-1.220666494E0,-1.207653808E0,2.161771175E0,2.760744288E0
3.133454750E0,-1.622179298E0,-1.774403956E0,1.554309204E0,2.862839879E0
3.143440750E0,-1.585200921E0,-1.728891568E0,1.180618329E0,2.625983178E0
3.153426750E0,-1.314893789E0,-1.387038783E0,8.553909320E-1,2.093923568E0
3.163412750E0,-1.165751783E0,-1.172293940E0,-3.345835268E-2,1.653592986E0
3.173398750E0,-7.741356844E-1,-6.766552904E-1,-6.691892731E-1,1.226769222E0
3.183385750E0,-2.001022446E-1,-9.644397497E-2,-7.817089981E-1,8.126569426E-1
3.193371750E0,4.774356830E-1,2.645502555E-1,-7.399481839E-1,9.194862609E-1
3.203357750E0,1.106321268E0,5.756960955E-1,-6.683344102E-1,1.414935909E0
3.213343750E0,1.072031441E0,3.103237215E-1,-4.270174813E-1,1.194946088E0
3.223329750E0,6.753586704E-1,-1.473176748E-2,-2.773422092E-1,7.302363040E-1
3.233315750E0,4.034795147E-1,-1.437505808E-1,-1.749212104E-1,4.626633529E-1
3.243301750E0,3.122378075E-1,-3.230311829E-1,-4.884401429E-1,6.636379787E-1
3.253288750E0,2.771580219E-1,-4.710505235E-1,-1.332271129E0,1.440017891E0
3.263274750E0,4.200008225E-1,-2.704462954E-1,-1.990819640E0,2.052536169E0
3.273260750E0,6.990147507E-1,-1.093458563E-2,-2.506204922E0,2.601884758E0
3.283246750E0,1.053683463E0,3.866477197E-1,-2.632496594E0,2.861779799E0
3.293232750E0,1.399493644E0,7.575266683E-1,-2.702862571E0,3.136541916E0
3.303218750E0,1.601968104E0,7.579292491E-1,-2.725196012E0,3.250761735E0
3.313204750E0,1.707933100E0,7.680346996E-1,-2.646279650E0,3.241868098E0
3.323191750E0,1.869955938E0,8.215130416E-1,-2.540164381E0,3.259456085E0
3.333177750E0,2.453366557E0,9.611129764E-1,-2.556010920E0,3.670958654E0
3.343163750E0,3.148549628E0,1.165138995E0,-2.931044900E0,4.456673405E0
3.353149750E0,3.919774568E0,1.576270176E0,-3.611355577E0,5.557980698E0
3.363135750E0,4.745086838E0,2.226282336E0,-4.178434339E0,6.703095976E0
3.373121750E0,5.162723631E0,2.192212365E0,-4.780411622E0,7.369657090E0
3.383107750E0,4.730567617E0,1.462527214E0,-5.057364407E0,7.077724957E0
3.393094750E0,4.030823134E0,6.718936104E-1,-4.959046399E0,6.425816473E0
3.403080750E0,3.913791112E0,2.680843127E-1,-4.699301970E0,6.121525061E0
3.413066750E0,4.767990966E0,3.158695132E-1,-4.124975585E0,6.312601285E0
3.423052750E0,6.160418251E0,9.924268627E-1,-3.534171746E0,7.171194742E0
3.433038750E0,7.485614834E0,1.692318696E0,-3.375802249E0,8.384176336E0
3.443024750E0,8.871006748E0,1.671295032E0,-3.159247109E0,9.563933819E0
3.453010750E0,9.351045612E0,9.370291722E-1,-2.816544138E0,9.810861256E0
3.462997750E0,9.391850406E0,3.950723881E-1,-3.013258506E0,9.871305033E0
3.472983750E0,9.436238374E0,-6.886815512E-1,-2.338245991E0,9.745987443E0
3.482969750E0,8.901648497E0,-2.384502144E0,-8.360278773E-1,9.253331241E0
3.492955750E0,7.121598178E0,-4.356196711E0,1.099439388E0,8.420354942E0
3.502941750E0,4.520607259E0,-5.543562727E0,2.784352877E0,7.675910281E0
3.512927750E0,2.605165538E0,-5.611580463E0,3.694514970E0,7.205981102E0
3.522913750E0,1.141127550E0,-5.563647913E0,3.584202862E0,6.715866313E0
3.532900750E0,3.391301756E-1,-5.430492779E0,3.611724829E0,6.530682762E0
3.542886750E0,-3.277188957E-1,-5.201674274E0,3.712002823E0,6.398732678E0
3.552872750E0,-5.373623344E-1,-4.940332970E0,4.121608466E0,6.456260874E0
3.562858750E0,-2.765633601E-1,-4.758383406E0,4.471285118E0,6.535372257E0
3.572844750E0,-2.963728496E-1,-4.683562435E0,4.258417232E0,6.337011225E0
3.582830750E0,-1.070207110E-1,-4.835064962E0,4.333425314E0,6.493680126E0
3.592816750E0,3.953758585E-1,-4.788840968E0,4.561126417E0,6.625193890E0
3.602803750E0,-2.176994401E-1,-5.356652970E0,4.572962351E0,7.046496204E0
3.612789750E0,-1.316957856E0,-5.932124240E0,4.831275966E0,7.763098831E0
3.622775750E0,-2.429422794E0,-6.481515759E0,4.344263713E0,8.172194862E0
3.632761750E0,-3.482442014E0,-7.298595150E0,2.919539334E0,8.597709198E0
3.642747750E0,-4.112074873E0,-7.082009019E0,1.045737170E0,8.255760276E0
3.652733750E0,-2.651319366E0,-6.172454159E0,1.164505888E0,6.817973210E0
3.662719750E0,-3.428625995E-1,-6.175138616E0,4.162353326E0,7.454869342E0
3.672706750E0,1.026224062E0,-6.837348652E0,5.483535211E0,8.824490401E0
3.682692750E0,9.304060310E-2,-7.157531072E0,2.883333374E0,7.717027857E0
3.692678750E0,-1.427822088E0,-7.568079286E0,-3.582495475E-1,7.709918464E0
3.702664750E0,-1.967931445E0,-8.512946650E0,-2.245136537E0,9.021288872E0
3.712650750E0,-1.531720679E0,-9.463841910E0,-2.191849837E0,9.834362086E0
3.722636750E0,-7.639146783E-1,-1.060601187E1,-9.659622185E-1,1.067727196E1
3.732622750E0,2.582323390E-1,-1.135570210E1,3.832487333E-1,1.136510157E1
3.742609750E0,2.103760072E0,-1.058996243E1,1.245610131E0,1.086851671E1
3.752595750E0,3.696410345E0,-8.359159616E0,1.325330923E0,9.235556344E0
3.762581750E0,3.482393482E0,-6.937648866E0,-1.156678659E0,7.848308204E0
3.772567750E0,3.164586494E0,-6.444223972E0,-5.226507983E0,8.880259905E0
3.782553750E0,2.336476916E0,-6.510554202E0,-7.435504196E0,1.015544992E1
3.792539750E0,1.800945637E0,-7.315934483E0,-7.000287749E0,1.028447039E1
3.802525750E0,2.004374070E0,-8.808101817E0,-4.392644745E0,1.004467525E1
3.812512000E0,1.971920854E0,-1.048229882E1,-1.194206089E0,1.073280898E1
3.822498000E0,2.687934630E0,-1.180546291E1,1.044453049E0,1.215256472E1
3.832484000E0,5.066467352E0,-1.045676520E1,1.317496385E0,1.169396539E1
3.842470000E0,5.556158214E0,-6.578889441E0,-2.228207240E0,8.894806793E0
3.852456000E0,6.254007030E0,-3.849209785E0,-6.157567148E0,9.583561608E0
3.862442000E0,7.788983585E0,-2.021287726E0,-7.905019240E0,1.128021270E1
3.872428000E0,9.128685941E0,-9.261568594E-1,-7.837362278E0,1.206710077E1
3.882415000E0,9.004240234E0,-1.455531605E0,-7.327587984E0,1.169993419E1
3.892401000E0,7.449219425E0,-3.115366971E0,-6.761665801E0,1.053169055E1
3.902387000E0,5.621161126E0,-5.190362835E0,-6.062291447E0,9.761592921E0
3.912373000E0,4.054563999E0,-7.189704791E0,-5.554708689E0,9.949177495E0
3.922359000E0,2.928756300E0,-8.998854949E0,-5.377479583E0,1.088458959E1
3.932345000E0,2.598767515E0,-1.034560495E1,-5.426958137E0,1.196816649E1
3.942331000E0,3.368836461E0,-1.106402778E1,-5.391130493E0,1.276033142E1
3.952318000E0,4.960570183E0,-1.071976361E1,-5.708468242E0,1.311896330E1
3.962304000E0,7.296907643E0,-9.649700922E0,-6.955239045E0,1.395481778E1
3.972290000E0,1.023755192E1,-8.619436727E0,-7.751729804E0,1.546581630E1
3.982276000E0,1.267954447E1,-7.129628744E0,-7.782369214E0,1.649750662E1
3.992262000E0,1.456596734E1,-6.015212005E0,-8.020376619E0,1.768266442E1
4.002248000E0,1.637730962E1,-6.548887378E0,-6.743204387E0,1.888319363E1
4.012234000E0,1.617492111E1,-7.269346792E0,-4.101240859E0,1.820141896E1
4.022221000E0,1.444225546E1,-7.877279465E0,-2.101298686E0,1.658450272E1
4.032207000E0,1.262053437E1,-7.235973809E0,4.197435451E-1,1.455381013E1
4.042193000E0,1.174311054E1,-5.834191564E0,2.745250207E0,1.339682183E1
4.052179000E0,1.155140724E1,-5.277974006E0,3.212002442E0,1.309996101E1
4.062165000E0,1.183386752E1,-4.599475088E0,1.347997801E0,1.276764229E1
4.072151000E0,1.270009743E1,-3.465067597E0,-1.050496731E0,1.320616188E1
4.082137000E0,1.444902185E1,-2.979796060E0,-3.668441944E0,1.520233151E1
4.092124000E0,1.627621126E1,-4.203577951E0,-4.925016189E0,1.751687486E1
4.102110000E0,1.702831756E1,-6.341264445E0,-4.308318540E0,1.867449711E1
4.112096000E0,1.723328351E1,-8.656343767E0,-1.484521515E0,1.934223752E1
4.122082000E0,1.574194181E1,-9.639688150E0,4.182159015E0,1.892677399E1
4.132068000E0,1.312330136E1,-7.502162454E0,9.876121484E0,1.805661252E1
4.142054000E0,1.015513658E1,-6.121765816E0,1.468573936E1,1.887521540E1
4.152041000E0,6.359555705E0,-6.184170810E0,1.802230446E1,2.008709474E1
4.162027000E0,1.556306612E0,-6.317075683E0,1.820978958E1,1.933711385E1
4.172013000E0,-1.087277764E0,-5.320511915E0,1.484740084E1,1.580934318E1
4.181999000E0,-8.147779262E-1,-3.589311574E0,1.113627013E1,1.172874815E1
4.191985000E0,-6.473744810E-2,-2.324945914E0,8.083419544E0,8.411375391E0
4.201971000E0,3.058912396E-2,-1.829298493E0,5.640515410E0,5.929813046E0
4.211957000E0,-4.296522367E-1,-1.097043783E0,4.008347606E0,4.177912952E0
4.221944000E0,-7.636475337E-1,-2.302826482E-1,3.984651180E0,4.063696923E0
4.231930000E0,-7.499559858E-1,-1.353478396E-1,4.502741384E0,4.566774900E0
4.241916000E0,-9.972856066E-1,-6.051847735E-1,4.345385794E0,4.499244924E0
4.251902000E0,-1.554909713E0,-9.722925603E-1,3.700923811E0,4.130367307E0
4.261888000E0,-1.942242726E0,-1.079477286E0,3.180453206E0,3.879801620E0
4.271874000E0,-1.845713382E0,-1.084785680E0,2.791589976E0,3.518009729E0
4.281860000E0,-1.199289073E0,-8.468934658E-1,2.619975366E0,3.003297145E0
4.291846000E0,-5.579980356E-1,-5.397851282E-1,2.019714240E0,2.163787283E0
4.301833000E0,-3.694855571E-1,-4.557834435E-1,7.237858951E-1,9.317317995E-1
4.311819000E0,-5.133095205E-1,-5.363092509E-1,-6.154229558E-1,9.642923265E-1
4.321805000E0,-4.532223630E-1,-7.209619823E-1,-1.227484932E0,1.493959822E0
4.331791000E0,-4.851481605E-1,-1.181008631E0,-1.178164253E0,1.737302832E0
4.341777000E0,-8.594149858E-1,-1.401207756E0,-1.196798744E0,2.033298927E0
4.351763000E0,-1.029646145E0,-1.098435713E0,-1.334862615E0,2.012110932E0
4.361750000E0,-7.753980982E-1,-8.661971712E-1,-1.085040327E0,1.590236542E0
4.371736000E0,-2.884653676E-1,-5.819713274E-1,-8.612451643E-1,1.078724305E0
4.381722000E0,3.175125808E-1,1.464581341E-2,-1.453848776E0,1.488188497E0
4.391708000E0,1.082151802E0,8.789514104E-1,-2.274575660E0,2.667827306E0
4.401694000E0,1.630969124E0,1.183303663E0,-3.030256947E0,3.639055510E0
4.411680000E0,1.583505521E0,8.370163491E-1,-3.805368531E0,4.205819274E0
4.421666000E0,1.255669096E0,2.638181841E-1,-4.331665303E0,4.517701762E0
4.431653000E0,1.083686112E0,-2.227680990E-1,-4.158716358E0,4.303361821E0
4.441639000E0,1.086211524E0,-3.144895703E-1,-3.622542470E0,3.794940462E0
4.451625000E0,1.436235793E0,6.663311541E-2,-3.427322651E0,3.716685859E0
4.461611000E0,2.178005385E0,6.646120727E-1,-3.764833294E0,4.399930271E0
4.471597000E0,3.072338188E0,1.177134558E0,-4.159681149E0,5.303570021E0
4.481583000E0,3.804314863E0,1.476238934E0,-4.091464607E0,5.778596335E0
4.491569000E0,4.366434016E0,1.611965089E0,-3.832510137E0,6.029287803E0
4.501556000E0,4.712357048E0,1.630148175E0,-3.888392562E0,6.323234041E0
4.511542000E0,4.829401349E0,1.642343128E0,-4.536883861E0,6.826691989E0
4.521528000E0,4.863751987E0,1.397880982E0,-5.200171539E0,7.256165562E0
4.531514000E0,5.347842970E0,1.262353048E0,-5.228083223E0,7.584577367E0
4.541500000E0,5.924512335E0,1.041351686E0,-5.343128361E0,8.045699498E0
4.551486000E0,6.593751894E0,1.059469283E0,-5.643649517E0,8.743615904E0
4.561472000E0,7.607926891E0,8.955794299E-1,-5.387815706E0,9.365424292E0
4.571459000E0,8.031964631E0,2.113587195E-1,-4.211651201E0,9.071666560E0
4.581445000E0,7.842193247E0,-1.717777473E-1,-2.971313797E0,8.387979983E0
4.591431000E0,8.316344549E0,-2.819416291E-1,-1.864923239E0,8.527544572E0
4.601417000E0,9.450509673E0,-7.082410723E-1,-6.703598857E-2,9.477248141E0
4.611403000E0,9.686957041E0,-1.737926393E0,1.871967965E0,1.001807311E1
4.621389000E0,8.418193105E0,-3.485192544E0,3.392549844E0,9.722239283E0
4.631375000E0,6.129198212E0,-4.570119435E0,3.614874724E0,8.456972368E0
4.641362000E0,4.408880124E0,-5.100580008E0,2.905904504E0,7.341554423E0
4.651348000E0,2.550172475E0,-5.903764075E0,3.093748061E0,7.136461796E0
4.661334000E0,9.955790967E-1,-5.992295013E0,3.484057599E0,7.002673391E0
4.671320000E0,4.601378649E-2,-5.131717601E0,3.271436466E0,6.085962484E0
4.681306000E0,-7.730136037E-2,-4.855498642E0,2.804671952E0,5.607854074E0
4.691292000E0,-4.140419251E-1,-5.216892822E0,3.376336392E0,6.227924924E0
4.701278000E0,-1.443078205E0,-5.214144046E0,4.974529241E0,7.349538353E0
4.711265000E0,-2.196288166E0,-5.184784591E0,5.218804861E0,7.677343105E0
4.721251000E0,-2.390972089E0,-4.977856307E0,3.707758037E0,6.651561516E0
4.731237000E0,-1.321449395E0,-4.147887899E0,1.767213342E0,4.698323693E0
4.741223000E0,-3.600931746E-1,-4.223345048E0,1.928929785E0,4.656938974E0
4.751209000E0,-1.057588234E0,-5.180242474E0,4.242720966E0,6.778944325E0
4.761195000E0,-2.085866422E0,-5.669252720E0,7.072313751E0,9.301015371E0
4.771182000E0,-2.167587108E0,-6.013860714E0,8.110229613E0,1.032670223E1
4.781168000E0,-2.694717692E0,-6.890751273E0,6.845219589E0,1.007973153E1
4.791154000E0,-2.659713336E0,-7.061931435E0,4.787748123E0,8.936860898E0
4.801140000E0,5.140287280E-3,-5.656205828E0,2.780660945E0,6.302758609E0
4.811126125E0,8.942158592E-1,-6.122756335E0,3.773685393E0,7.247652626E0
4.821112125E0,-2.712980886E-1,-7.356131167E0,5.701560341E0,9.310964436E0
4.831098125E0,-1.582063597E0,-8.951485485E0,5.416158915E0,1.058143634E1
4.841085125E0,-3.373622407E0,-1.043846575E1,2.661491474E0,1.128833169E1
4.851071125E0,-3.901234217E0,-1.103810123E1,1.490099759E0,1.180168227E1
4.861057125E0,-2.944221308E0,-1.222354702E1,2.241602626E0,1.277138689E1
4.871043125E0,-6.003485414E-1,-1.197582271E1,2.699475864E0,1.229096896E1
4.881029125E0,1.052206457E0,-1.065579624E1,3.100270922E0,1.114741278E1
4.891015125E0,1.250851283E0,-1.078025539E1,1.238814497E0,1.092305802E1
4.901001125E0,2.757415339E0,-9.639661837E0,-2.041177469E0,1.023195119E1
4.910988125E0,2.510118463E0,-7.473184823E0,-6.495973585E0,1.021503103E1
4.920974125E0,2.816472217E0,-7.347478457E0,-8.101526617E0,1.129392266E1
4.930960125E0,4.333134123E0,-7.198694885E0,-5.875372335E0,1.025267084E1
4.940946125E0,6.377756917E0,-6.132212452E0,-2.021767198E0,9.075646283E0
4.950932125E0,5.842010461E0,-6.765527303E0,-1.401859428E0,9.048019439E0
4.960918125E0,4.731267529E0,-7.378511969E0,-3.142342224E0,9.311371862E0
4.970904125E0,5.434450175E0,-7.659568915E0,-4.346449987E0,1.034861692E1
4.980891125E0,7.888310822E0,-7.434149396E0,-5.225925601E0,1.203338370E1
4.990877125E0,1.058809366E1,-5.130019569E0,-7.049623631E0,1.371575815E1
5.000863125E0,1.139203436E1,-1.944888299E0,-1.114564088E1,1.605572633E1
5.010849125E0,1.036958322E1,-1.899483207E0,-1.385290290E1,1.740802146E1
5.020835125E0,9.040975367E0,-4.110344389E0,-1.220322093E1,1.573380970E1
5.030821125E0,6.892891939E0,-6.282957180E0,-8.446995320E0,1.258329210E1
5.040807125E0,5.684312809E0,-6.453261428E0,-5.782320330E0,1.036297368E1
5.050794125E0,6.450613225E0,-7.496709926E0,-4.814575734E0,1.099960046E1
5.060780125E0,5.229336281E0,-8.614516879E0,-4.572135555E0,1.106617741E1
5.070766125E0,4.071529110E0,-8.459231204E0,-4.835670733E0,1.056028661E1
5.080752125E0,4.602300755E0,-8.377169040E0,-4.571498208E0,1.059512762E1
5.090738125E0,6.081787233E0,-8.020055607E0,-4.107147424E0,1.087097456E1
5.100724125E0,7.630537489E0,-6.652611721E0,-4.270661302E0,1.098730600E1
5.110711125E0,9.077183665E0,-4.982866786E0,-5.001984258E0,1.149974222E1
5.120697125E0,1.069657823E1,-3.877583399E0,-5.020688331E0,1.243622733E1
5.130683125E0,1.129063195E1,-4.494497687E0,-4.021172889E0,1.280034025E1
5.140669125E0,1.017395526E1,-5.899666346E0,-2.882936056E0,1.210895326E1
5.150655125E0,8.005673795E0,-6.592298276E0,-1.836554303E0,1.053195809E1
5.160641125E0,7.016593879E0,-6.393902834E0,-9.260057089E-1,9.537927956E0
5.170627125E0,7.716456476E0,-6.033430760E0,2.394124907E-1,9.798127659E0
5.180614125E0,8.760638798E0,-5.279687825E0,5.053046823E-1,1.024105602E1
5.190600125E0,9.647980671E0,-4.935297933E0,-2.171123797E-1,1.083918053E1
5.200586125E0,1.019255525E1,-4.083770548E0,-1.999581107E0,1.116081041E1
5.210572125E0,1.114903343E1,-3.629038727E0,-2.162359405E0,1.192252770E1
5.220558125E0,1.213028978E1,-3.903216423E0,9.292827809E-1,1.277664256E1
5.230544125E0,1.320412508E1,-3.101957259E0,5.239788764E0,1.454051046E1
5.240530125E0,1.413321958E1,-1.570035436E0,7.328614755E0,1.599754673E1
5.250517125E0,1.418104162E1,-1.008414174E0,7.314624707E0,1.598820113E1
5.260503125E0,1.241202266E1,-2.009830692E0,6.638766684E0,1.421868310E1
5.270489125E0,9.694483577E0,-2.422766324E0,5.474826368E0,1.139414465E1
5.280475125E0,7.735635928E0,-2.502446916E0,4.987919365E0,9.538429817E0
5.290461125E0,5.471017492E0,-2.556187798E0,6.079580494E0,8.568980537E0
5.300447125E0,2.677195926E0,-3.212844734E0,8.247968963E0,9.247634364E0
5.310433125E0,4.502028608E-1,-3.620472263E0,9.426871135E0,1.010823434E1
5.320420125E0,-8.002651370E-1,-3.860160158E0,9.568724586E0,1.034899758E1
5.330406125E0,-1.196990533E0,-3.144647196E0,8.860430889E0,9.477807123E0
5.340392125E0,-6.514915055E-1,-1.361217771E0,6.546311095E0,6.718001485E0
5.350378125E0,3.680939198E-2,3.567854047E-1,2.425023349E0,2.451405515E0
5.360364125E0,4.496935683E-1,1.642968488E0,-1.352908292E0,2.175300119E0
5.370350125E0,8.445905399E-1,1.676856026E0,-1.508680456E0,2.408587975E0
5.380337125E0,6.255538416E-1,7.356662679E-1,9.241307992E-1,1.336615203E0
5.390323125E0,-5.303880680E-1,-3.788332084E-1,2.083965785E0,2.183515398E0
5.400309125E0,-1.817574241E0,-1.586028302E0,2.083552971E0,3.187515472E0
5.410295125E0,-3.185136825E0,-2.660659708E0,2.308863147E0,4.749216326E0
5.420281125E0,-3.704352034E0,-3.012816749E0,2.310565272E0,5.304526428E0
5.430267125E0,-3.193510623E0,-2.548261313E0,2.271512888E0,4.674603365E0
5.440253125E0,-2.567919359E0,-2.040735273E0,1.931336499E0,3.806424958E0
5.450240125E0,-1.944623712E0,-1.374870142E0,5.142339653E-1,2.436445333E0
5.460226125E0,-1.114607357E0,-4.013537595E-1,-7.128030699E-1,1.382578250E0
5.470212125E0,-1.194276255E-1,1.959051132E-1,-1.469645029E0,1.487446901E0
5.480198125E0,2.068721509E-1,2.956054026E-1,-1.909559714E0,1.943346841E0
5.490184125E0,-1.654762030E-1,8.113567203E-2,-1.895335777E0,1.904274949E0
5.500170125E0,-6.210713661E-1,-4.803780019E-1,-1.564836531E0,1.750772982E0
5.510156125E0,-1.079391332E0,-1.137364136E0,-1.035945350E0,1.879325835E0
5.520143125E0,-1.313611495E0,-1.449076279E0,-6.398543769E-1,2.057865604E0
5.530129125E0,-1.138793780E0,-1.412874120E0,-7.013167995E-1,1.945484466E0
5.540115125E0,-5.801969898E-1,-9.774705622E-1,-6.729081023E-1,1.320940029E0
5.550101125E0,4.756516975E-1,-1.603084338E-1,-5.851115745E-1,7.709078323E-1
5.560087125E0,1.433603961E0,4.970071909E-1,-1.296087974E0,1.995515097E0
5.570073125E0,1.863405887E0,7.441657805E-1,-2.508323953E0,3.212125972E0
5.580060125E0,1.947774192E0,6.650760493E-1,-3.340088625E0,3.923307594E0
5.590046125E0,1.924349661E0,4.654681867E-1,-3.524231479E0,4.042275321E0
5.600032125E0,1.800213273E0,7.651666403E-3,-3.578208881E0,4.005546801E0
5.610018125E0,1.635573222E0,-3.855244696E-1,-3.462594225E0,3.848803405E0
5.620004125E0,1.690496703E0,-2.929162681E-1,-3.104157566E0,3.546741214E0
5.629990125E0,2.134641264E0,1.745405567E-1,-2.976262588E0,3.666782885E0
5.639976125E0,3.024584563E0,6.701967484E-1,-2.916067842E0,4.254494931E0
5.649963125E0,4.565194325E0,1.649563855E0,-3.518459693E0,5.995132921E0
5.659949125E0,6.695259558E0,3.190750152E0,-5.649217236E0,9.323145524E0
5.669935125E0,8.704673928E0,3.999718870E0,-8.332295169E0,1.269630820E1
5.679921125E0,1.030283491E1,3.986248639E0,-9.525208438E0,1.458657538E1
5.689907125E0,1.132384647E1,2.908716722E0,-8.478270323E0,1.444199431E1
5.699893125E0,1.143304205E1,8.229219282E-1,-6.677157748E0,1.326559786E1
5.709879125E0,9.879144495E0,-1.219452612E0,-4.358770071E0,1.086662032E1
5.719866125E0,8.846574742E0,-2.035312273E0,-2.469406639E0,9.407568754E0
5.729852125E0,8.588996707E0,-3.177804417E0,-1.213888986E0,9.238118413E0
5.739838125E0,7.429637100E0,-4.058569926E0,-4.920654166E-1,8.480190189E0
5.749824125E0,5.970938643E0,-3.949694771E0,-1.296368641E-1,7.160237620E0
5.759810125E0,5.333834211E0,-3.866282485E0,5.651921573E-1,6.611911208E0
5.769796125E0,4.351083029E0,-4.336585734E0,1.251171418E0,6.269236738E0
5.779782125E0,2.989840700E0,-4.981503800E0,1.289154346E0,5.951171855E0
5.789769125E0,2.209846398E0,-5.536260139E0,1.205482152E0,6.081676138E0
5.799755125E0,9.178232615E-1,-5.353859755E0,2.017292908E0,5.794452908E0
5.809741125E0,-2.287360597E-1,-4.929050767E0,2.386435526E0,5.481143692E0
5.819727625E0,-9.362871605E-1,-5.100225082E0,2.103729959E0,5.595945789E0
5.829713625E0,-2.530132605E0,-5.151977034E0,2.306489032E0,6.185816842E0
5.839699625E0,-3.937886903E0,-4.937958416E0,3.379463775E0,7.163180996E0
5.849686625E0,-3.572513108E0,-4.694482695E0,3.371285859E0,6.794599769E0
5.859672625E0,-2.696327431E0,-4.420701440E0,2.326094746E0,5.676574636E0
5.869658625E0,-1.445050471E0,-3.944090214E0,1.990968744E0,4.648437912E0
5.879644625E0,-2.922815529E-1,-3.837725853E0,1.942266115E0,4.311144383E0
5.889630625E0,2.309688190E-1,-3.778590038E0,2.591159703E0,4.587504537E0
5.899616625E0,4.239260584E-2,-3.975265814E0,4.347141713E0,5.890855328E0
5.909602625E0,-3.157315189E-1,-4.187245508E0,5.926129675E0,7.263038225E0
5.919589625E0,-3.811370113E-1,-4.650043856E0,6.468228546E0,7.975346626E0
5.929575625E0,-1.216222025E0,-5.442064419E0,6.712947385E0,8.726908029E0
5.939561625E0,-2.824777895E0,-6.439740327E0,7.309066343E0,1.014258727E1
5.949547625E0,-3.160921167E0,-7.354354783E0,7.036964993E0,1.065818152E1
5.959533625E0,-2.986621808E0,-8.472001523E0,6.465269855E0,1.106772036E1
5.969519625E0,-2.120619933E0,-9.059259610E0,5.239977629E0,1.067822921E1
5.979506625E0,-9.969330195E-1,-8.986667013E0,5.596288240E0,1.063355545E1
5.989492625E0,8.491149692E-1,-8.992235901E0,6.549538758E0,1.115696019E1
5.999478625E0,3.434195468E0,-7.555772651E0,5.248212848E0,9.819732021E0
6.009464625E0,3.277031082E0,-6.916495979E0,2.135433708E0,7.945874808E0
6.019450625E0,4.861463533E-1,-7.441950751E0,-2.254198405E0,7.791044841E0
6.029436625E0,-1.142764113E0,-7.281601971E0,-5.653967514E0,9.289509445E0
6.039422625E0,-1.717969408E0,-8.173757856E0,-5.925278320E0,1.024063765E1
6.049409625E0,-2.576565929E0,-1.132758401E1,-2.010542006E0,1.178961962E1
6.059395625E0,-3.585726939E0,-1.477677934E1,2.386603926E0,1.539176805E1
6.069381625E0,-3.113241508E0,-1.690862622E1,5.022795668E0,1.791151556E1
6.079367625E0,3.459282947E-1,-1.686800912E1,6.105620484E0,1.794235212E1
6.089353625E0,4.085877008E0,-1.480524827E1,3.166430998E0,1.568171076E1
6.099339625E0,7.474871745E0,-8.277834787E0,-3.351349193E0,1.164593482E1
6.109325625E0,1.085228724E1,-8.367424071E-2,-1.036540947E1,1.500735997E1
6.119312625E0,1.129811404E1,3.415359832E0,-1.597198881E1,1.985992171E1
6.129298625E0,1.196431539E1,3.827325996E0,-1.686279224E1,2.102729248E1
6.139284625E0,1.141274754E1,1.771537358E0,-1.275465897E1,1.720669859E1
6.149270625E0,8.594995365E0,-1.833500595E0,-6.123014197E0,1.071106776E1
6.159256625E0,5.000632381E0,-5.725035743E0,-4.514828163E-1,7.614866722E0
6.169242625E0,2.103694875E0,-8.764417269E0,1.186366727E0,9.091094995E0
6.179228625E0,1.064554022E0,-9.408172324E0,-7.492668915E-1,9.497809359E0
6.189215625E0,1.507015169E0,-8.631691906E0,-3.202567375E0,9.329182047E0
6.199201625E0,2.072050914E0,-7.388514217E0,-4.492537993E0,8.891930889E0
6.209187625E0,2.698530954E0,-6.446737105E0,-4.902338347E0,8.536709547E0
6.219173625E0,3.603360094E0,-5.201959618E0,-5.464752785E0,8.361107034E0
6.229159625E0,5.281588170E0,-4.446727397E0,-6.579496967E0,9.537208107E0
6.239145625E0,6.655182157E0,-3.867130624E0,-7.271717838E0,1.058886345E1
6.249132625E0,7.377135535E0,-3.604957846E0,-7.475854661E0,1.110433486E1
6.259118625E0,7.686761976E0,-3.895858287E0,-7.106266193E0,1.116973772E1
6.269104625E0,7.359659377E0,-4.924868254E0,-6.330270510E0,1.088536808E1
6.279090625E0,6.649389905E0,-6.153400422E0,-5.175890976E0,1.043401027E1
6.289076625E0,6.345062211E0,-6.408395158E0,-4.495435288E0,1.007652129E1
6.299062625E0,6.881963493E0,-5.576146921E0,-4.158835934E0,9.785231337E0
6.309048625E0,9.137296550E0,-4.522046551E0,-4.355985042E0,1.108664507E1
6.319035625E0,1.171666593E1,-3.330963460E0,-4.830933319E0,1.310394959E1
6.329021625E0,1.345475429E1,-2.726114609E0,-5.549407604E0,1.480736434E1
6.339007625E0,1.440708328E1,-2.736933420E0,-5.756722974E0,1.575419667E1
6.348993625E0,1.441094011E1,-3.790589986E0,-4.179707862E0,1.547623097E1
6.358979625E0,1.287381821E1,-5.303330457E0,-1.028039330E0,1.396128125E1
6.368965625E0,1.050289272E1,-6.096556131E0,1.829272766E0,1.228108264E1
6.378952625E0,8.931558174E0,-6.291802847E0,3.916007207E0,1.160580143E1
6.388938625E0,8.941797234E0,-5.609911083E0,4.097379650E0,1.132322216E1
6.398924625E0,1.126573567E1,-3.789296582E0,4.914400569E0,1.286183897E1
6.408910625E0,1.330510533E1,-3.333429816E0,6.448896482E0,1.515670967E1
6.418896625E0,1.321471439E1,-2.716821045E0,7.646396892E0,1.550732661E1
6.428882625E0,1.244005772E1,-2.109104427E0,8.632596470E0,1.528806984E1
6.438868625E0,9.500053716E0,-1.503879161E0,8.685294501E0,1.295943725E1
6.448855625E0,6.338213952E0,-2.035553909E0,9.392980088E0,1.151279769E1
6.458841625E0,3.978245848E0,-2.598722491E0,9.876302748E0,1.095997968E1
6.468827625E0,2.107406103E0,-2.710103471E0,9.339166408E0,9.950168366E0
6.478813625E0,1.196105849E0,-2.101009249E0,7.989544251E0,8.347318516E0
6.488799625E0,2.093683273E-1,-1.338294639E0,6.069078895E0,6.218407052E0
6.498785625E0,-9.443650889E-1,-7.206482792E-1,3.859792660E0,4.038459947E0
6.508772625E0,-1.885598994E0,-1.623166600E-1,1.820308984E0,2.625900809E0
6.518758625E0,-1.681994267E0,9.145676780E-1,6.750207013E-1,2.030071846E0
6.528744625E0,-1.070132850E0,1.413243957E0,-3.580548352E-1,1.808492760E0
6.538730625E0,-1.515946206E0,1.091172009E0,-4.425506097E-1,1.919531270E0
6.548716625E0,-1.851812028E0,1.232391331E-1,4.127461821E-1,1.901250925E0
6.558702625E0,-2.140196119E0,-8.156661183E-1,1.598540466E0,2.793041759E0
6.568688625E0,-2.366878052E0,-1.383110331E0,2.495115092E0,3.706845724E0
6.578675625E0,-2.481310401E0,-1.774815307E0,2.590850385E0,4.002421317E0
6.588661625E0,-2.374879966E0,-1.721985714E0,1.977655803E0,3.537854170E0
6.598647625E0,-2.003866532E0,-1.471930121E0,1.216735995E0,2.768123162E0
6.608633625E0,-1.287269788E0,-9.250789252E-1,6.615072012E-1,1.717680501E0
6.618619625E0,-6.445993924E-1,-6.247328925E-1,1.674016911E-1,9.131390310E-1
6.628605625E0,-3.049165088E-1,-4.128885618E-1,-4.629562229E-1,6.912159620E-1
6.638592625E0,-2.351305747E-1,-5.063595200E-1,-1.115772707E0,1.247651829E0
6.648578625E0,-5.195923537E-1,-8.684226215E-1,-9.993400258E-1,1.422256851E0
6.658564625E0,-7.106384307E-1,-8.918989000E-1,-8.012153095E-1,1.393713241E0
6.668550625E0,-5.020577234E-1,-7.481907114E-1,-5.017361265E-1,1.031305211E0
6.678536625E0,-1.015170193E-1,-6.289010802E-1,-4.383084548E-1,7.732635873E-1
6.688522625E0,3.288286972E-1,-5.221592814E-1,-7.813265902E-1,9.956153212E-1
6.698508625E0,5.276486474E-1,-5.018957555E-1,-1.402946425E0,1.580686913E0
6.708495625E0,5.816804284E-1,-4.574823520E-1,-1.828725466E0,1.972784594E0
6.718481625E0,7.253003240E-1,-3.921660295E-1,-1.800113286E0,1.979965302E0
6.728467625E0,9.408421415E-1,-1.746370357E-1,-1.687890599E0,1.940272328E0
6.738453625E0,1.117339761E0,-7.513906002E-2,-1.762130942E0,2.087869603E0
6.748439625E0,1.211522618E0,-1.911600977E-1,-1.586454272E0,2.005284616E0
6.758425625E0,1.471441294E0,-3.389920351E-1,-1.327167680E0,2.010330603E0
6.768411625E0,1.548090105E0,-1.959960374E-1,-2.121112561E0,2.633270954E0
6.778398625E0,1.839382017E0,1.302075523E-1,-2.710842267E0,3.278558525E0
6.788384625E0,2.542550629E0,2.264088678E-1,-3.133742139E0,4.041802132E0
6.798370625E0,3.060905712E0,1.121569052E-1,-4.015818009E0,5.050595730E0
6.808356625E0,3.385218020E0,2.987327859E-1,-4.077492685E0,5.308002347E0
6.818342500E0,4.129165115E0,7.437661234E-1,-4.452955266E0,6.118169922E0
6.828328500E0,4.603628073E0,1.257522663E0,-5.192835038E0,7.052679662E0
6.838315500E0,5.015473199E0,1.188479910E0,-5.063151981E0,7.225161859E0
6.848301500E0,5.381689578E0,9.716215923E-1,-5.100093520E0,7.477806172E0
6.858287500E0,5.500784497E0,9.639854211E-1,-5.398507925E0,7.767353847E0
6.868273500E0,5.586447961E0,1.004822375E0,-5.927516634E0,8.206919171E0
6.878259500E0,6.153916731E0,7.923591167E-1,-5.531063134E0,8.312110653E0
6.888245500E0,6.326223652E0,2.307024783E-1,-5.050034922E0,8.097973946E0
6.898231500E0,5.870408049E0,-6.481544995E-1,-5.101792721E0,7.804491263E0
6.908218500E0,5.609118785E0,-1.376194829E0,-4.817973551E0,7.521236261E0
6.918204500E0,4.919904553E0,-2.105834956E0,-3.469237539E0,6.377743392E0
6.928190500E0,4.642314422E0,-2.360978211E0,-1.443136092E0,5.404437351E0
6.938176500E0,5.042756892E0,-2.276137451E0,2.107055855E-1,5.536659247E0
6.948162500E0,5.420959479E0,-2.065486245E0,1.166769491E0,5.917295509E0
6.958148500E0,6.045438602E0,-1.852082754E0,1.700903578E0,6.547565303E0
6.968135500E0,6.023042012E0,-3.043119067E0,1.400508721E0,6.891954252E0
6.978121500E0,4.300984962E0,-4.413324008E0,6.969998002E-1,6.201750492E0
6.988107500E0,1.776596954E0,-6.016002549E0,1.224218385E0,6.391188783E0
6.998093500E0,-7.198059878E-1,-7.099011553E0,2.465422347E0,7.549330635E0
7.008079500E0,-2.727373222E0,-6.609109606E0,3.615610596E0,8.011961961E0
7.018065500E0,-2.935461009E0,-5.791776447E0,4.873149047E0,8.118447350E0
7.028051500E0,-1.832713413E0,-5.370517303E0,6.218255399E0,8.418313060E0
7.038038500E0,-1.289596834E-1,-4.238746029E0,6.986282498E0,8.172621467E0
7.048024500E0,1.373359806E0,-3.294348196E0,6.128522859E0,7.092082883E0
7.058010500E0,1.322927571E0,-3.437330160E0,3.573702432E0,5.131931903E0
7.067996500E0,2.470270273E-1,-4.003409048E0,2.677272817E0,4.822457474E0
7.077982500E0,-9.897115619E-1,-4.836201661E0,3.433688514E0,6.013201501E0
7.087968500E0,-2.335511540E0,-5.049946044E0,3.156157440E0,6.396710013E0
7.097955500E0,-2.865908379E0,-5.719754537E0,5.021142075E0,8.132704995E0
7.107941500E0,-2.794689877E0,-6.960011542E0,9.174544483E0,1.185007674E1
7.117927500E0,-2.377482854E0,-8.051397852E0,1.161540502E1,1.433161072E1
7.127913500E0,-2.327335817E0,-1.001485837E1,1.192321180E1,1.574410556E1
7.137899500E0,-2.460283521E0,-1.221695019E1,1.120957200E1,1.676190238E1
7.147885500E0,-2.089090869E0,-1.251779645E1,9.911297164E0,1.610258800E1
7.157871500E0,-9.458173911E-1,-1.087537556E1,8.013903751E0,1.354219396E1
7.167858500E0,6.336240955E-1,-8.138086917E0,4.681317396E0,9.409817784E0
7.177844500E0,3.508602749E-1,-6.451321907E0,4.827975798E-1,6.478869561E0
7.187830500E0,-5.026221259E-1,-7.152018902E0,-2.984732280E0,7.766120663E0
7.197816500E0,-6.464804417E-1,-7.988370130E0,-5.852949432E0,9.924163005E0
7.207802500E0,-6.690925017E-1,-9.176158900E0,-6.240889971E0,1.111747654E1
7.217788500E0,-5.959686846E-2,-1.142952203E1,-3.878389437E0,1.206977341E1
7.227775500E0,6.257941622E-1,-1.384021912E1,-1.826219788E0,1.397420346E1
7.237761500E0,1.160857079E0,-1.472158280E1,-1.233439736E0,1.481870314E1
7.247747500E0,3.400140699E0,-1.293769904E1,-2.183341261E0,1.355403970E1
7.257733500E0,8.454628860E0,-8.409145709E0,-4.167632192E0,1.263185017E1
7.267719500E0,1.174804092E1,-2.828063738E0,-8.865533170E0,1.498706403E1
7.277705500E0,1.174315498E1,1.133280441E0,-1.430655328E1,1.854355630E1
7.287691500E0,1.225069564E1,1.575003669E0,-1.469256891E1,1.919457636E1
7.297678500E0,1.106115914E1,-7.291688418E-1,-1.153806623E1,1.600024691E1
7.307664500E0,8.206853097E0,-3.610765885E0,-6.848599280E0,1.128243680E1
7.317650500E0,4.871966155E0,-6.015016708E0,-2.701613606E0,8.198487440E0
7.327636500E0,2.994805863E0,-8.000483222E0,-6.190108073E-1,8.565031717E0
7.337622500E0,1.149980673E0,-8.555232545E0,-1.347618316E0,8.736734777E0
7.347608500E0,1.167380818E0,-7.222962000E0,-2.965881441E0,7.894961098E0
7.357595500E0,2.429605227E0,-6.075902596E0,-3.540877333E0,7.440254444E0
7.367581500E0,3.245726259E0,-5.497686642E0,-4.265933828E0,7.678378005E0
7.377567500E0,3.598703957E0,-4.905107589E0,-5.200071552E0,8.003217776E0
7.387553500E0,4.066616279E0,-4.663705875E0,-6.383728094E0,8.890416460E0
7.397539500E0,4.449337009E0,-5.125125450E0,-7.051587710E0,9.787154844E0
7.407525500E0,4.964286089E0,-5.279189057E0,-7.146142450E0,1.017749111E1
7.417511500E0,5.062591233E0,-5.373271342E0,-7.021619561E0,1.018847467E1
7.427498500E0,5.353578504E0,-5.259897923E0,-6.618849313E0,1.000682243E1
7.437484500E0,6.082984743E0,-6.086128791E0,-5.568818021E0,1.024965371E1
7.447470500E0,6.756381088E0,-6.704238542E0,-5.058753705E0,1.077898367E1
7.457456500E0,7.142175114E0,-5.518960567E0,-5.297004354E0,1.046555523E1
7.467442500E0,8.452777047E0,-4.538545640E0,-5.090705230E0,1.086108264E1
7.477428500E0,1.046246741E1,-3.455883668E0,-5.018709633E0,1.210759276E1
7.487415500E0,1.244444898E1,-2.641953880E0,-5.466203479E0,1.384642955E1
7.497401500E0,1.257328419E1,-3.060147913E0,-5.789198409E0,1.417627591E1
7.507387500E0,1.223234474E1,-3.515738398E0,-5.248823297E0,1.376738248E1
7.517373500E0,1.183730685E1,-4.030833951E0,-3.053438818E0,1.287217714E1
7.527359500E0,1.095399605E1,-5.423172065E0,-4.458677351E-2,1.222304433E1
7.537345500E0,9.324547200E0,-6.201107855E0,2.739933919E0,1.152858001E1
7.547332500E0,8.124731877E0,-5.776184846E0,3.417992833E0,1.053841802E1
7.557318500E0,8.262225060E0,-5.614820990E0,2.618917020E0,1.032711499E1
7.567304500E0,9.114598829E0,-5.649775645E0,2.692185556E0,1.105638909E1
7.577290500E0,9.612914919E0,-4.950680788E0,2.981934972E0,1.121647492E1
7.587276500E0,1.022219947E1,-3.732430948E0,3.305982985E0,1.137338675E1
7.597262500E0,1.090704641E1,-2.994921053E0,4.416356374E0,1.214238104E1
7.607248500E0,9.637981932E0,-3.647752740E0,5.440500289E0,1.165314718E1
7.617235500E0,6.693287292E0,-4.640682171E0,6.705529608E0,1.054988877E1
7.627221500E0,3.620398881E0,-4.983067930E0,9.360630367E0,1.120534046E1
7.637207500E0,2.127751782E0,-4.711590771E0,1.258119313E1,1.360194236E1
7.647193500E0,1.984631824E0,-3.999217471E0,1.362314124E1,1.433605528E1
7.657179500E0,1.839733142E0,-2.374697241E0,1.167399996E1,1.205429717E1
7.667165500E0,1.205368423E0,-6.644711548E-1,8.578500955E0,8.688216939E0
7.677152500E0,6.849527818E-1,7.767382801E-2,5.214221814E0,5.259591492E0
7.687138500E0,1.083818843E0,1.120223316E0,2.889777591E0,3.283348609E0
7.697124500E0,1.365432151E0,2.302604580E0,1.744651861E0,3.195340816E0
7.707110500E0,9.888267320E-1,2.188755491E0,1.374309686E0,2.767156667E0
7.717096500E0,1.912232476E-1,1.148301060E0,1.657303814E0,2.025294445E0
7.727082500E0,-9.623499548E-1,-2.818115285E-1,2.297239468E0,2.506560261E0
7.737068500E0,-1.921028443E0,-1.512946585E0,2.980304183E0,3.855070774E0
7.747055500E0,-2.305895686E0,-1.881782516E0,3.517266276E0,4.607539735E0
7.757041500E0,-2.285575442E0,-2.025720793E0,3.563349352E0,4.693064930E0
7.767027500E0,-1.955714126E0,-1.734598743E0,2.602433134E0,3.688673035E0
7.777013500E0,-1.599062623E0,-1.193318774E0,1.050156423E0,2.254737120E0
7.786999500E0,-9.158394474E-1,-3.188758591E-1,-3.002615404E-1,1.015185057E0
7.796985500E0,1.508581638E-2,4.057263073E-1,-1.011322140E0,1.089776991E0
7.806972500E0,4.183372897E-1,5.993755648E-1,-1.506929215E0,1.674841131E0
7.816958792E0,2.479581964E-1,2.577595916E-1,-2.386415353E0,2.413068899E0
7.826944792E0,-4.390095359E-1,-6.668173501E-1,-2.637557943E0,2.755737044E0
7.836930792E0,-1.350427904E0,-1.504491219E0,-1.860295753E0,2.747335006E0
7.846916792E0,-1.531109791E0,-1.840454981E0,-9.525225395E-1,2.576600651E0
7.856902792E0,-1.122821526E0,-1.574082440E0,-4.739437258E-1,1.990750201E0
7.866889792E0,-3.508621752E-1,-8.319038361E-1,-4.924881703E-1,1.028451679E0
7.876875792E0,3.808946443E-1,-1.637600452E-1,-9.290927464E-1,1.017404253E0
7.886861792E0,6.129875904E-1,-5.688492984E-2,-1.468524118E0,1.592341913E0
7.896847792E0,5.771032280E-1,-9.284910679E-2,-2.150708243E0,2.228724981E0
7.906833792E0,6.394403940E-1,7.328490794E-2,-2.892137527E0,2.962889497E0
7.916819792E0,8.155889350E-1,3.879303065E-1,-2.971693574E0,3.105903722E0
7.926805792E0,9.803728276E-1,4.494026694E-1,-2.836424671E0,3.034534323E0
7.936792792E0,9.557630664E-1,1.913907704E-1,-2.759862399E0,2.926935928E0
7.946778792E0,7.718377286E-1,-2.445519009E-1,-2.580007308E0,2.704066719E0
7.956764792E0,8.171524805E-1,-5.199934727E-1,-2.441620671E0,2.626717131E0
7.966750792E0,1.366073298E0,-3.292137364E-1,-2.465401297E0,2.837735276E0
7.976736792E0,1.898406735E0,-2.293643430E-1,-2.857634861E0,3.438405609E0
7.986722792E0,2.424079024E0,-3.782622278E-2,-3.414278682E0,4.187468072E0
7.996709792E0,3.157997559E0,6.241657126E-1,-3.808283953E0,4.986537685E0
8.006695792E0,3.729359406E0,1.168612534E0,-4.829185587E0,6.212472154E0
8.016681792E0,4.251868935E0,1.485294810E0,-6.451763957E0,7.868274796E0
8.026667792E0,4.978459155E0,1.758996250E0,-7.508160528E0,9.178866917E0
8.036653792E0,5.796582273E0,2.126195546E0,-7.997876533E0,1.010381624E1
8.046639792E0,7.090548878E0,1.653998383E0,-7.631421588E0,1.054752054E1
8.056625792E0,7.681129938E0,2.903668821E-1,-6.624970179E0,1.014762533E1
8.066612792E0,7.579550353E0,-3.086382616E-1,-5.968184604E0,9.652153573E0
8.076598792E0,7.859323835E0,-8.402443045E-1,-4.454677271E0,9.072989101E0
8.086584792E0,7.652213702E0,-1.437601118E0,-2.198153136E0,8.090423272E0
8.096570792E0,7.504627056E0,-1.852728286E0,-6.420915216E-1,7.756565662E0
8.106556792E0,7.635221694E0,-2.353578560E0,4.282144064E-1,8.001206779E0
8.116542792E0,7.382030239E0,-2.908593346E0,1.186604708E0,8.022612819E0
8.126529792E0,7.013329378E0,-3.519274210E0,1.085871801E0,7.921565344E0
8.136515792E0,6.126851140E0,-4.387140176E0,1.737409499E0,7.733297846E0
8.146501792E0,4.487797070E0,-4.197313244E0,2.443453773E0,6.612732215E0
8.156487792E0,2.858475106E0,-3.767651067E0,1.905097412E0,5.098575354E0
8.166473792E0,1.900700452E0,-4.171642798E0,1.175759878E0,4.732618422E0
8.176459792E0,1.093059783E0,-4.847868025E0,1.667856869E-1,4.972365790E0
8.186445792E0,4.079459104E-1,-4.888569324E0,1.323341846E-2,4.905578969E0
8.196432792E0,-6.598144323E-1,-5.283275092E0,1.594104184E0,5.557834014E0
8.206418792E0,-1.666893248E0,-5.006764356E0,3.340761055E0,6.245550964E0
8.216404792E0,-1.661512640E0,-4.195458507E0,4.679431962E0,6.500736868E0
8.226390792E0,-1.557144226E0,-4.198148226E0,6.061830686E0,7.536241632E0
8.236376792E0,-1.752433335E0,-4.746520575E0,5.406201106E0,7.404558769E0
8.246362792E0,-1.928988842E0,-5.200168616E0,3.813796123E0,6.731106332E0
8.256349792E0,-1.659542421E0,-4.972972128E0,3.277330459E0,6.182671572E0
8.266335792E0,-9.130333686E-1,-4.959748065E0,3.217885326E0,5.982266859E0
8.276321792E0,5.002655518E-1,-4.072631895E0,2.722628499E0,4.924358041E0
8.286307792E0,8.232563889E-1,-4.082296758E0,3.019565313E0,5.143993835E0
8.296293792E0,2.999855518E-2,-5.043201866E0,4.081991533E0,6.488253991E0
8.306279792E0,-5.484156185E-1,-5.499546057E0,5.665002379E0,7.914418392E0
8.316266792E0,-7.464532113E-1,-6.650805516E0,4.912680902E0,8.302098534E0
8.326252792E0,-1.476009139E0,-7.037428093E0,4.193582135E0,8.324069213E0
8.336238792E0,-1.788550124E0,-6.846855640E0,4.136777605E0,8.197028282E0
8.346224792E0,-1.545935406E0,-6.925165061E0,2.403131958E0,7.491519913E0
8.356210792E0,-2.690674635E0,-7.836195758E0,2.421674795E0,8.631929261E0
8.366196792E0,-3.021966764E0,-8.938444440E0,2.044974797E0,9.654532307E0
8.376182792E0,-2.393138921E0,-9.646282055E0,1.429838355E0,1.004103128E1
8.386169792E0,-6.375149059E-1,-9.675265533E0,1.423738685E0,9.800215316E0
8.396155792E0,2.007225465E0,-8.565167549E0,4.501784487E-1,8.808729184E0
8.406141792E0,3.766636283E0,-6.507360452E0,-6.802557135E-1,7.549571960E0
8.416127792E0,3.722690071E0,-5.748914017E0,-3.021973489E0,7.486037504E0
8.426113792E0,1.752011751E0,-6.908075988E0,-5.363184310E0,8.919350031E0
8.436099792E0,8.582318017E-1,-7.461027292E0,-4.898907201E0,8.966759830E0
8.446086792E0,9.594260547E-1,-9.115602211E0,-1.879440122E0,9.356655235E0
8.456072792E0,2.341880035E-1,-1.090699145E1,6.559712036E-1,1.092920879E1
8.466058792E0,3.391227204E-1,-1.225613355E1,1.492253873E0,1.235130096E1
8.476044792E0,1.365155870E0,-1.317824180E1,1.147745356E0,1.329838437E1
8.486030792E0,5.526339169E0,-9.623683151E0,-1.019502980E0,1.114428501E1
8.496016792E0,1.023430671E1,-3.152098888E0,-6.651073319E0,1.260609129E1
8.506003792E0,1.235925037E1,1.302577214E0,-1.217808726E1,1.739981570E1
8.515989792E0,1.209631979E1,2.544264448E0,-1.472535308E1,1.922577066E1
8.525975792E0,1.165891649E1,7.982545719E-1,-1.401997890E1,1.825177669E1
8.535961792E0,9.391143478E0,-2.425919142E0,-9.211891819E0,1.337675635E1
8.545947792E0,6.693246362E0,-5.596273622E0,-3.643166769E0,9.454654378E0
8.555933792E0,4.164379386E0,-8.290729651E0,-1.680497965E0,9.428803065E0
8.565919792E0,2.875739595E0,-9.661267884E0,-2.632774336E0,1.041832405E1
8.575906792E0,1.902319107E0,-9.824593481E0,-4.280615602E0,1.088416855E1
8.585892792E0,2.090796502E0,-9.834710333E0,-5.554001176E0,1.148650889E1
8.595878792E0,2.838001081E0,-9.617293898E0,-5.382655538E0,1.138066662E1
8.605864792E0,4.043548429E0,-8.683006486E0,-5.553208294E0,1.107172109E1
8.615850792E0,6.501434299E0,-6.072955599E0,-6.525093888E0,1.103296370E1
8.625836792E0,1.071581790E1,-1.319928681E0,-8.064457608E0,1.347614342E1
8.635823792E0,1.448860984E1,1.033885668E0,-9.685319821E0,1.745835487E1
8.645809792E0,1.556495361E1,4.432003815E-1,-9.910865639E0,1.845777519E1
8.655795792E0,1.434415672E1,-1.636789151E0,-8.469141065E0,1.673798856E1
8.665781792E0,1.213168258E1,-4.695018592E0,-6.428134189E0,1.451005965E1
8.675767792E0,9.445336642E0,-8.213945185E0,-4.369019070E0,1.325788850E1
8.685753792E0,6.085677386E0,-1.078398358E1,-1.580081976E0,1.248304570E1
8.695740792E0,4.876251580E0,-1.080436463E1,1.098454424E0,1.190456747E1
8.705726792E0,6.446573383E0,-9.395979710E0,1.056070881E0,1.144368947E1
8.715712792E0,9.942233613E0,-6.991554347E0,-4.219391745E-1,1.216173812E1
8.725698792E0,1.378749828E1,-4.537471506E0,-5.839415467E-1,1.452669075E1
8.735684792E0,1.753605000E1,-2.106349950E0,1.482693676E0,1.772422468E1
8.745670792E0,2.082754827E1,-1.966294736E-1,4.318226062E0,2.127140113E1
8.755656792E0,2.112626380E1,-1.291977089E0,7.451248409E0,2.243901357E1
8.765643792E0,1.692550713E1,-3.144025052E0,1.062521881E1,2.023000148E1
8.775629792E0,1.030499721E1,-3.821254832E0,1.367638481E1,1.754532580E1
8.785615792E0,6.116822580E0,-3.524728492E0,1.483137246E1,1.642585883E1
8.795601792E0,4.240212511E0,-3.198254469E0,1.348398569E1,1.449227739E1
8.805587792E0,2.937352876E0,-2.552078960E0,1.044330023E1,1.114466997E1
8.815572917E0,1.093683096E0,-7.089085320E-1,5.675885217E0,5.823604298E0
8.825559917E0,-3.719384640E-1,6.158366463E-1,2.021984130E0,2.146162346E0
8.835545917E0,-8.154754990E-1,1.658170956E-1,1.009486114E0,1.308265192E0
8.845531917E0,-1.647648307E0,2.001411286E-1,1.735222641E0,2.401207827E0
8.855517917E0,-1.395688861E0,3.753286797E-1,2.188046808E0,2.622282946E0
8.865503917E0,-1.204132907E0,4.529396501E-1,2.628264379E0,2.926237179E0
8.875489917E0,-1.409612251E0,2.978367001E-1,2.328278827E0,2.737991179E0
8.885476917E0,-1.867445143E0,-2.924151617E-1,1.567108174E0,2.455338270E0
8.895462917E0,-2.385357592E0,-6.877638307E-1,1.278262153E0,2.792293692E0
8.905448917E0,-2.590088493E0,-7.554693255E-1,1.272508492E0,2.983047127E0
8.915434917E0,-2.605749090E0,-9.446969184E-1,8.525281352E-1,2.899859447E0
8.925420917E0,-2.325456961E0,-9.522442120E-1,-4.751032287E-1,2.557389723E0
8.935406917E0,-2.141652660E0,-6.574194127E-1,-2.244591722E0,3.171288130E0
8.945392917E0,-1.775060890E0,-6.946910271E-1,-2.527558953E0,3.165752841E0
8.955379917E0,-1.288460281E0,-9.084140682E-1,-2.148006830E0,2.664447289E0
8.965365917E0,-9.264737785E-1,-1.194707195E0,-1.906578804E0,2.433253312E0
8.975351917E0,-1.214670759E0,-1.991218420E0,-1.437384186E0,2.739789982E0
8.985337917E0,-1.526596325E0,-2.293089406E0,-9.184829736E-1,2.903853705E0
8.995323917E0,-1.293607585E0,-1.958278715E0,-6.606073147E-1,2.438171064E0
9.005309917E0,-8.631648052E-1,-1.523283293E0,-7.865101469E-1,1.919386277E0
9.015296917E0,-5.361972767E-1,-1.057854575E0,-1.402242420E0,1.836531412E0
9.025282917E0,-2.801857102E-1,-6.344942343E-1,-2.199890928E0,2.306644113E0
9.035268917E0,-1.113017499E-1,-6.476633334E-1,-2.736638428E0,2.814435247E0
9.045254917E0,-1.093020022E-2,-6.340255800E-1,-2.935848972E0,3.003550748E0
9.055240917E0,1.628279990E-1,-3.715388069E-1,-3.010896231E0,3.038099761E0
9.065226917E0,4.001694059E-1,-3.789177006E-1,-2.898267748E0,2.950198318E0
9.075213917E0,5.158659232E-1,-5.024111876E-1,-2.565246597E0,2.664399511E0
9.085199917E0,6.677081734E-1,-5.976509285E-1,-2.250541264E0,2.422386596E0
9.095185917E0,8.021982265E-1,-6.261338854E-1,-2.229705296E0,2.450949070E0
9.105171917E0,9.023317945E-1,-4.985979259E-1,-2.329683913E0,2.547592921E0
9.115157917E0,1.143836419E0,-2.859548655E-1,-2.666125685E0,2.915194351E0
9.125143917E0,1.647229062E0,8.304040253E-2,-2.941342431E0,3.372203225E0
9.135130917E0,2.088316698E0,2.739964324E-1,-2.911513445E0,3.593473420E0
9.145116917E0,2.433442170E0,5.202101120E-1,-2.879878255E0,3.806042317E0
9.155102917E0,2.804795913E0,7.626102376E-1,-2.942657470E0,4.136144034E0
9.165088917E0,3.194017577E0,7.818838298E-1,-2.928434118E0,4.403273440E0
9.175074917E0,3.775961130E0,1.038499414E0,-3.039953969E0,4.957588488E0
9.185060917E0,4.539971775E0,1.250422974E0,-3.785708438E0,6.042060056E0
9.195046917E0,5.298995916E0,1.226248246E0,-4.123178151E0,6.825220915E0
9.205033917E0,5.955537077E0,7.765225178E-1,-3.005174146E0,6.715838052E0
9.215019917E0,5.962085958E0,2.412812608E-1,-1.427694181E0,6.135388846E0
9.225005917E0,6.088062465E0,-2.798243523E-2,-3.492173535E-1,6.098134170E0
9.234991917E0,6.541695887E0,-1.161958694E-1,4.774386066E-1,6.560124556E0
9.244977917E0,6.704297599E0,-4.385066754E-1,1.024775414E0,6.796326879E0
9.254963917E0,6.913598099E0,-7.088953757E-1,1.507903361E0,7.111550033E0
9.264950917E0,7.195809284E0,-7.166628170E-1,3.103400937E0,7.869204167E0
9.274936917E0,6.922919730E0,-1.788646896E0,3.734082786E0,8.066563677E0
9.284922917E0,5.357804287E0,-3.108661677E0,2.023169360E0,6.516368502E0
9.294908917E0,4.043850730E0,-3.765577644E0,4.814152980E-1,5.546536253E0
9.304894917E0,2.316644768E0,-5.251790174E0,-2.688862583E-1,5.746341692E0
9.314880917E0,-1.795260389E-1,-6.039886671E0,1.765876669E-1,6.045133894E0
9.324867917E0,-1.967359149E0,-5.196462650E0,1.344028711E0,5.716654552E0
9.334853917E0,-2.571648129E0,-4.699032413E0,2.401098297E0,5.870225954E0
9.344839917E0,-2.448127160E0,-4.243752415E0,3.073779527E0,5.783673723E0
9.354825917E0,-1.683019284E0,-3.643139287E0,2.356199574E0,4.653675344E0
9.364811917E0,-8.836165383E-1,-2.870256661E0,2.303867871E0,3.785096915E0
9.374797917E0,-1.980971247E-1,-2.934471953E0,3.346428176E0,4.455216005E0
9.384783917E0,-2.221814406E-1,-3.388457962E0,3.286642443E0,4.725783586E0
9.394770917E0,-8.053616432E-1,-3.325191674E0,2.780746315E0,4.408861203E0
9.404756917E0,-6.397733930E-1,-3.436917931E0,2.994167347E0,4.602907012E0
9.414742917E0,-4.724993174E-1,-4.139186073E0,3.565740863E0,5.483668923E0
9.424728917E0,-1.375853205E0,-5.750792143E0,4.094767699E0,7.192475570E0
9.434714917E0,-2.961963514E0,-6.885359555E0,3.803875737E0,8.405407467E0
9.444700917E0,-3.778467246E0,-7.231690723E0,2.925290655E0,8.667842342E0
9.454687917E0,-4.938611550E0,-9.233414251E0,4.489713203E0,1.139312720E1
9.464673917E0,-5.584581529E0,-1.238979622E1,7.900640845E0,1.571988318E1
9.474659917E0,-3.544399111E0,-1.362967725E1,1.167312288E1,1.829187429E1
9.484645917E0,1.131934704E0,-1.193165051E1,1.274010642E1,1.749159431E1
9.494631917E0,3.182005057E0,-9.766079809E0,5.330206014E0,1.157205976E1
9.504617917E0,1.442780582E0,-6.652685981E0,-5.493801752E0,8.747668504E0
9.514604917E0,1.201631468E0,-3.727121676E0,-1.076855628E1,1.145849722E1
9.524590917E0,2.642795295E0,-2.591551466E0,-9.247378571E0,9.960648393E0
9.534576917E0,2.059325618E0,-3.371781119E0,-5.313976482E0,6.621787973E0
9.544562917E0,1.352287318E0,-5.353052840E0,-3.055261395E0,6.310188419E0
9.554548917E0,1.547960297E0,-7.151271043E0,-2.332642019E0,7.679718576E0
9.564534917E0,1.928304133E0,-8.018694960E0,-3.003367356E0,8.777131716E0
9.574521917E0,3.377489755E0,-7.204678926E0,-4.204264998E0,8.999482188E0
9.584507917E0,4.923709336E0,-5.764887441E0,-5.616625441E0,9.435217124E0
9.594493917E0,6.450101593E0,-3.734456424E0,-7.354160070E0,1.047060866E1
9.604479917E0,8.119564692E0,-2.533325477E0,-8.194738836E0,1.181096158E1
9.614465917E0,8.913401400E0,-2.389857317E0,-8.681134207E0,1.266973692E1
9.624451917E0,8.652469402E0,-2.952030557E0,-8.597925990E0,1.255006145E1
9.634438917E0,8.003092834E0,-4.473692124E0,-7.502762378E0,1.184714562E1
9.644424917E0,6.555893512E0,-5.697497696E0,-6.703942673E0,1.097196733E1
9.654410917E0,5.310129599E0,-6.574067827E0,-6.455726030E0,1.063448366E1
9.664396917E0,4.448207912E0,-6.954870670E0,-6.720272192E0,1.064513213E1
9.674382917E0,4.260489485E0,-6.342978263E0,-6.988419070E0,1.035486094E1
9.684368917E0,5.181619493E0,-5.018450017E0,-7.386496927E0,1.032445437E1
9.694354917E0,6.063612918E0,-4.550237732E0,-8.070370898E0,1.107262171E1
9.704341917E0,5.867396148E0,-5.324819559E0,-7.973175555E0,1.124062139E1
9.714327917E0,4.810522444E0,-6.089492109E0,-7.157833373E0,1.055734905E1
9.724313917E0,3.887221364E0,-7.403694173E0,-5.689429123E0,1.011408825E1
9.734299917E0,2.962006491E0,-8.643569355E0,-4.429103889E0,1.015390245E1
9.744285917E0,3.003080842E0,-8.702056714E0,-3.923763539E0,1.000700784E1
9.754271917E0,4.048200474E0,-8.216476445E0,-3.613086938E0,9.846461774E0
9.764258917E0,5.137883490E0,-7.293020414E0,-3.700050237E0,9.657969003E0
9.774244917E0,6.609535868E0,-6.696778080E0,-3.059753226E0,9.894184698E0
9.784230917E0,8.330429322E0,-5.334491438E0,-2.173706219E0,1.012807239E1
9.794216917E0,9.539920617E0,-4.089165482E0,-1.327023838E0,1.046385933E1
9.804202917E0,1.020107348E1,-3.724605619E0,-1.437768933E-1,1.086072092E1
9.814188917E0,9.845144105E0,-4.182046748E0,1.258534524E0,1.077034292E1
9.824176417E0,9.332098294E0,-4.070916322E0,2.499425952E0,1.048368010E1
9.834162417E0,8.479063205E0,-4.031974450E0,3.031293073E0,9.866107059E0
9.844148417E0,8.047393094E0,-3.855691131E0,3.265847697E0,9.502244519E0
9.854134417E0,8.305658762E0,-2.819622405E0,1.651654235E0,8.925368323E0
9.864120417E0,9.059772411E0,-1.658315967E0,-1.377990509E0,9.312805476E0
9.874106417E0,1.093139422E1,-9.813681699E-1,-3.402255637E0,1.149059644E1
9.884092417E0,1.269187274E1,-1.727282414E0,-3.365253287E0,1.324356704E1
9.894079417E0,1.322098728E1,-2.729886063E0,-9.422706163E-1,1.353272539E1
9.904065417E0,1.374888327E1,-3.813320745E0,3.061022072E0,1.459256874E1
9.914051417E0,1.325284759E1,-4.850507458E0,5.346376489E0,1.509135956E1
9.924037417E0,1.254105200E1,-3.729459393E0,4.097698324E0,1.371050634E1
9.934023417E0,1.200064531E1,-2.375869023E0,3.163277010E0,1.263592351E1
9.944009417E0,1.175237604E1,-2.123694692E0,3.095161040E0,1.233727862E1
9.953996417E0,9.903485284E0,-3.860927020E0,3.244796551E0,1.111370698E1
9.963982417E0,6.135440115E0,-6.042237251E0,5.071200088E0,9.993464201E0
9.973968417E0,1.299756225E0,-8.020817499E0,9.267875986E0,1.232543731E1
9.983954417E0,-3.512567453E0,-8.884904410E0,1.112164742E1,1.466187907E1
9.993940417E0,-6.489120648E0,-7.962308505E0,9.714893868E0,1.413811184E1
1.000392642E1,-6.714244298E0,-6.150982599E0,7.816394162E0,1.200048670E1
1.001391342E1,-4.615340923E0,-4.512966995E0,6.811443148E0,9.384242148E0
1.002389942E1,-3.173164651E0,-2.961606542E0,4.857369166E0,6.514147867E0
1.003388542E1,-2.183951126E0,-1.539088901E0,2.221467154E0,3.474673148E0
1.004387142E1,-3.474368763E-1,1.979516387E-1,1.380501888E0,1.437248307E0
1.005385742E1,8.564077628E-1,1.251142182E0,1.860551861E0,2.400092549E0
1.006384342E1,1.763523164E-1,5.768488741E-1,2.116498523E0,2.200777309E0
1.007383042E1,-1.396394035E0,-8.330873126E-1,1.789308216E0,2.417762326E0
1.008381642E1,-2.546317698E0,-2.054664803E0,1.661102166E0,3.669419801E0
1.009380242E1,-3.320366259E0,-2.808835754E0,1.705493642E0,4.671519983E0
1.010378842E1,-3.523506424E0,-3.141985543E0,1.573471114E0,4.976241757E0
1.011377442E1,-3.334922902E0,-3.102826155E0,1.144432250E0,4.696697360E0
1.012376042E1,-2.983850812E0,-2.729590194E0,1.586723828E-1,4.047123080E0
1.013374642E1,-1.936846038E0,-1.907655276E0,-7.809745878E-1,2.828505354E0
1.014373342E1,-4.612239853E-1,-8.188113356E-1,-1.023673798E0,1.389635784E0
1.015371942E1,5.522835517E-1,1.533198416E-2,-1.077028472E0,1.210472024E0
1.016370542E1,5.792479867E-1,-1.430766892E-1,-1.427237513E0,1.546934416E0
1.017369142E1,-3.949501812E-2,-8.198614955E-1,-1.659003600E0,1.850952639E0
1.018367742E1,-7.661624211E-1,-1.431193739E0,-9.297780401E-1,1.870777266E0
1.019366342E1,-1.040606166E0,-1.613419291E0,-2.104541552E-1,1.931391714E0
1.020365042E1,-9.924853349E-1,-1.527493873E0,-1.363307565E-1,1.826704888E0
1.021363642E1,-6.039840478E-1,-1.400477731E0,-4.350907320E-1,1.586013414E0
1.022362242E1,-5.309187028E-1,-1.253065916E0,-1.054318471E0,1.721521506E0
1.023360842E1,-4.263187391E-1,-7.066330880E-1,-1.216734826E0,1.470211422E0
1.024359442E1,1.848176229E-1,-3.198304170E-1,-9.190472299E-1,9.905033368E-1
1.025358042E1,8.322868288E-1,1.396227390E-1,-1.353251524E0,1.594830888E0
1.026356742E1,1.056804122E0,5.905664420E-1,-2.427188573E0,2.712351018E0
1.027355342E1,1.343858557E0,6.255900943E-1,-3.070386388E0,3.409485497E0
1.028353942E1,1.410884897E0,6.400403184E-1,-2.971036347E0,3.350717054E0
1.029352542E1,1.573659394E0,7.955288923E-1,-2.716580724E0,3.238685063E0
1.030351142E1,1.817611371E0,9.666768944E-1,-3.038671090E0,3.670381085E0
1.031349742E1,2.042509026E0,8.346274692E-1,-3.435254983E0,4.082820463E0
1.032348442E1,2.258279177E0,7.647082186E-1,-3.333952557E0,4.098761173E0
1.033347042E1,2.780860628E0,1.316805829E0,-2.630607943E0,4.048118275E0
1.034345642E1,3.338478594E0,1.660004643E0,-2.207651938E0,4.332987632E0
1.035344242E1,4.054737369E0,2.038106657E0,-2.453748965E0,5.159036524E0
1.036342842E1,4.453463682E0,2.300012802E0,-3.660554634E0,6.206694602E0
1.037341442E1,4.760566757E0,2.315874544E0,-5.052283761E0,7.317912404E0
1.038340042E1,5.605748450E0,2.237355208E0,-4.761326018E0,7.687678418E0
1.039338742E1,6.213591660E0,2.203436680E0,-4.198633837E0,7.816161502E0
1.040337342E1,6.603723736E0,1.864655437E0,-2.998586673E0,7.488499790E0
1.041335942E1,5.874543200E0,7.531886190E-1,2.410529271E-1,5.927533839E0
1.042334542E1,4.860205066E0,5.961704135E-2,1.431562114E0,5.067002818E0
1.043333142E1,4.568904383E0,2.151535624E-1,7.006961176E-1,4.627326806E0
1.044331742E1,4.853360023E0,3.007842815E-1,8.954773960E-1,4.944436718E0
1.045330442E1,5.563499393E0,2.480774796E-1,1.365428497E0,5.733974443E0
1.046329042E1,5.874385325E0,-3.220716548E-1,1.040931855E0,5.974585527E0
1.047327642E1,4.768169307E0,-2.056034805E0,-1.577825828E-1,5.194960346E0
1.048326242E1,2.633061727E0,-3.589575284E0,-6.793037868E-1,4.503278629E0
1.049324842E1,4.966170354E-1,-4.018196071E0,8.541062256E-1,4.137876943E0
1.050323442E1,-1.744006182E0,-4.633138971E0,4.153894744E0,6.462381591E0
1.051322142E1,-3.814445457E0,-5.974280911E0,5.988068061E0,9.278953909E0
1.052320742E1,-4.864919676E0,-6.485823988E0,5.585048722E0,9.845106677E0
1.053319342E1,-4.417448634E0,-6.577988386E0,5.204089758E0,9.479785538E0
1.054317942E1,-3.205057704E0,-6.473077642E0,3.938940572E0,8.227294931E0
1.055316542E1,-1.917860714E0,-5.628705204E0,2.264889747E0,6.363193974E0
1.056315142E1,-1.028972545E0,-5.339022446E0,3.361009963E0,6.392208784E0
1.057313842E1,-8.158014813E-1,-6.122331242E0,4.364606177E0,7.562953059E0
1.058312442E1,-1.413644783E0,-6.872273487E0,4.013512452E0,8.082995525E0
1.059311042E1,-2.259004671E0,-7.496356169E0,3.484289149E0,8.569639945E0
1.060309642E1,-2.649186886E0,-8.478505965E0,3.484403754E0,9.541714945E0
1.061308242E1,-2.787270053E0,-9.525651657E0,4.028136338E0,1.071133961E1
1.062306842E1,-2.557144695E0,-1.072846075E1,3.731831024E0,1.164325650E1
1.063305542E1,-2.523417078E0,-1.249623660E1,2.775157546E0,1.304703270E1
1.064304142E1,-2.689067236E0,-1.353928398E1,1.496377330E0,1.388461156E1
1.065302742E1,-2.877218648E0,-1.413232964E1,1.611358002E0,1.451198135E1
1.066301342E1,-1.686237884E0,-1.537688142E1,3.190260741E0,1.579460807E1
1.067299942E1,2.163253737E0,-1.485243062E1,3.766040744E0,1.547441194E1
1.068298542E1,5.448152540E0,-1.147982095E1,1.520720458E0,1.279770471E1
1.069297242E1,6.861932686E0,-7.718843894E0,-3.200623176E0,1.081252329E1
1.070295842E1,6.793906764E0,-3.939974944E0,-7.820228766E0,1.108316514E1
1.071294442E1,5.990629141E0,-1.359101663E0,-1.139360025E1,1.294406897E1
1.072293042E1,6.048186793E0,-1.872654428E0,-1.162872848E1,1.324064667E1
1.073291642E1,5.808902357E0,-4.301067408E0,-7.379629372E0,1.032963974E1
1.074290242E1,4.206365903E0,-6.590404363E0,-1.208241745E0,7.911181448E0
1.075288842E1,3.317813657E0,-7.797219388E0,2.287657635E0,8.777123396E0
1.076287542E1,3.845685668E0,-8.748440922E0,1.547384931E0,9.680853110E0
1.077286142E1,4.069008960E0,-8.626803049E0,-1.687929191E0,9.686468382E0
1.078284742E1,5.379795080E0,-7.177209291E0,-5.333517292E0,1.043556108E1
1.079283342E1,8.483640990E0,-5.083496783E0,-7.481006643E0,1.240078886E1
1.080281942E1,1.249613603E1,-1.241545878E0,-9.828500590E0,1.594660703E1
1.081280542E1,1.301382628E1,1.027914492E0,-1.321132301E1,1.857297333E1
1.082279212E1,1.129416133E1,1.077955109E0,-1.440151323E1,1.833367531E1
1.083277813E1,1.019036372E1,-1.322825830E-1,-1.180521967E1,1.559564756E1
1.084276412E1,9.793354731E0,-2.564960376E0,-7.703187974E0,1.272116047E1
1.085275012E1,8.029738011E0,-5.391955535E0,-4.856372800E0,1.082285701E1
1.086273613E1,5.578701569E0,-8.287987307E0,-3.390546003E0,1.055028184E1
1.087272212E1,2.220550311E0,-9.682278684E0,-2.342325593E0,1.020606944E1
1.088270912E1,1.743318111E-1,-9.334126693E0,-2.134458246E0,9.576649973E0
1.089269513E1,6.729291523E-1,-8.212808486E0,-2.465424685E0,8.601242687E0
1.090268112E1,2.365966471E0,-6.360483658E0,-3.208030429E0,7.506331257E0
1.091266712E1,4.758263538E0,-4.251739712E0,-4.090561212E0,7.579647321E0
1.092265313E1,6.880006430E0,-2.609787177E0,-4.838151122E0,8.806428553E0
1.093263912E1,8.395495384E0,-1.769283841E0,-5.317959021E0,1.009432495E1
1.094262613E1,8.830893095E0,-2.296331687E0,-4.767397182E0,1.029494478E1
1.095261213E1,8.051173904E0,-4.088519657E0,-2.860050931E0,9.471920900E0
1.096259812E1,6.225763809E0,-6.021997114E0,-7.689299083E-1,8.695736740E0
1.097258413E1,3.665629433E0,-6.792301118E0,1.622769866E0,7.887051138E0
1.098257013E1,2.453829657E0,-6.160990108E0,3.484837033E0,7.491539778E0
1.099255612E1,2.517738554E0,-5.842688738E0,4.071948940E0,7.553594329E0
1.100254213E1,2.717993411E0,-5.415116356E0,3.432293953E0,6.963592113E0
1.101252912E1,3.584767118E0,-3.710278772E0,1.748510438E-1,5.162101969E0
1.102251512E1,5.080751515E0,-1.665284533E0,-3.306325048E0,6.286413433E0
1.103250113E1,7.499409000E0,-2.027913060E-1,-4.658556817E0,8.830878285E0
1.104248712E1,9.624819850E0,3.538406007E-1,-5.028543481E0,1.086501771E1
1.105247312E1,1.154700195E1,-5.438248964E-1,-4.139197767E0,1.227851610E1
1.106245913E1,1.102873282E1,-3.327464486E0,-1.101276290E0,1.157228486E1
1.107244612E1,8.942006564E0,-5.213714275E0,1.550032550E0,1.046636990E1
1.108243212E1,8.203840612E0,-5.660756716E0,2.773219779E0,1.034591298E1
1.109241813E1,8.335167321E0,-5.973552933E0,3.853924395E0,1.095495697E1
1.110240412E1,7.977658616E0,-5.448130320E0,5.182267950E0,1.096271235E1
1.111239012E1,7.201316777E0,-4.153368787E0,5.957782992E0,1.022763970E1
1.112237613E1,6.421240321E0,-3.603458912E0,7.026264589E0,1.017770296E1
1.113236312E1,5.389390361E0,-4.639137629E0,8.616114923E0,1.117159625E1
1.114234913E1,2.995584420E0,-5.978931786E0,1.042674560E1,1.238701639E1
1.115233513E1,4.554504445E-1,-5.838403314E0,1.056598417E1,1.208033153E1
1.116232112E1,-1.273732899E0,-4.682208220E0,9.802948843E0,1.093815685E1
1.117230713E1,-1.450109189E0,-3.510317445E0,9.323881786E0,1.006776623E1
1.118229313E1,-3.934509552E-1,-2.541920300E0,8.578829568E0,8.956141983E0
1.119228012E1,5.022676384E-1,-1.337655246E0,6.177497967E0,6.340589521E0
1.120226613E1,1.300371644E0,1.175740582E-1,3.360386065E0,3.605133087E0
1.121225212E1,1.767263921E0,9.897862601E-1,1.149312921E0,2.328909358E0
1.122223812E1,1.279709923E0,9.270965070E-1,1.930247748E-1,1.591987432E0
1.123222413E1,1.311735123E-1,1.160836029E-1,4.375237584E-1,4.712843434E-1
1.124221012E1,-1.081005748E0,-1.139608882E0,6.892575020E-1,1.715330212E0
1.125219712E1,-2.058904034E0,-1.914163227E0,4.030766416E-1,2.839996032E0
1.126218313E1,-2.608882028E0,-2.136734567E0,1.489730215E-1,3.375513740E0
1.127216912E1,-2.557227725E0,-1.725337923E0,3.682050169E-2,3.085054349E0
1.128215512E1,-1.574586763E0,-1.011132106E0,-2.117218316E-2,1.871405854E0
1.129214113E1,-4.447743058E-1,-2.631890237E-1,-3.121863520E-1,6.037822155E-1
1.130212712E1,7.243291014E-1,5.235351312E-1,-1.297772557E0,1.575739601E0
1.131211413E1,9.893635064E-1,8.319050056E-1,-2.459394452E0,2.778403707E0
1.132210013E1,4.888050091E-1,4.172596478E-1,-3.160264524E0,3.224950823E0
1.133208612E1,-3.471158642E-1,-4.471938837E-1,-2.724448738E0,2.782641320E0
1.134207213E1,-1.182557266E0,-1.201159598E0,-1.766357895E0,2.441566357E0
1.135205813E1,-1.791485719E0,-1.621992479E0,-1.265552060E0,2.727985099E0
1.136204412E1,-1.976892157E0,-1.580066773E0,-1.350332009E0,2.868468257E0
1.137203012E1,-1.613163183E0,-1.352570323E0,-1.518904898E0,2.595922577E0
1.138201712E1,-6.700821429E-1,-9.979051191E-1,-1.888623759E0,2.238688099E0
1.139200312E1,4.297329283E-1,1.063023806E-3,-2.319045489E0,2.358525705E0
1.140198913E1,1.329893067E0,7.649730974E-1,-2.619212304E0,3.035469075E0
1.141197512E1,1.893869296E0,1.151270569E0,-2.809960173E0,3.578832353E0
1.142196112E1,1.936687286E0,1.262932507E0,-2.899055368E0,3.708136754E0
1.143194713E1,1.772154239E0,8.242030531E-1,-2.938507701E0,3.529117288E0
1.144193412E1,1.503721433E0,6.770315588E-2,-2.577954643E0,2.985232320E0
1.145192012E1,1.168276026E0,-1.960735130E-1,-1.773251469E0,2.132541786E0
1.146190613E1,1.281987414E0,2.429225743E-2,-9.436067051E-1,1.592003598E0
1.147189212E1,1.961454923E0,4.738244426E-1,-1.287623837E0,2.393698010E0
1.148187812E1,2.687722961E0,1.109108636E0,-2.521795353E0,3.848821700E0
1.149186413E1,3.564621121E0,1.712444227E0,-3.306621794E0,5.154875038E0
1.150185112E1,4.440773762E0,2.246571005E0,-2.968747162E0,5.794912648E0
1.151183712E1,4.741037056E0,2.231847131E0,-2.379270056E0,5.754954386E0
1.152182313E1,4.889661584E0,1.862071552E0,-1.957026241E0,5.586237784E0
1.153180912E1,4.815191153E0,1.216307979E0,-1.954771847E0,5.337284320E0
1.154179512E1,4.566391835E0,7.587504905E-1,-2.178712021E0,5.116094483E0
1.155178113E1,4.750758345E0,6.336077964E-1,-2.114372183E0,5.238485795E0
1.156176812E1,4.920596278E0,2.553695422E-1,-1.701698507E0,5.212797631E0
1.157175413E1,4.777299734E0,3.626314509E-1,-1.504874211E0,5.021826431E0
1.158174013E1,4.762598372E0,6.720824754E-1,-1.764332127E0,5.123173427E0
1.159172612E1,4.993126311E0,5.356540704E-1,-1.989937002E0,5.401674269E0
1.160171213E1,4.970609268E0,3.383725226E-1,-1.882772157E0,5.326000700E0
1.161169813E1,4.985669357E0,-1.446928596E-1,-1.841124779E0,5.316726005E0
1.162168512E1,4.461965241E0,-9.561384577E-1,-1.580254615E0,4.829134416E0
1.163167113E1,4.225955245E0,-1.088176188E0,-6.039565659E-1,4.405404486E0
1.164165712E1,4.796026611E0,-1.018510707E0,7.536884098E-1,4.960572702E0
1.165164312E1,4.960400029E0,-1.305331253E0,2.086721431E0,5.537496227E0
1.166162913E1,4.550784447E0,-1.717403251E0,2.897314067E0,5.661584744E0
1.167161512E1,4.043427976E0,-2.325775634E0,2.696710131E0,5.388022609E0
1.168160112E1,3.724908505E0,-3.062520713E0,1.990635452E0,5.216953708E0
1.169158813E1,2.747644057E0,-4.241856163E0,1.159206995E0,5.185234077E0
1.170157412E1,4.466062385E-1,-5.358182017E0,-4.873116302E-1,5.398800264E0
1.171156012E1,-1.323787404E0,-5.393148952E0,-1.183829620E0,5.678020894E0
1.172154613E1,-2.543092082E0,-5.842058408E0,-2.625803286E-1,6.376983002E0
1.173153212E1,-3.091223818E0,-5.844068096E0,1.297141643E0,6.737312005E0
1.174151812E1,-2.768181233E0,-5.644579809E0,2.924148694E0,6.933596047E0
1.175150513E1,-2.259539545E0,-5.989272003E0,3.673986273E0,7.380723082E0
1.176149112E1,-1.458944332E0,-5.579601456E0,2.322288355E0,6.217193432E0
1.177147713E1,-4.152829966E-1,-4.814320795E0,1.321069618E0,5.009527884E0
1.178146313E1,3.370598227E-2,-5.115707924E0,2.016398284E0,5.498860400E0
1.179144912E1,-2.326946247E-1,-5.802555204E0,2.269390934E0,6.234896061E0
1.180143513E1,-1.188580190E0,-6.233946987E0,1.220218085E0,6.462487918E0
1.181142212E1,-1.954687355E0,-6.861007656E0,-1.784043968E-1,7.136249494E0
1.182140837E1,-2.028098855E0,-7.041008343E0,-8.295797141E-1,7.374088822E0
1.183139438E1,-1.712202153E0,-7.404897530E0,-5.454366083E-1,7.619819206E0
1.184138037E1,-1.792418204E0,-8.261636830E0,2.083667723E-1,8.456407206E0
1.185136637E1,-2.214129483E0,-9.406763729E0,1.038284382E0,9.719444824E0
1.186135238E1,-2.727926077E0,-1.011567138E1,8.967570591E-1,1.051534885E1
1.187133937E1,-2.999395050E0,-1.062194553E1,-6.586303711E-3,1.103730678E1
1.188132537E1,-2.400516791E0,-1.149510791E1,-9.421136186E-2,1.174346041E1
1.189131138E1,-2.119469494E-1,-1.065198034E1,-2.599134135E-1,1.065725864E1
1.190129737E1,1.546315767E0,-8.498161381E0,-1.560572449E0,8.777540981E0
1.191128337E1,2.602074408E0,-6.658009286E0,-3.086325313E0,7.786223912E0
1.192126938E1,2.523410646E0,-6.452887791E0,-4.256086532E0,8.131521057E0
1.193125637E1,1.837674922E0,-7.356670280E0,-3.962613609E0,8.555697128E0
1.194124238E1,1.121169103E0,-8.536131445E0,-2.225746146E0,8.892497181E0
1.195122838E1,8.897287059E-1,-1.050376512E1,1.814893147E-1,1.054294253E1
1.196121437E1,1.961927378E0,-1.104560087E1,2.172813642E0,1.142696708E1
1.197120038E1,3.177440720E0,-9.282291126E0,8.835423517E-1,9.850771806E0
1.198118638E1,3.532537449E0,-7.980447153E0,-2.669225294E0,9.126396948E0
1.199117337E1,5.659666795E0,-5.618458543E0,-5.877358634E0,9.906676998E0
1.200115938E1,8.545443721E0,-3.396948704E0,-7.440220560E0,1.182881020E1
1.201114537E1,1.125644328E1,-1.373594572E0,-7.420910715E0,1.355227631E1
1.202113137E1,1.315195856E1,-2.141981274E-2,-7.079902267E0,1.493651529E1
1.203111738E1,1.223696521E1,-2.128035665E-2,-6.884233966E0,1.404052875E1
1.204110337E1,9.366458287E0,-1.228114092E0,-6.132502474E0,1.126261034E1
1.205109037E1,7.677827430E0,-3.086685794E0,-4.629972119E0,9.482262655E0
1.206107638E1,6.966347585E0,-4.023641583E0,-2.578538488E0,8.447990945E0
1.207106237E1,7.060700011E0,-4.145841374E0,-2.310426693E0,8.507617578E0
1.208104837E1,7.364595011E0,-4.706484105E0,-3.841059351E0,9.546831372E0
1.209103438E1,7.023890619E0,-5.043481947E0,-5.168281994E0,1.007387157E1
1.210102037E1,6.382203725E0,-5.532564114E0,-5.599726403E0,1.013403798E1
1.211100738E1,5.504667633E0,-5.769427219E0,-6.120858328E0,1.005249038E1
1.212099338E1,5.311018376E0,-5.452318681E0,-6.278005757E0,9.866511616E0
1.213097937E1,5.581135765E0,-4.900688848E0,-6.511440639E0,9.877483830E0
1.214096538E1,6.184095381E0,-4.790931640E0,-6.964190547E0,1.047358638E1
1.215095138E1,6.603890381E0,-4.785205169E0,-6.906789601E0,1.068706224E1
1.216093737E1,7.140380019E0,-4.939274039E0,-6.649174143E0,1.093585715E1
1.217092338E1,8.366659840E0,-5.589729418E0,-5.906495894E0,1.166759468E1
1.218091037E1,8.702729729E0,-6.326675057E0,-4.193341230E0,1.154765919E1
1.219089637E1,8.620663472E0,-6.412916225E0,-2.211683885E0,1.096963440E1
1.220088238E1,8.249212081E0,-6.071010815E0,4.603670758E-1,1.025273671E1
1.221086837E1,7.747176577E0,-5.720744471E0,2.566679165E0,9.966619495E0
1.222085437E1,7.139908733E0,-4.692075396E0,2.636217762E0,8.941113596E0
1.223084038E1,6.785483850E0,-3.242708511E0,6.709978169E-1,7.550376655E0
1.224082737E1,7.546462129E0,-2.649966905E0,-9.628335196E-1,8.055958270E0
1.225081337E1,8.490325527E0,-2.807227769E0,-7.950722247E-1,8.977655326E0
1.226079938E1,1.002594235E1,-3.148641429E0,8.764391541E-2,1.050909817E1
1.227078537E1,1.109335157E1,-4.714065605E0,2.070308443E0,1.222992398E1
1.228077137E1,9.550568397E0,-6.139282905E0,4.786010331E0,1.232112195E1
1.229075738E1,6.754822805E0,-5.786170721E0,8.053306383E0,1.199846434E1
1.230074437E1,4.570519384E0,-4.473763460E0,1.076929654E1,1.252525269E1
1.231073038E1,3.802624433E0,-3.505975010E0,1.284567556E1,1.384785882E1
1.232071638E1,3.644872402E0,-2.045643718E0,1.323067027E1,1.387517167E1
1.233070237E1,3.337499478E0,-9.270947528E-1,1.179399652E1,1.229214226E1
1.234068837E1,3.187931210E0,-9.688660920E-1,9.833812201E0,1.038294126E1
1.235067438E1,2.881482146E0,-1.118786070E0,8.589069212E0,9.128347690E0
1.236066137E1,2.039173189E0,-8.722589797E-1,7.505922799E0,7.826745178E0
1.237064738E1,1.070395390E0,-6.419149357E-1,5.467735450E0,5.608380517E0
1.238063337E1,2.095466673E-1,-4.196228001E-1,3.403791116E0,3.435955043E0
1.239061937E1,-4.087729990E-1,-4.552381906E-1,1.500987275E0,1.620894806E0
1.240060538E1,-9.860446268E-1,-6.962279677E-1,-4.250808835E-2,1.207818002E0
1.241059137E1,-1.651947765E0,-8.572056153E-1,-3.512556928E-1,1.893967647E0
1.242057837E1,-1.929264246E0,-1.213654805E0,-2.280618757E-1,2.290639810E0
1.243056438E1,-2.021069625E0,-1.332552965E0,-2.705857515E-1,2.435905680E0
1.244055037E1,-1.921365243E0,-1.273695770E0,-3.562316734E-1,2.332562178E0
1.245053637E1,-1.973384997E0,-1.262063026E0,-2.255738854E-2,2.342554218E0
1.246052238E1,-1.975532094E0,-1.297815534E0,-6.127882004E-4,2.363694691E0
1.247050837E1,-1.640114170E0,-1.234734895E0,-1.892322707E-1,2.061638572E0
1.248049537E1,-1.246617022E0,-1.068367576E0,-7.587463975E-1,1.808634671E0
1.249048138E1,-1.030778165E0,-9.858472833E-1,-1.785599912E0,2.285337073E0
1.250046737E1,-7.038983452E-1,-9.841457435E-1,-2.333838360E0,2.628843322E0
1.251045337E1,-4.479972911E-1,-8.571702397E-1,-2.282883384E0,2.479314207E0
1.252043938E1,-1.474632704E-1,-5.211468360E-1,-2.079745849E0,2.149111965E0
1.253042537E1,2.179058468E-1,-2.501561648E-1,-1.758861472E0,1.789875622E0
1.254041137E1,4.994153666E-1,-9.023657084E-2,-1.689953497E0,1.764511595E0
1.255039838E1,6.725163388E-1,-3.463601115E-1,-1.990679014E0,2.129564859E0
1.256038437E1,3.829218739E-1,-7.735723051E-1,-2.209465744E0,2.372083925E0
1.257037038E1,7.788959026E-2,-8.595860168E-1,-2.027227913E0,2.203317480E0
1.258035638E1,2.525856829E-1,-7.963980809E-1,-1.879846503E0,2.057151503E0
1.259034237E1,5.608514768E-1,-6.601374909E-1,-2.179444385E0,2.345274762E0
1.260032938E1,6.603406817E-1,-3.609410208E-1,-2.805129496E0,2.904320872E0
1.261031537E1,8.246275610E-1,-8.311173856E-2,-3.334438460E0,3.435898430E0
1.262030137E1,1.035413838E0,-1.028036991E-1,-3.249324635E0,3.411855947E0
1.263028738E1,1.027049981E0,-2.526669592E-1,-2.621617264E0,2.826932849E0
1.264027337E1,1.023141702E0,-3.939052838E-1,-2.165423931E0,2.427146702E0
1.265025937E1,1.151644791E0,-5.725473699E-1,-2.340419401E0,2.670516652E0
1.266024538E1,1.180646980E0,-7.362571290E-1,-2.504390531E0,2.864956157E0
1.267023237E1,1.251892380E0,-7.061012837E-1,-2.298576726E0,2.710953433E0
1.268021837E1,1.575973138E0,-4.476578602E-1,-2.257852623E0,2.789621364E0
1.269020438E1,2.653042540E0,1.404977748E-1,-2.246555218E0,3.479279335E0
1.270019037E1,3.679758060E0,6.469786245E-1,-2.126562166E0,4.299007719E0
1.271017637E1,4.198178047E0,1.003963127E0,-2.464187999E0,4.970398713E0
1.272016238E1,4.925948820E0,1.332553550E0,-3.245880333E0,6.047843407E0
1.273014937E1,5.475447927E0,1.245413665E0,-4.061302330E0,6.930062180E0
1.274013538E1,5.180562901E0,1.013065195E0,-4.759319546E0,7.107436641E0
1.275012138E1,5.057203608E0,7.884584391E-1,-5.410671303E0,7.447975496E0
1.276010737E1,5.341616855E0,6.163520783E-1,-5.040208676E0,7.369970421E0
1.277009338E1,5.606701546E0,6.396637577E-1,-3.591601344E0,6.689086049E0
1.278007938E1,5.525511203E0,3.838135743E-1,-2.163572410E0,5.946396597E0
1.279006637E1,5.582615696E0,2.183473116E-1,-1.155550146E0,5.705135379E0
1.280005238E1,5.918729439E0,2.154652190E-1,-9.377173895E-1,5.996423712E0
1.281003837E1,6.475488449E0,1.357793641E-1,-8.876874429E-1,6.537459422E0
1.282002404E1,7.070338562E0,-4.060739243E-1,-2.176868686E-1,7.085334924E0
1.283001004E1,6.910217239E0,-1.459583141E0,7.626479521E-1,7.103739658E0
1.283999604E1,6.294270372E0,-2.264140719E0,1.182957215E0,6.792905158E0
1.284998304E1,5.775400735E0,-2.979582052E0,6.668995035E-1,6.532833826E0
1.285996904E1,4.448492671E0,-3.960450724E0,-1.659308240E-1,5.958337857E0
1.286995504E1,2.581772875E0,-4.979278350E0,6.598232031E-2,5.609199384E0
1.287994104E1,7.733678719E-1,-5.845999432E0,1.366329406E0,6.053153167E0
1.288992704E1,-7.853716940E-1,-5.631279148E0,1.810375149E0,5.967040449E0
1.289991304E1,-1.505232792E0,-4.679848284E0,1.592641211E0,5.167515045E0
1.290990004E1,-1.412037968E0,-4.596048328E0,1.523515427E0,5.043670361E0
1.291988604E1,-1.254357858E0,-4.881998808E0,1.364102202E0,5.221886710E0
1.292987204E1,-1.362287080E0,-4.538573121E0,3.303735316E-1,4.750117760E0
1.293985804E1,-1.386900788E0,-4.682246227E0,-1.013208525E0,4.987335465E0
1.294984404E1,-1.740393626E0,-5.456258535E0,-1.494176292E0,5.918808154E0
1.295983004E1,-3.153878488E0,-6.194522721E0,-4.959890445E-1,6.968864067E0
1.296981604E1,-4.242666587E0,-6.517200732E0,1.876900676E0,7.999805079E0
1.297980304E1,-4.443274908E0,-6.551805723E0,5.548110691E0,9.666973797E0
1.298978904E1,-3.985223038E0,-6.941408041E0,8.496369794E0,1.167276522E1
1.299977504E1,-3.141419533E0,-7.210795113E0,9.027978176E0,1.197365745E1
1.300976104E1,-1.924889067E0,-6.941365356E0,8.108801723E0,1.084621668E1
1.301974704E1,-6.930593616E-1,-7.482957859E0,7.491409425E0,1.061113588E1
1.302973404E1,1.411330748E-1,-8.280484160E0,6.177470486E0,1.033186711E1
1.303972004E1,-6.809228808E-3,-8.069842894E0,3.728006945E0,8.889344547E0
1.304970604E1,-5.396749082E-1,-7.685829345E0,2.105558383E0,7.987277248E0
1.305969204E1,-9.842508473E-1,-7.882330289E0,1.310062235E0,8.050847383E0
1.306967804E1,-1.151648372E0,-8.397619677E0,-5.905336062E-2,8.476425987E0
1.307966404E1,-1.199199903E0,-8.495656434E0,-1.505453378E0,8.710949921E0
1.308965004E1,-6.264592829E-1,-8.888297549E0,-1.704320691E0,9.071879275E0
1.309963704E1,7.339629009E-1,-9.467774747E0,-5.997815442E-1,9.515103683E0
1.310962304E1,1.134692397E0,-9.472757159E0,1.195724026E0,9.615113675E0
1.311960904E1,1.560193257E0,-9.466552094E0,2.243237507E0,9.853016090E0
1.312959504E1,2.387950832E0,-9.052909534E0,9.784099904E-1,9.413541646E0
1.313958104E1,2.362926796E0,-8.840936857E0,-1.665482315E0,9.301581526E0
1.314956704E1,2.655637534E0,-8.258538975E0,-4.031642329E0,9.566086796E0
1.315955404E1,3.341816477E0,-7.974487086E0,-5.821442295E0,1.042350095E1
1.316954004E1,4.288607576E0,-7.684388006E0,-7.032973684E0,1.126519830E1
1.317952604E1,5.508958320E0,-6.542896906E0,-6.274755290E0,1.060804768E1
1.318951204E1,6.174919345E0,-6.405952776E0,-4.837870456E0,1.012772682E1
1.319949804E1,6.630843707E0,-6.224449355E0,-4.718696015E0,1.024587479E1
1.320948404E1,7.980242500E0,-5.482935871E0,-5.863618847E0,1.131940290E1
1.321947104E1,8.865435521E0,-4.821607010E0,-7.648743380E0,1.266282419E1
1.322945704E1,9.424787772E0,-3.548175827E0,-9.170143869E0,1.362012169E1
1.323944304E1,1.013312649E1,-2.948658468E0,-9.380633107E0,1.411988374E1
1.324942904E1,1.068110415E1,-3.176611585E0,-8.055780340E0,1.375036160E1
1.325941504E1,1.045814047E1,-3.708743000E0,-6.460148864E0,1.283982087E1
1.326940104E1,9.432570416E0,-3.916624965E0,-5.130713634E0,1.142967883E1
1.327938804E1,8.261717522E0,-4.426062460E0,-4.220838346E0,1.027917709E1
1.328937404E1,6.620073720E0,-5.755241289E0,-3.751936675E0,9.540713137E0
1.329936004E1,3.986001887E0,-6.947944059E0,-3.565878857E0,8.767988921E0
1.330934604E1,2.767557335E0,-7.217037016E0,-3.817157688E0,8.620654830E0
1.331933204E1,3.787223452E0,-6.223784527E0,-4.673111122E0,8.655433141E0
1.332931804E1,4.998289402E0,-4.787636442E0,-6.209269983E0,9.298354337E0
1.333930504E1,6.766185699E0,-4.347080902E0,-7.337694311E0,1.088669551E1
1.334929104E1,7.608144407E0,-4.350222026E0,-7.828670976E0,1.175144171E1
1.335927704E1,8.937493098E0,-4.550400285E0,-7.666690239E0,1.262390846E1
1.336926304E1,9.008971217E0,-5.377066185E0,-6.383276689E0,1.228090487E1
1.337924904E1,7.779718671E0,-6.065774633E0,-5.014277444E0,1.106619279E1
1.338923504E1,7.495178540E0,-6.628385537E0,-3.272426400E0,1.052720147E1
1.339922204E1,7.608155517E0,-6.588825030E0,-1.515781900E0,1.017812558E1
1.340920804E1,7.838266842E0,-6.077995314E0,-5.726678225E-1,9.935210242E0
1.341919404E1,8.417463373E0,-5.293996546E0,-1.373284085E0,1.003822685E1
1.342918004E1,9.393366004E0,-4.961491705E0,-2.193229780E0,1.084721078E1
1.343916604E1,1.050535790E1,-4.512240186E0,-2.209704310E0,1.164498387E1
1.344915204E1,1.127866036E1,-4.618993971E0,-1.148984308E0,1.224187280E1
1.345913904E1,1.082773127E1,-4.613918588E0,7.927438635E-1,1.179645930E1
1.346912504E1,1.065460691E1,-4.385804088E0,2.132291853E0,1.171761898E1
1.347911104E1,1.145562751E1,-4.084813399E0,3.251487520E0,1.258925229E1
1.348909704E1,1.214370563E1,-4.648601348E0,6.388856687E0,1.448780765E1
1.349908304E1,1.052126233E1,-6.043241803E0,1.057912754E1,1.609769151E1
1.350906904E1,6.793723746E0,-6.376988593E0,1.309632699E1,1.607278589E1
1.351905604E1,4.021571084E0,-5.019968539E0,1.274478536E1,1.427594733E1
1.352904204E1,2.756065802E0,-4.608887059E0,1.140311250E1,1.260431328E1
1.353902804E1,1.599643251E0,-3.524054016E0,1.076026610E1,1.143508381E1
1.354901404E1,1.744408032E0,-2.352999101E0,1.018642854E1,1.059919292E1
1.355900004E1,1.812821624E0,-1.401445737E0,9.184071352E0,9.465597656E0
1.356898604E1,1.610054219E0,-1.212861630E-1,7.624825344E0,7.793904442E0
1.357897304E1,2.045549578E0,8.337544799E-1,6.024107375E0,6.416329891E0
1.358895904E1,1.992497790E0,1.209244543E0,4.043881720E0,4.667472461E0
1.359894504E1,1.233209941E0,1.085728252E0,2.589525406E0,3.066798725E0
1.360893104E1,-1.284843779E-1,2.703284740E-1,1.556722934E0,1.585235633E0
1.361891704E1,-1.435832335E0,-7.806284326E-1,2.429500562E-1,1.652277209E0
1.362890304E1,-2.428048698E0,-1.307071677E0,-8.679133290E-1,2.890870180E0
1.363889004E1,-2.612619569E0,-1.414230382E0,-1.227862077E0,3.214572112E0
1.364887604E1,-2.413113155E0,-1.339129036E0,-1.239839514E0,3.025489001E0
1.365886204E1,-2.092002198E0,-9.260133103E-1,-8.050341260E-1,2.425294578E0
1.366884804E1,-1.715157920E0,-7.241536850E-1,-2.767627501E-1,1.882222854E0
1.367883404E1,-1.382447256E0,-5.464661568E-1,-2.296874017E-1,1.504174850E0
1.368882004E1,-9.384056067E-1,-4.665914369E-1,-4.850721467E-1,1.154819310E0
1.369880604E1,-5.060718369E-1,-3.649089414E-1,-4.971022081E-1,7.977329409E-1
1.370879304E1,-1.176693678E-2,-2.556236038E-1,-3.395665240E-1,4.251909122E-1
1.371877904E1,1.922675604E-1,-3.336587897E-1,-5.437103641E-1,6.662701875E-1
1.372876504E1,1.131687659E-1,-4.922045803E-1,-1.193440688E0,1.295906322E0
1.373875104E1,3.206730008E-2,-8.405778882E-1,-1.926197966E0,2.101865387E0
1.374873704E1,4.367636204E-2,-1.077807906E0,-2.039165588E0,2.306897007E0
1.375872304E1,1.029782385E-1,-1.055603104E0,-1.912587402E0,2.186982625E0
1.376871004E1,2.768779403E-1,-9.678840521E-1,-1.765900642E0,2.032699193E0
1.377869604E1,3.830008113E-1,-7.488192871E-1,-1.974354757E0,2.146042090E0
1.378868204E1,6.535245824E-1,-5.274843407E-1,-2.395936959E0,2.538867469E0
1.379866804E1,9.527862489E-1,-2.391338709E-1,-2.754173058E0,2.924116256E0
1.380865404E1,1.241593094E0,1.024022877E-1,-3.004252625E0,3.252318169E0
1.381864004E1,1.411756425E0,3.313292590E-1,-3.247008553E0,3.556107398E0
1.382862700E1,1.689763463E0,5.469155154E-1,-3.005664727E0,3.491194293E0
1.383861300E1,1.974393057E0,7.493236095E-1,-2.878387215E0,3.569989744E0
1.384859900E1,2.222418496E0,5.546224380E-1,-3.454425372E0,4.144852793E0
1.385858500E1,2.432762724E0,3.981942165E-1,-4.001532676E0,4.699910304E0
1.386857100E1,2.824564179E0,4.225028461E-1,-4.030517909E0,4.939812352E0
1.387855700E1,3.034839994E0,6.410594881E-1,-4.459269674E0,5.431969909E0
1.388854400E1,3.285354009E0,7.084720373E-1,-4.752240322E0,5.820590319E0
1.389853000E1,3.708768436E0,6.314875960E-1,-4.939495649E0,6.209054450E0
1.390851600E1,4.065417600E0,9.109079057E-1,-4.573202964E0,6.186401121E0
1.391850200E1,4.450683623E0,1.041896061E0,-4.503222317E0,6.416630218E0
1.392848800E1,5.473140031E0,1.395882989E0,-5.453218567E0,7.851200154E0
1.393847400E1,6.685138612E0,1.383079925E0,-6.359798949E0,9.330114202E0
1.394846100E1,7.564653402E0,1.024514043E0,-6.507791977E0,1.003119966E1
1.395844700E1,8.087462894E0,2.557379168E-1,-5.416858242E0,9.737289723E0
1.396843300E1,7.642689757E0,-5.431899619E-1,-3.516571042E0,8.430423118E0
1.397841900E1,7.428983381E0,-1.363912752E0,-1.721638974E0,7.746876327E0
1.398840500E1,6.479341180E0,-2.454587456E0,-5.161772874E-1,6.947899013E0
1.399839100E1,5.363797098E0,-3.151989545E0,2.539106619E-1,6.226542221E0
1.400837800E1,4.777886502E0,-3.650021460E0,4.354219767E-1,6.028303939E0
1.401836400E1,3.869813034E0,-4.182881731E0,1.157595794E0,5.814807006E0
1.402835000E1,3.005859439E0,-4.480602071E0,2.562897770E0,5.973226170E0
1.403833600E1,1.889925641E0,-4.914201763E0,3.479798487E0,6.311116812E0
1.404832200E1,2.403716351E-1,-5.331859022E0,3.863435476E0,6.588826362E0
1.405830800E1,-6.190211861E-1,-5.091998050E0,3.775825474E0,6.369339791E0
1.406829500E1,8.480816200E-2,-4.408740960E0,2.735076052E0,5.188914173E0
1.407828100E1,8.538608618E-2,-3.779383505E0,2.235216297E0,4.391722026E0
1.408826700E1,-5.564819987E-1,-3.364150502E0,3.250371287E0,4.710848577E0
1.409825300E1,-9.359360352E-1,-3.451544157E0,4.544930799E0,5.783210985E0
1.410823900E1,-1.116617922E0,-3.573492517E0,4.761918048E0,6.057437400E0
1.411822500E1,-1.422328776E0,-3.843785908E0,4.247389968E0,5.902375013E0
1.412821200E1,-1.630056520E0,-3.953892487E0,3.484507250E0,5.516533407E0
1.413819800E1,-1.030316235E0,-3.851056336E0,2.610342078E0,4.765088898E0
1.414818400E1,8.806199133E-2,-3.479194470E0,2.139600288E0,4.085393306E0
1.415817000E1,7.368424353E-1,-3.023332089E0,2.418616555E0,3.941215515E0
1.416815600E1,1.242231025E0,-2.954165375E0,2.852957674E0,4.290640800E0
1.417814200E1,1.368435866E0,-3.066706735E0,3.241947203E0,4.667711279E0
1.418812900E1,3.660307297E-1,-3.438731738E0,3.519740233E0,4.934311073E0
1.419811500E1,-7.093257308E-1,-3.625627461E0,3.052520805E0,4.792306412E0
1.420810100E1,-5.762056804E-1,-3.264167792E0,2.745251377E0,4.303859835E0
1.421808700E1,-1.649783126E-1,-3.195222688E0,3.358670492E0,4.638677973E0
1.422807300E1,-4.785630262E-1,-3.786338768E0,4.072626632E0,5.581368248E0
1.423805900E1,-4.787115455E-1,-4.162358589E0,4.363192320E0,6.049119025E0
1.424804600E1,6.937604427E-2,-4.254731147E0,4.527984399E0,6.213710074E0
1.425803200E1,2.437472656E0,-4.042544462E0,4.010446172E0,6.194119564E0
1.426801800E1,3.933779819E0,-3.319525722E0,2.913289829E0,5.914484957E0
1.427800400E1,3.196672212E0,-3.571874592E0,1.491814163E0,5.020210238E0
1.428799000E1,1.188189012E0,-4.392669888E0,2.340419693E-1,4.556546666E0
1.429797600E1,-5.973354712E-1,-5.094303607E0,-6.402734761E-1,5.169012384E0
1.430796200E1,-1.590121938E0,-5.940988619E0,-1.401888664E0,6.307862188E0
1.431794900E1,-2.116402337E0,-6.899808025E0,-1.499911095E0,7.371312158E0
1.432793500E1,-1.217331534E0,-7.735792049E0,-5.165079474E-2,7.831158438E0
1.433792100E1,1.262724639E0,-7.464389441E0,2.251930270E0,7.898276596E0
1.434790700E1,4.398244916E0,-6.131704329E0,3.781730285E0,8.440606629E0
1.435789300E1,5.598811898E0,-4.352477882E0,2.568961333E0,7.542567250E0
1.436787900E1,3.609140067E0,-4.166952746E0,-2.930328616E0,6.243093224E0
1.437786600E1,9.348209712E-1,-4.935037147E0,-7.548121569E0,9.066566115E0
1.438785200E1,-3.703459749E-1,-7.490022465E0,-7.174459931E0,1.037836538E1
1.439783800E1,-1.645077286E0,-1.010567966E1,-3.631256576E0,1.086356594E1
1.440782400E1,-2.207259882E0,-1.247428381E1,-6.262577002E-1,1.268353072E1
1.441781000E1,-1.549526181E0,-1.475698535E1,1.139318422E0,1.488179070E1
1.442779600E1,5.656994033E-1,-1.575315911E1,1.830760736E0,1.586926975E1
1.443778300E1,5.565930666E0,-1.133554207E1,1.655986437E0,1.273641980E1
1.444776900E1,1.164666072E1,-3.758693132E0,-1.114129640E0,1.228876580E1
1.445775500E1,1.294482563E1,1.650070224E0,-1.036364712E1,1.666422587E1
1.446774100E1,1.228576490E1,4.021575762E0,-1.987274239E1,2.370736132E1
1.447772700E1,1.125894472E1,2.536606935E0,-2.277840862E1,2.553535020E1
1.448771300E1,8.436447528E0,-8.959130135E-1,-1.790239794E1,1.981091010E1
1.449770000E1,5.789868500E0,-4.855107755E0,-8.381621110E0,1.128477829E1
1.450768600E1,3.660447630E0,-7.890102993E0,6.765169307E-1,8.724120429E0
1.451767200E1,2.127194250E0,-1.031406624E1,4.645178972E0,1.151010884E1
1.452765800E1,4.964362103E-1,-1.050528540E1,2.262938970E0,1.075771179E1
1.453764400E1,2.619453210E-1,-9.601995828E0,-8.634467871E-1,9.644297776E0
1.454763000E1,-1.823746562E-3,-9.330357578E0,-1.815834110E0,9.505410531E0
1.455761700E1,8.696481979E-1,-8.226707318E0,-1.397226240E0,8.389710510E0
1.456760300E1,4.342742853E0,-5.175253045E0,-3.614843734E-1,6.765599051E0
1.457758900E1,8.464336993E0,-1.031284242E0,-2.367679120E0,8.849545318E0
1.458757500E1,1.067534582E1,2.240478206E0,-7.232047988E0,1.308759982E1
1.459756100E1,1.220585217E1,3.035775841E0,-1.095175306E1,1.667751952E1
1.460754700E1,1.216411007E1,3.583101027E-1,-1.037999126E1,1.599494228E1
1.461753400E1,9.099734037E0,-3.017719932E0,-7.440619925E0,1.213567542E1
1.462752000E1,7.346350529E0,-5.132284781E0,-4.368057788E0,9.969410314E0
1.463750600E1,6.379381859E0,-7.061524469E0,-1.033136640E0,9.572304427E0
1.464749200E1,5.073827827E0,-8.075992411E0,1.355909083E0,9.633476614E0
1.465747800E1,4.361759752E0,-6.809644545E0,2.084762176E0,8.351193944E0
1.466746400E1,6.179784229E0,-4.773634699E0,-3.816895732E-1,7.818120508E0
1.467745100E1,8.618835048E0,-2.943666115E0,-3.117538335E0,9.626449660E0
1.468743700E1,1.077526304E1,-9.704425013E-1,-4.301066238E0,1.164247495E1
1.469742300E1,1.272409090E1,1.015149727E-1,-3.853045558E0,1.329506504E1
1.470740900E1,1.423042487E1,-3.145905809E-1,-1.410748950E0,1.430364190E1
1.471739500E1,1.294515073E1,-2.497726167E0,2.201098378E0,1.336639060E1
1.472738100E1,9.245510386E0,-4.826307587E0,3.912594772E0,1.113916986E1
1.473736800E1,5.918373928E0,-5.656925036E0,4.723919333E0,9.452161905E0
1.474735400E1,4.430384429E0,-5.537396253E0,5.150269647E0,8.764493191E0
1.475734000E1,2.732767571E0,-5.812563883E0,6.518005893E0,9.150864348E0
1.476732600E1,9.406830972E-1,-5.153530054E0,7.589468400E0,9.221918852E0
1.477731200E1,5.826738703E-1,-4.125509728E0,6.267300090E0,7.525848110E0
1.478729800E1,8.766987705E-1,-3.438416865E0,4.188588029E0,5.489588413E0
1.479728500E1,8.895176214E-1,-3.362665017E0,3.903048023E0,5.228053317E0
1.480727100E1,1.035789229E0,-2.894842156E0,5.378407536E0,6.195178614E0
1.481725700E1,1.273023632E0,-2.067497394E0,6.583537978E0,7.016987028E0
1.482724367E1,1.294443153E0,-1.616823833E0,6.659781577E0,6.974409870E0
1.483722967E1,1.176107787E0,-9.921722165E-1,5.875985708E0,6.074112550E0
1.484721567E1,9.317602462E-1,-3.999568596E-1,4.903384999E0,5.007127629E0
1.485720267E1,8.936954570E-1,-4.342361614E-1,4.117171306E0,4.235369190E0
1.486718867E1,3.510510403E-1,-6.620281881E-1,3.298997902E0,3.383031970E0
1.487717467E1,-6.133547956E-1,-8.095218641E-1,2.196715305E0,2.420142121E0
1.488716067E1,-1.193745328E0,-9.146106550E-1,1.263019046E0,1.963862946E0
1.489714667E1,-1.347480907E0,-8.610656548E-1,6.421540868E-1,1.723223934E0
1.490713267E1,-1.280211614E0,-1.044434338E0,-2.830005598E-1,1.676267932E0
1.491711867E1,-1.277227780E0,-1.058776096E0,-9.398820287E-1,1.906750076E0
1.492710567E1,-1.212489163E0,-6.266700751E-1,-9.769434357E-1,1.678470682E0
1.493709167E1,-7.673558378E-1,-4.066010508E-1,-6.735208905E-1,1.098994898E0
1.494707767E1,-4.594993490E-1,-2.068633801E-1,-3.141995484E-1,5.938463319E-1
1.495706367E1,-4.723755026E-1,-4.314812458E-1,2.179274815E-1,6.758750388E-1
1.496704967E1,-1.001115240E0,-7.844978276E-1,3.430450326E-1,1.317326254E0
1.497703567E1,-1.490966316E0,-9.601844385E-1,-3.120588827E-1,1.800643068E0
1.498702267E1,-1.420602093E0,-9.534022531E-1,-9.806242579E-1,1.971981262E0
1.499700867E1,-9.374449092E-1,-5.547724190E-1,-1.158494219E0,1.590183716E0
1.500699467E1,-4.823619622E-1,-2.851485345E-1,-1.366065697E0,1.476522346E0
1.501698067E1,-3.393215257E-1,-3.468334436E-1,-1.760482612E0,1.826124739E0
1.502696667E1,-2.878081405E-1,-2.727343109E-1,-1.851079372E0,1.893069563E0
1.503695267E1,7.430758595E-2,-1.790113378E-1,-1.900608796E0,1.910466036E0
1.504693967E1,3.045680147E-1,-6.198048592E-3,-2.101869959E0,2.123830835E0
1.505692567E1,4.292645663E-1,-4.667189062E-2,-2.297112583E0,2.337343054E0
1.506691167E1,4.070322829E-1,-2.734114185E-1,-2.200737605E0,2.254700665E0
1.507689767E1,3.464989829E-1,-2.955375749E-1,-1.855696918E0,1.910762951E0
1.508688367E1,5.076657879E-1,-1.872383702E-1,-1.476992056E0,1.572987060E0
1.509686967E1,7.881052673E-1,-2.621189833E-2,-1.388473982E0,1.596764533E0
1.510685667E1,1.273834056E0,3.683430111E-1,-1.784738617E0,2.223425669E0
1.511684267E1,1.816371469E0,6.791482508E-1,-2.604625840E0,3.247233196E0
1.512682867E1,2.254047255E0,6.277541488E-1,-3.094313779E0,3.879379082E0
1.513681467E1,2.529179801E0,6.565996331E-1,-3.015097455E0,3.989822830E0
1.514680067E1,2.706969071E0,6.455764621E-1,-3.041577156E0,4.122577121E0
1.515678667E1,2.805243225E0,7.521513230E-1,-3.229572741E0,4.343415850E0
1.516677367E1,2.863775607E0,7.831819117E-1,-3.627644750E0,4.687685044E0
1.517675967E1,3.184150985E0,9.408310318E-1,-4.011473528E0,5.207293000E0
1.518674567E1,4.203953927E0,1.544615690E0,-3.870034059E0,5.919140973E0
1.519673167E1,5.233008918E0,1.546375701E0,-3.892837323E0,6.702972666E0
1.520671767E1,5.630881537E0,9.874473739E-1,-4.014310597E0,6.985454085E0
1.521670367E1,5.621285672E0,6.931388837E-1,-4.016514412E0,6.943463267E0
1.522669067E1,5.744554918E0,3.656304878E-1,-3.510499293E0,6.742195647E0
1.523667667E1,6.128190152E0,7.295570970E-2,-2.656923045E0,6.679766249E0
1.524666267E1,6.741404614E0,-3.947531301E-1,-1.548696461E0,6.928262909E0
1.525664867E1,6.606515781E0,-1.618827381E0,-1.219146510E0,6.910352456E0
1.526663467E1,5.121034153E0,-3.308984946E0,-1.726828963E0,6.336900696E0
1.527662067E1,3.174517112E0,-3.963465548E0,-1.804559216E0,5.389160604E0
1.528660767E1,2.112976453E0,-3.961255885E0,-1.183709167E0,4.642993116E0
1.529659367E1,2.072516060E0,-3.510204009E0,3.182075223E-1,4.088778672E0
1.530657967E1,2.198503238E0,-3.301822692E0,1.228912530E0,4.152791300E0
1.531656567E1,1.287353988E0,-3.569257963E0,1.351596908E0,4.027865055E0
1.532655167E1,1.959130435E-1,-2.910405983E0,3.350172441E-1,2.936167819E0
1.533653767E1,5.497852557E-1,-2.635695021E0,-4.421606004E-1,2.728490071E0
1.534652467E1,2.158900192E-1,-3.235558535E0,2.066757575E-1,3.249332609E0
1.535651067E1,-6.531730185E-1,-3.448088452E0,7.078393686E-1,3.580081778E0
1.536649667E1,-9.992745370E-1,-3.378640487E0,7.884151697E-1,3.610451443E0
1.537648267E1,-1.678142560E0,-3.854290431E0,1.201482364E0,4.372102131E0
1.538646867E1,-2.142857918E0,-3.973972995E0,1.901542597E0,4.898996394E0
1.539645467E1,-1.964710068E0,-3.582576751E0,2.609641582E0,4.848213177E0
1.540644167E1,-1.349384176E0,-3.016900152E0,2.474872617E0,4.128864087E0
1.541642767E1,-2.544471440E-1,-2.231788074E0,1.846573507E0,2.907826521E0
1.542641367E1,1.121782768E0,-1.847993211E0,1.781926106E0,2.801559590E0
1.543639967E1,1.728251882E0,-2.086273096E0,2.697770816E0,3.823265277E0
1.544638567E1,9.743846941E-1,-2.445545906E0,4.284161938E0,5.028336089E0
1.545637167E1,-7.142452857E-1,-3.531881391E0,5.485715053E0,6.563337728E0
1.546635867E1,-2.267333006E0,-4.672681936E0,5.850120549E0,7.822957617E0
1.547634467E1,-2.842907187E0,-5.238780119E0,4.975936081E0,7.764462525E0
1.548633067E1,-2.525598382E0,-5.141325746E0,3.501995103E0,6.713854877E0
1.549631667E1,-1.494588667E0,-5.285488263E0,3.037422125E0,6.276632427E0
1.550630267E1,-3.616847867E-1,-5.217724296E0,3.128438714E0,6.094472209E0
1.551628867E1,2.155070266E-1,-5.634887465E0,4.271532537E0,7.074205979E0
1.552627567E1,-4.515845579E-1,-6.693607135E0,6.001043032E0,9.001156735E0
1.553626167E1,-8.287381536E-1,-7.927200653E0,7.084674765E0,1.066395488E1
1.554624767E1,-1.615365245E0,-9.373279064E0,7.148529868E0,1.189828746E1
1.555623367E1,-1.316419035E0,-1.040178968E1,5.579200337E0,1.187676993E1
1.556621967E1,-2.907493996E-1,-1.072759069E1,4.498674645E0,1.163631431E1
1.557620567E1,8.569167629E-1,-1.096947948E1,3.704129255E0,1.160966665E1
1.558619267E1,2.028760175E-1,-1.170658416E1,7.676167698E-1,1.173347804E1
1.559617867E1,-1.239997681E0,-1.272474579E1,-2.278031072E0,1.298638422E1
1.560616467E1,-1.514023642E0,-1.492241477E1,-3.377283056E-1,1.500282609E1
1.561615067E1,-9.979133052E-1,-1.742700177E1,4.440362703E0,1.801146975E1
1.562613667E1,2.338726047E0,-1.837052954E1,7.942525620E0,2.015017886E1
1.563612267E1,7.684435369E0,-1.403281587E1,8.294970052E0,1.802157031E1
1.564610967E1,1.020657103E1,-8.935686309E0,7.637785113E-1,1.358690324E1
1.565609567E1,1.241673902E1,-2.486504483E0,-9.252782568E0,1.568349763E1
1.566608167E1,1.510190324E1,3.327757432E0,-1.638527002E1,2.253039113E1
1.567606767E1,1.502480537E1,4.167868712E0,-1.692997908E1,2.301608346E1
1.568605367E1,1.397667442E1,2.789047314E0,-1.160943501E1,1.838219775E1
1.569603967E1,1.058106648E1,-2.489656717E-1,-5.128290548E0,1.176096576E1
1.570602567E1,6.875712234E0,-3.868971912E0,-1.791734226E0,8.090406289E0
1.571601267E1,4.941508845E0,-6.778287097E0,-2.143444247E0,8.657831072E0
1.572599867E1,5.184554796E0,-7.063124267E0,-4.232097745E0,9.730261259E0
1.573598467E1,6.416363159E0,-5.975668455E0,-5.952369055E0,1.059759534E1
1.574597067E1,7.183777469E0,-5.990963602E0,-6.963650849E0,1.166150662E1
1.575595667E1,6.776435868E0,-5.981225649E0,-8.524408363E0,1.242419741E1
1.576594267E1,7.174403797E0,-4.863437991E0,-9.576143534E0,1.291617683E1
1.577592967E1,8.147338382E0,-3.506210945E0,-1.043538310E1,1.369561457E1
1.578591567E1,8.382036263E0,-2.845120066E0,-1.182273208E1,1.476923268E1
1.579590167E1,8.647972308E0,-3.656701612E0,-1.189640817E1,1.515530993E1
1.580588767E1,7.389986545E0,-6.485283120E0,-9.542416209E0,1.370140523E1
1.581587367E1,4.302264917E0,-8.966671289E0,-7.651634828E0,1.254823466E1
1.582585879E1,2.410944423E0,-9.317855061E0,-6.085828829E0,1.138737847E1
1.583584579E1,3.000677637E0,-8.950099111E0,-4.995549982E0,1.068006835E1
1.584583179E1,4.563516174E0,-7.532822329E0,-5.054703923E0,1.015475868E1
1.585581779E1,5.825133058E0,-5.445231856E0,-5.789470890E0,9.853968656E0
1.586580379E1,7.691131600E0,-3.959289759E0,-5.996467001E0,1.052554498E1
1.587578979E1,9.843094071E0,-2.346621543E0,-5.858823545E0,1.169268775E1
1.588577579E1,1.112038091E1,-2.368484282E0,-5.062204732E0,1.244582284E1
1.589576279E1,1.092890565E1,-3.887035131E0,-2.839101527E0,1.194196459E1
1.590574879E1,9.789890841E0,-6.303659247E0,9.365093547E-1,1.168140113E1
1.591573479E1,7.344094673E0,-9.085646340E0,5.925614535E0,1.309952685E1
1.592572079E1,3.747846547E0,-9.018325592E0,8.181128857E0,1.273999292E1
1.593570679E1,3.029800279E0,-6.861733881E0,5.612545838E0,9.368231016E0
1.594569279E1,5.234120473E0,-5.005180930E0,3.033458882E0,7.851733953E0
1.595567979E1,7.606701899E0,-4.110414264E0,1.699962761E0,8.811770117E0
1.596566579E1,9.351911584E0,-2.564196145E0,1.668415278E-1,9.698514744E0
1.597565179E1,1.108127941E1,-1.570126214E0,7.761202294E-1,1.121884184E1
1.598563779E1,1.109278790E1,-2.885536020E0,4.292464399E0,1.223934280E1
1.599562379E1,8.233397117E0,-4.987795404E0,9.010656969E0,1.318555536E1
1.600560979E1,3.904875570E0,-6.166682373E0,1.219977809E1,1.421656112E1
1.601559679E1,1.274872229E0,-6.070949419E0,1.217206696E1,1.366165950E1
1.602558279E1,7.022845137E-1,-5.186739315E0,1.036207656E1,1.160896632E1
1.603556879E1,1.516912751E0,-3.461062547E0,8.030899853E0,8.875546783E0
1.604555479E1,2.258602821E0,-1.418183977E0,4.825459741E0,5.513401328E0
1.605554079E1,2.832347993E0,3.274972862E-1,2.122407135E0,3.554442526E0
1.606552679E1,4.028055646E0,1.747486591E0,1.217831764E0,4.556539902E0
1.607551379E1,4.686632808E0,2.439038540E0,1.341840683E0,5.451052421E0
1.608549979E1,4.044002173E0,2.397252583E0,1.779313570E0,5.026602262E0
1.609548579E1,2.254705067E0,1.401807387E0,1.765559750E0,3.188410281E0
1.610547179E1,4.998609245E-1,-2.711652106E-1,1.874208033E0,1.958582974E0
1.611545779E1,-1.118312153E0,-1.631662019E0,2.169664916E0,2.936049875E0
1.612544379E1,-2.009701468E0,-2.090939759E0,2.012777104E0,3.530184236E0
1.613543079E1,-2.112910672E0,-2.052741069E0,1.878321549E0,3.493741439E0
1.614541679E1,-1.392586913E0,-1.647407987E0,1.674032698E0,2.730501210E0
1.615540279E1,-6.228500891E-1,-1.221272265E0,2.723948801E-1,1.397729284E0
1.616538879E1,-3.496687585E-1,-7.616127026E-1,-1.226484473E0,1.485458284E0
1.617537479E1,-2.282273519E-1,-3.617531991E-1,-8.857520145E-1,9.836207259E-1
1.618536079E1,-1.283399516E-1,-3.351787734E-1,3.509001821E-1,5.019431154E-1
1.619534779E1,-1.234984571E-1,-4.460583544E-1,5.118208194E-1,6.900583132E-1
1.620533379E1,-1.255677867E-1,-2.010477394E-1,-3.876546103E-1,4.543826135E-1
1.621531979E1,-2.501339453E-1,-2.810125065E-1,-1.551621239E0,1.596578682E0
1.622530579E1,-4.446140921E-1,-6.104218322E-1,-2.163665088E0,2.291668196E0
1.623529179E1,-6.465646416E-1,-7.257803804E-1,-1.988132259E0,2.213023469E0
1.624527779E1,-5.715068579E-1,-7.702390999E-1,-1.568424382E0,1.838435042E0
1.625526479E1,-3.719846570E-1,-6.109124136E-1,-1.573039590E0,1.728016236E0
1.626525079E1,-7.183304429E-3,-2.971736258E-1,-2.322046280E0,2.340996089E0
1.627523679E1,6.376248336E-1,9.628259182E-2,-3.005934284E0,3.074325403E0
1.628522279E1,9.505771708E-1,3.348174155E-1,-3.126309158E0,3.284738743E0
1.629520879E1,1.439718980E0,5.136246854E-1,-2.991192284E0,3.359141607E0
1.630519479E1,1.613146811E0,6.205293292E-1,-2.791850762E0,3.283554470E0
1.631518179E1,1.337181621E0,3.593973559E-1,-2.891580287E0,3.206003385E0
1.632516779E1,9.846822256E-1,2.487522483E-2,-3.106622168E0,3.259036538E0
1.633515379E1,5.968633085E-1,-8.454664528E-2,-3.352250834E0,3.406021080E0
1.634513979E1,5.421351242E-1,-1.014421749E-1,-3.440384746E0,3.484314596E0
1.635512579E1,1.021701533E0,2.963193476E-2,-3.467897649E0,3.615392950E0
1.636511179E1,1.876663279E0,5.032265818E-1,-3.689168861E0,4.169540615E0
1.637509779E1,3.284036631E0,1.477417733E0,-3.908929737E0,5.314827508E0
1.638508479E1,4.746362700E0,2.343893232E0,-4.119968322E0,6.707900815E0
1.639507079E1,5.756432952E0,2.322854950E0,-4.283836248E0,7.542110344E0
1.640505679E1,5.898368849E0,1.834876152E0,-4.372345551E0,7.568020296E0
1.641504279E1,5.834950533E0,8.457313317E-1,-3.855313693E0,7.044526448E0
1.642502879E1,5.027148335E0,-3.421159101E-1,-2.784241488E0,5.756844999E0
1.643501579E1,4.382055438E0,-7.507392204E-1,-2.248669278E0,4.982221669E0
1.644500179E1,4.704498391E0,-6.187389117E-1,-1.487208896E0,4.972618349E0
1.645498779E1,5.302827011E0,-7.338583088E-1,-5.860503450E-1,5.385348395E0
1.646497379E1,5.188815662E0,-8.237247509E-1,-9.523991632E-1,5.339418939E0
1.647495979E1,5.127280149E0,-9.758125842E-1,-1.107530326E0,5.335525780E0
1.648494579E1,4.155095177E0,-1.783328269E0,3.882258832E-1,4.538259025E0
1.649493179E1,2.631168106E0,-2.363652728E0,1.538891265E0,3.857212225E0
1.650491879E1,2.039406639E0,-2.790607059E0,1.070750316E0,3.618449038E0
1.651490479E1,1.779494688E0,-2.860966605E0,-3.229884982E-2,3.369387849E0
1.652489079E1,1.142393619E0,-3.160290252E0,1.781027170E-1,3.365147580E0
