"Time (s)","Linear Acceleration x (m/s^2)","Linear Acceleration y (m/s^2)","Linear Acceleration z (m/s^2)","Absolute acceleration (m/s^2)"
4.464624973E-3,1.007837784E-1,-1.307846725E-2,-7.521846521E-1,7.590192139E-1
1.445062499E-2,-2.313246220E-1,-1.134462163E-1,-1.067588142E0,1.098237482E0
2.443662501E-2,4.415407956E-2,-8.987433583E-2,-8.962097597E-1,9.017865115E-1
3.442262497E-2,6.342609304E-1,-1.479637921E-3,6.551901618E-1,9.119009076E-1
4.440862499E-2,7.586575198E-1,-1.081847455E-1,1.524398210E0,1.706181431E0
5.439362500E-2,1.551235322E0,2.345973086E-1,1.127233250E0,1.931844125E0
6.437962496E-2,2.336638591E0,8.511747971E-2,1.111186444E0,2.588795126E0
7.436562498E-2,4.243674647E0,-4.055504523E-1,1.805999970E0,4.629782022E0
8.435162500E-2,3.592031114E0,-9.953117327E-1,2.355452008E0,4.409250178E0
9.433762496E-2,3.159848202E0,-1.480947843E0,2.602272921E0,4.353122044E0
1.043236250E-1,2.859266819E0,-1.646712314E0,2.286852474E0,4.014568772E0
1.143096250E-1,2.452508186E0,-1.561875939E0,1.582078800E0,3.310170114E0
1.242956250E-1,1.927713565E0,-1.385902815E0,8.715128750E-1,2.529098830E0
1.342816250E-1,1.393616608E0,-1.303634537E0,2.943691550E-1,1.930876344E0
1.442676250E-1,8.160836095E-1,-1.289149083E0,-1.290107735E-1,1.531189602E0
1.542526250E-1,2.480634463E-1,-1.262908826E0,-4.784133375E-1,1.373081752E0
1.642386250E-1,-1.700376159E-1,-1.250592543E0,-6.246434301E-1,1.408216573E0
1.742246250E-1,-5.408516604E-1,-1.042148369E0,-5.765927660E-1,1.308072230E0
1.842106250E-1,-8.542577416E-1,-7.741871399E-1,-4.394697118E-1,1.233797246E0
1.941966250E-1,-1.035581653E0,-5.582763630E-1,-1.986994976E-1,1.193140121E0
2.041826250E-1,-1.259670931E0,-4.414144957E-1,2.248932695E-1,1.353585828E0
2.141686250E-1,-1.442467171E0,-3.785303226E-1,7.934309113E-1,1.689239283E0
2.241546250E-1,-1.555316094E0,-3.301057291E-1,1.344648516E0,2.082320238E0
2.341406250E-1,-1.587125532E0,-2.383272475E-1,1.681373878E0,2.324389263E0
2.441256250E-1,-1.534828035E0,-5.251121253E-2,2.012552863E0,2.531565435E0
2.541116250E-1,-1.499361749E0,-5.079037696E-2,2.224591321E0,2.683183159E0
2.640976250E-1,-1.391274798E0,-1.750171047E-1,2.187948867E0,2.598729843E0
2.740836250E-1,-1.167069161E0,-1.864454877E-1,2.031775292E0,2.350515515E0
2.840696250E-1,-9.514671171E-1,-6.642787814E-2,1.908437341E0,2.133503087E0
2.940556250E-1,-8.185628289E-1,-1.756907040E-1,1.796313765E0,1.981831343E0
3.040416250E-1,-6.913940746E-1,-2.068013996E-1,2.073302802E0,2.195307973E0
3.140276250E-1,-5.282947648E-1,-2.180368245E-1,2.641246367E0,2.702372622E0
3.240136250E-1,-2.259364128E-1,-4.011891603E-1,3.593909240E0,3.623283542E0
3.339996250E-1,-1.300765747E-1,-8.362129417E-1,4.582546814E0,4.660032973E0
3.439846250E-1,-4.237658447E-1,-1.299215065E0,5.317522234E0,5.490316929E0
3.539706250E-1,-1.046201366E0,-1.721772290E0,5.769395059E0,6.111051994E0
3.639566250E-1,-2.039136937E0,-2.019790839E0,5.366808414E0,6.086071560E0
3.739426250E-1,-2.789166305E0,-2.076413521E0,4.117831457E0,5.389571198E0
3.839286250E-1,-3.408695176E0,-2.072811344E0,2.446010760E0,4.679606640E0
3.939146250E-1,-4.129693118E0,-2.116685634E0,7.554278103E-1,4.701637428E0
4.039009166E-1,-4.246279582E0,-2.330030068E0,-1.803611675E-1,4.846902161E0
4.138869166E-1,-4.284909797E0,-2.570495935E0,-1.930832469E-1,5.000518219E0
4.238729167E-1,-4.574149336E0,-3.067408108E0,-1.827892238E-1,5.510466999E0
4.338589166E-1,-4.996539330E0,-3.532467575E0,-1.075402361E-1,6.120073312E0
4.438439166E-1,-5.178593559E0,-4.105089204E0,-1.594942090E-1,6.610221406E0
4.538299167E-1,-5.216999826E0,-4.430427406E0,-2.976995829E-1,6.850868502E0
4.638159167E-1,-5.009661067E0,-4.535848319E0,-6.407908085E-1,6.788316201E0
4.738019166E-1,-4.651351878E0,-4.813308057E0,-1.356675361E0,6.829610295E0
4.837879167E-1,-4.271164162E0,-5.149527050E0,-2.547411420E0,7.158894962E0
4.937739167E-1,-3.236305810E0,-5.003800988E0,-4.222752140E0,7.303652186E0
5.037599166E-1,-2.088764595E0,-4.399816940E0,-6.219158794E0,7.899320398E0
5.137459167E-1,-2.695455319E-1,-3.799471030E0,-8.609632700E0,9.414584969E0
5.237319167E-1,1.506400627E0,-2.916697587E0,-1.008594531E1,1.060672713E1
5.337179166E-1,2.088352951E0,-2.899929526E0,-1.047552073E1,1.106830357E1
5.437029166E-1,2.085137567E0,-3.526087970E0,-9.848778734E0,1.066674916E1
5.536889167E-1,1.881705333E0,-4.103736451E0,-8.443193461E0,9.574392076E0
5.636749166E-1,1.433388199E0,-4.662570638E0,-7.251135639E0,8.739172429E0
5.736609166E-1,1.119599125E0,-4.760655927E0,-5.971261994E0,7.718375273E0
5.836469167E-1,5.432963812E-1,-4.794411610E0,-4.882349641E0,6.864320189E0
5.936329166E-1,-4.045366913E-1,-4.992923412E0,-4.084660202E0,6.463542613E0
6.036189166E-1,-1.754151247E0,-5.211098816E0,-3.671689487E0,6.611648898E0
6.136049167E-1,-2.449150130E0,-5.499108685E0,-3.920354027E0,7.183850527E0
6.235909166E-1,-2.188519848E0,-5.448930219E0,-4.509192617E0,7.403598971E0
6.335769166E-1,-1.361194966E0,-5.251638147E0,-5.120940013E0,7.460333878E0
6.435619167E-1,-2.670195347E-1,-5.001238153E0,-5.405633926E0,7.369162818E0
6.535479167E-1,1.028046931E0,-4.920823735E0,-4.846468202E0,6.982810377E0
6.635339166E-1,1.693576432E0,-4.977983776E0,-4.013017192E0,6.614592247E0
6.735199167E-1,1.967599177E0,-5.127031642E0,-3.050797631E0,6.282138662E0
6.835059167E-1,2.659404311E0,-5.386990079E0,-1.788881954E0,6.268348431E0
6.934919166E-1,3.588017001E0,-5.438936743E0,-1.681334701E-1,6.517988014E0
7.034779167E-1,3.738657063E0,-5.756925287E0,5.692626965E-1,6.887946386E0
7.134639167E-1,3.813307881E0,-6.199173596E0,5.473265746E-1,7.298673622E0
7.234499166E-1,3.791562670E0,-6.388238052E0,-5.884532583E-1,7.451966863E0
7.334349166E-1,3.280386214E0,-6.395391535E0,-2.759117171E0,7.699006051E0
7.434209167E-1,2.479421750E0,-6.866840839E0,-5.433808150E0,9.100950848E0
7.534069166E-1,2.723628373E0,-8.004673337E0,-8.391632713E0,1.191270105E1
7.633929166E-1,4.201087037E0,-9.131670944E0,-1.044950881E1,1.449926829E1
7.733789167E-1,5.311256942E0,-1.061037390E1,-1.124841739E1,1.634981279E1
7.833649166E-1,6.070496845E0,-1.301124064E1,-1.114160045E1,1.817356805E1
7.933509166E-1,5.812508919E0,-1.589058271E1,-8.844555114E0,1.909246013E1
8.033369167E-1,5.193993956E0,-1.898709504E1,-4.046194879E0,2.009624453E1
8.133229166E-1,4.170347639E0,-2.082390428E1,2.724049373E0,2.141138094E1
8.233089166E-1,3.538815604E0,-2.194616740E1,8.608717611E0,2.383836190E1
8.332939167E-1,3.677440808E0,-2.271185561E1,1.208925051E1,2.599042004E1
8.432799167E-1,4.532164573E0,-2.105398286E1,1.451173441E1,2.596923460E1
8.532659166E-1,3.259244437E0,-1.777343059E1,1.633552658E1,2.435912432E1
8.632519167E-1,1.393882656E0,-1.434932215E1,1.845759107E1,2.342068793E1
8.732379167E-1,-4.264269125E-1,-1.116236859E1,2.138514811E1,2.412684961E1
8.832239166E-1,-3.659661180E0,-8.368654325E0,2.283599901E1,2.459492521E1
8.932099167E-1,-7.516924335E0,-5.600416374E0,2.174494366E1,2.367934521E1
9.031959167E-1,-9.545355020E0,-2.975837495E0,1.769777112E1,2.032684220E1
9.131819166E-1,-9.144217899E0,-5.222632156E-1,1.199934021E1,1.509548427E1
9.231679167E-1,-7.593039295E0,1.006935559E0,6.176560074E0,9.839616827E0
9.331529167E-1,-5.231254168E0,1.752928887E0,1.595972369E0,5.743335935E0
9.431389166E-1,-2.840258106E0,1.501481072E0,-1.311553714E0,3.470113062E0
9.531249166E-1,-7.252769351E-1,1.057132955E0,-2.103211895E0,2.463139662E0
9.631109167E-1,6.975529468E-1,1.060748142E0,-1.304340442E0,1.820184256E0
9.730969166E-1,4.201136738E-1,9.734351063E-1,3.053424785E-1,1.103315655E0
9.830829166E-1,-1.442334439E0,4.894484952E-1,1.966928501E0,2.487709025E0
9.930689167E-1,-3.641076390E0,3.294474788E-2,3.172179688E0,4.829207658E0
1.003054917E0,-4.890409443E0,-1.629468437E-1,3.701367030E0,6.135370737E0
1.013040917E0,-4.356751612E0,2.636596515E-1,3.440498474E0,5.557682140E0
1.023025917E0,-2.786097102E0,7.397371725E-1,2.847862410E0,4.052143686E0
1.033011917E0,-1.567526250E0,6.682538648E-1,2.013275579E0,2.637608828E0
1.042997917E0,-9.283121431E-1,1.790198162E-1,7.774911091E-1,1.224052268E0
1.052983917E0,1.690956295E-2,-2.994774288E-1,-2.546344011E-1,3.934607247E-1
1.062969917E0,9.341991198E-1,-2.612891172E-1,-9.482954411E-1,1.356563394E0
1.072955917E0,1.223542154E0,-3.833080094E-1,-1.548772767E0,2.010641072E0
1.082941917E0,8.219401807E-1,-5.601669871E-1,-2.008140116E0,2.240981802E0
1.092927917E0,2.120919603E-1,-5.861617345E-1,-2.153013947E0,2.241436511E0
1.102913917E0,5.249337852E-2,-5.968823120E-1,-1.968562213E0,2.057732061E0
1.112899917E0,2.586165011E-1,-6.464824882E-1,-1.609737154E0,1.753874512E0
1.122884917E0,3.500920969E-1,-7.661337698E-1,-1.372271201E0,1.610171941E0
1.132870917E0,5.816552854E-1,-9.159349032E-1,-1.183045947E0,1.605259272E0
1.142856917E0,8.818068981E-1,-1.004808927E0,-1.108795664E0,1.736851234E0
1.152842917E0,1.371201307E0,-1.044932228E0,-1.083928771E0,2.036413014E0
1.162828917E0,1.892431465E0,-1.138813953E0,-1.090289372E0,2.463112865E0
1.172814917E0,2.281639096E0,-1.193373153E0,-1.189348222E0,2.836294350E0
1.182800917E0,2.611267108E0,-1.239252015E0,-1.431446047E0,3.225445589E0
1.192786917E0,2.844678016E0,-1.300090540E0,-1.681065145E0,3.550832078E0
1.202772917E0,3.182244208E0,-1.370358577E0,-1.789307485E0,3.899510495E0
1.212758917E0,3.591966210E0,-1.507442455E0,-1.772414879E0,4.279726453E0
1.222743917E0,4.041334088E0,-1.745194482E0,-1.609743147E0,4.687148173E0
1.232729917E0,4.336082874E0,-1.934228825E0,-1.335815127E0,4.932267013E0
1.242715917E0,4.328373905E0,-2.044164373E0,-1.016872975E0,4.893614134E0
1.252701917E0,4.218243937E0,-2.326228062E0,-6.281769025E-1,4.857934245E0
1.262687917E0,4.411581538E0,-2.771842759E0,-1.776477671E-1,5.213129835E0
1.272673917E0,4.988014090E0,-3.077121211E0,3.671665514E-1,5.872288377E0
1.282659917E0,5.450114281E0,-3.036247419E0,1.081913821E0,6.331909789E0
1.292645917E0,5.438257297E0,-3.077165942E0,1.844165039E0,6.514947225E0
1.302631917E0,4.725343714E0,-3.113119009E0,2.548384396E0,6.206016936E0
1.312616917E0,3.317267527E0,-3.353279359E0,2.935188822E0,5.555544953E0
1.322602917E0,1.825030611E0,-3.606054199E0,2.851937335E0,4.946504844E0
1.332588917E0,4.626264399E-1,-3.116257794E0,2.567341070E0,4.064028301E0
1.342574917E0,-5.985215789E-1,-2.580120159E0,2.293292451E0,3.503489458E0
1.352560917E0,-1.296197317E0,-2.077752826E0,2.224006015E0,3.308079057E0
1.362546917E0,-1.629086321E0,-1.594962263E0,2.370824922E0,3.289169754E0
1.372532917E0,-1.787024878E0,-1.502428321E0,2.418985514E0,3.361880380E0
1.382518917E0,-1.797874387E0,-1.571120826E0,2.931411813E0,3.780733814E0
1.392504917E0,-1.600434964E0,-1.804946887E0,3.823609798E0,4.520975251E0
1.402490125E0,-1.057442638E0,-2.227812260E0,4.203035621E0,4.873073038E0
1.412475125E0,-6.480931038E-1,-2.696687912E0,3.951802107E0,4.827928154E0
1.422461125E0,-7.332256401E-1,-3.063346925E0,3.218872336E0,4.503648891E0
1.432447125E0,-1.213886063E0,-3.369708865E0,1.872859665E0,4.041789274E0
1.442433125E0,-1.668795932E0,-3.516961051E0,6.776045859E-1,3.951334316E0
1.452419125E0,-1.760022436E0,-3.724689234E0,-3.449389458E-2,4.119730416E0
1.462405125E0,-1.623368914E0,-4.152560994E0,-9.820743674E-1,4.565474729E0
1.472391125E0,-1.241522343E0,-4.156287425E0,-1.950762119E0,4.756214433E0
1.482377125E0,-7.914861274E-1,-3.725157596E0,-3.006300612E0,4.851916402E0
1.492363125E0,-5.644896144E-1,-2.930833815E0,-3.739361653E0,4.784481262E0
1.502349125E0,-3.718501711E-1,-2.308416420E0,-3.618152088E0,4.307909406E0
1.512334125E0,-5.929462588E-1,-2.144969786E0,-3.069511060E0,3.791355799E0
1.522320125E0,-1.137033184E0,-2.308117628E0,-2.285882421E0,3.441730652E0
1.532306125E0,-1.320753869E0,-2.658513195E0,-1.379722454E0,3.273487015E0
1.542292125E0,-1.267101572E0,-2.847122737E0,-6.191233662E-1,3.177257940E0
1.552278125E0,-1.332986244E0,-2.835014908E0,-4.807937390E-1,3.169435987E0
1.562264125E0,-1.123537810E0,-2.933603057E0,-5.122593606E-1,3.182887644E0
1.572250125E0,-1.245277424E0,-2.865958373E0,-4.416477996E-1,3.155865339E0
1.582236125E0,-1.700579642E0,-2.953208771E0,-8.458532462E-1,3.511250614E0
1.592222125E0,-2.030173740E0,-2.924429945E0,-8.817899412E-1,3.667621766E0
1.602207125E0,-2.424822789E0,-2.967259630E0,-1.136221005E0,3.996922997E0
1.612193125E0,-3.007582614E0,-3.060734389E0,-1.448362334E0,4.528951493E0
1.622179125E0,-3.897366284E0,-3.174671479E0,-1.830523046E0,5.349655837E0
1.632165125E0,-4.738784124E0,-3.148699901E0,-2.165853409E0,6.087799852E0
1.642151125E0,-5.387317523E0,-3.203940302E0,-2.112815070E0,6.614560535E0
1.652137125E0,-5.837564823E0,-3.360186675E0,-1.886086798E0,6.994665179E0
1.662123125E0,-6.467281297E0,-3.530613715E0,-1.800410324E0,7.585014036E0
1.672109125E0,-6.609175095E0,-3.602753738E0,-2.023433947E0,7.794569576E0
1.682095125E0,-6.183137607E0,-3.509784179E0,-2.272351379E0,7.464138024E0
1.692080125E0,-5.798803046E0,-3.314248025E0,-2.450813078E0,7.114551390E0
1.702066125E0,-5.616383366E0,-3.319345335E0,-2.569213348E0,7.011609858E0
1.712052125E0,-5.160243827E0,-3.338624190E0,-2.661367221E0,6.697566970E0
1.722038125E0,-3.843348536E0,-3.209584326E0,-2.805171888E0,5.739490295E0
1.732024125E0,-2.139066437E0,-2.871986852E0,-2.833948668E0,4.566747065E0
1.742010125E0,-9.187279719E-1,-2.442518072E0,-2.857598609E0,3.869861164E0
1.751996125E0,-5.839222509E-1,-2.425460136E0,-2.684974185E0,3.665093237E0
1.761982125E0,-7.711799169E-1,-3.070059236E0,-2.891642852E0,4.287374554E0
1.771968125E0,6.368377984E-2,-3.249161206E0,-3.176523292E0,4.544381629E0
1.781954125E0,1.423518099E0,-3.792490039E0,-3.788000547E0,5.546019529E0
1.791939125E0,3.320512147E0,-3.841587355E0,-4.158809913E0,6.563481867E0
1.801925125E0,4.627401683E0,-3.316425528E0,-4.184026616E0,7.065239086E0
1.811911125E0,4.882228019E0,-3.076218985E0,-4.095279038E0,7.076057099E0
1.821897125E0,4.030864064E0,-3.073856710E0,-3.882311750E0,6.385045395E0
1.831883125E0,2.281962447E0,-3.266482413E0,-3.713724536E0,5.446926646E0
1.841869125E0,4.087665671E-1,-3.536134948E0,-3.507762212E0,4.997573032E0
1.851855125E0,-1.015302925E0,-3.963071738E0,-3.368824766E0,5.299599790E0
1.861841125E0,-9.858978617E-1,-4.495527089E0,-2.616254783E0,5.294010530E0
1.871827125E0,-2.326852691E-1,-4.499638267E0,-1.404911090E0,4.719604023E0
1.881812125E0,1.446145070E-1,-4.662583210E0,-8.950759846E-1,4.749921743E0
1.891798125E0,4.363344347E-1,-5.031559474E0,-8.370903164E-1,5.119345533E0
1.901784125E0,2.559653735E-1,-5.365176457E0,-9.893098582E-1,5.461627109E0
1.911770125E0,1.181845075E-1,-6.391516585E0,-1.836044134E0,6.651053292E0
1.921756125E0,2.168334090E0,-7.350423700E0,-2.293829371E0,7.999503389E0
1.931742125E0,5.756051129E0,-7.173157171E0,-1.748602093E0,9.361833030E0
1.941728125E0,8.867597237E0,-6.934117733E0,-1.495133042E0,1.135568986E1
1.951714125E0,1.070767624E1,-7.632235520E0,-2.010711282E0,1.330219190E1
1.961700125E0,1.118851500E1,-8.503917380E0,-2.478711314E0,1.427037100E1
1.971686125E0,9.924384402E0,-9.092547224E0,-2.879143260E0,1.376434839E1
1.981671125E0,7.070788797E0,-9.530140564E0,-3.822291543E0,1.246713865E1
1.991657125E0,3.993337803E0,-9.978059503E0,-5.325032398E0,1.199434818E1
2.001643125E0,2.969091563E0,-9.921067861E0,-6.126912535E0,1.203254543E1
2.011629125E0,3.210232490E0,-9.890773437E0,-5.174305211E0,1.161492257E1
2.021615125E0,2.435802106E0,-1.100547260E1,-4.110165757E0,1.199779236E1
2.031601125E0,6.066076934E-1,-1.334632001E1,-3.785095650E0,1.388593461E1
2.041587125E0,-1.680320209E-1,-1.554919653E1,-3.532305315E0,1.594625123E1
2.051573125E0,1.122214000E0,-1.670279371E1,-2.301222152E0,1.689787872E1
2.061559125E0,3.228452999E0,-1.786078799E1,-5.621937051E-1,1.815892943E1
2.071545125E0,6.031408208E0,-1.909097784E1,1.914532479E0,2.011240300E1
2.081530125E0,6.900478701E0,-1.886791475E1,6.169611243E0,2.101615846E1
2.091516125E0,3.844858287E0,-1.781203858E1,1.178461876E1,2.170089613E1
2.101502125E0,-1.142513779E0,-1.610618475E1,1.791049166E1,2.411431601E1
2.111488125E0,-6.844114466E0,-1.380765831E1,2.311428672E1,2.778063321E1
2.121474125E0,-1.176127667E1,-1.083301950E1,2.628717304E1,3.076844824E1
2.131460125E0,-1.362803302E1,-7.391830757E0,2.578878912E1,3.009026571E1
2.141446125E0,-1.104200834E1,-4.438228761E0,2.165343473E1,2.470819820E1
2.151432125E0,-6.484715356E0,-1.590374830E0,1.570195504E1,1.706259703E1
2.161418125E0,-1.010704089E0,9.826430091E-1,9.280393120E0,9.386842201E0
2.171403125E0,3.270176391E0,2.845475869E0,3.173544720E0,5.372352617E0
2.181389125E0,3.637389135E0,3.523625415E0,-1.719856450E0,5.348312070E0
2.191375125E0,2.160815156E-1,2.296887904E0,-4.345350126E0,4.919802128E0
2.201361125E0,-3.860347561E0,5.523274058E-1,-4.383519580E0,5.867077021E0
2.211347125E0,-5.910593623E0,-2.514757352E-1,-3.111235913E0,6.684171297E0
2.221333125E0,-5.531486472E0,6.620743811E-2,-1.281847373E0,5.678455662E0
2.231319125E0,-4.152541698E0,3.488633046E-1,4.715156695E-1,4.193761460E0
2.241305125E0,-3.084145471E0,5.225446129E-1,1.995397132E0,3.710339051E0
2.251291125E0,-2.176126674E0,1.473863064E-1,2.904177236E0,3.632009836E0
2.261276125E0,-7.239852852E-1,-4.886938389E-1,2.683419702E0,2.822005964E0
2.271262125E0,-3.314383096E-1,-8.322460444E-1,1.905735050E0,2.105780357E0
2.281248125E0,-3.201982069E-1,-7.188143731E-1,1.141668564E0,1.386588657E0
2.291234125E0,-9.019675130E-1,-7.501350568E-1,-4.495383248E-1,1.256317119E0
2.301220125E0,-8.705182636E-1,-2.802962226E-1,-1.304670517E0,1.593277496E0
2.311206125E0,-8.423826313E-1,2.934488033E-1,-1.553912178E0,1.791748798E0
2.321192125E0,-1.204783117E0,3.326856668E-1,-1.356576251E0,1.844581588E0
2.331178125E0,-1.658681418E0,-8.413734019E-2,-8.583909921E-1,1.869528880E0
2.341164125E0,-1.777637174E0,-2.489085151E-1,-3.718665433E-1,1.833094132E0
2.351150125E0,-1.632346144E0,-3.656028597E-1,1.210826799E-1,1.677164392E0
2.361135125E0,-1.386523350E0,-3.892821828E-1,3.589871737E-1,1.484203291E0
2.371121125E0,-8.411845368E-1,-3.240328840E-1,2.707828027E-1,9.412290163E-1
2.381107125E0,-6.998766303E-2,-5.118113907E-1,2.142010510E-2,5.170183687E-1
2.391093125E0,7.038006967E-1,-5.920863526E-1,-3.387280333E-1,9.801215997E-1
2.401079792E0,1.261401122E0,-3.919757026E-1,-5.103309488E-1,1.416056291E0
2.411065792E0,1.203379201E0,-3.132666251E-1,-5.883798757E-1,1.375662879E0
2.421051792E0,6.955789268E-1,-5.356260768E-1,-6.935242152E-1,1.118794519E0
2.431037792E0,4.570429337E-1,-8.333170351E-1,-8.461453146E-1,1.272504388E0
2.441023792E0,5.318867093E-1,-7.613908008E-1,-1.038524995E0,1.393252880E0
2.451008792E0,6.922547847E-1,-6.748397300E-1,-1.308766931E0,1.627112850E0
2.460994792E0,7.805728841E-1,-6.033953793E-1,-1.309131943E0,1.639270098E0
2.470980792E0,7.332648164E-1,-5.688688134E-1,-1.000592792E0,1.364725230E0
2.480966792E0,7.382296872E-1,-6.999502321E-1,-6.842077003E-1,1.225990855E0
2.490952792E0,9.968929660E-1,-8.225675869E-1,-4.507723796E-1,1.368798290E0
2.500938792E0,1.492181953E0,-9.820316827E-1,-3.683453500E-1,1.823916528E0
2.510924792E0,2.132339800E0,-1.092834811E0,-2.805153470E-1,2.412436488E0
2.520910792E0,2.775635263E0,-1.275181839E0,-1.811129732E-1,3.059908781E0
2.530896792E0,3.255398723E0,-1.345950983E0,-7.577289820E-2,3.523484983E0
2.540882792E0,3.685452079E0,-1.444908091E0,1.860491927E-1,3.962944703E0
2.550867792E0,3.779554828E0,-1.612266951E0,4.597022474E-1,4.134702599E0
2.560853792E0,3.531601310E0,-1.640295726E0,5.528216417E-1,3.932987369E0
2.570839792E0,3.473745450E0,-1.574503148E0,8.271002023E-1,3.902571249E0
2.580825792E0,3.698174450E0,-1.737314482E0,1.360117471E0,4.306352913E0
2.590811792E0,4.115753356E0,-1.755845478E0,2.049799919E0,4.921798324E0
2.600797792E0,4.553210456E0,-1.811276351E0,2.665869577E0,5.578468256E0
2.610783792E0,4.797952684E0,-2.217203364E0,3.080621939E0,6.117726068E0
2.620769792E0,4.848131735E0,-2.629537025E0,3.327603650E0,6.441412294E0
2.630755792E0,4.487384841E0,-2.860887960E0,3.434197222E0,6.333641385E0
2.640741792E0,3.573946261E0,-3.044057837E0,3.366037399E0,5.776641564E0
2.650726792E0,2.303377290E0,-3.153811829E0,3.274614428E0,5.096584704E0
2.660712792E0,1.244945303E0,-3.307764632E0,3.043007970E0,4.663806725E0
2.670698792E0,4.065446252E-1,-3.274973739E0,2.562669729E0,4.178278074E0
2.680684792E0,-3.899198216E-1,-3.077393983E0,2.065183359E0,3.726576646E0
2.690670792E0,-1.116777844E0,-2.608767715E0,1.406137251E0,3.167030741E0
2.700656792E0,-1.814075267E0,-2.070450531E0,7.924017283E-1,2.864530498E0
2.710642792E0,-2.237220138E0,-1.456706311E0,8.251730331E-1,2.794290206E0
2.720628792E0,-1.947718059E0,-1.231575059E0,1.496756814E0,2.747847107E0
2.730614792E0,-1.645170842E0,-1.498147282E0,2.241805524E0,3.158595318E0
2.740599792E0,-1.717098026E0,-1.898196235E0,2.811656451E0,3.802234419E0
2.750585792E0,-1.871958609E0,-2.411782914E0,3.040369121E0,4.308685444E0
2.760571792E0,-2.288173944E0,-2.688743300E0,2.837384784E0,4.529440688E0
2.770557792E0,-2.907553126E0,-2.733330073E0,2.264604988E0,4.588397784E0
2.780543792E0,-3.197337041E0,-2.566245301E0,1.653399628E0,4.420668437E0
2.790529792E0,-3.381589238E0,-2.366737134E0,1.222994855E0,4.304916590E0
2.800515792E0,-3.555455026E0,-2.435960566E0,7.908020031E-1,4.381841180E0
2.810501792E0,-3.473229725E0,-2.585497259E0,5.914353383E-1,4.370116310E0
2.820487792E0,-3.292754245E0,-2.731858914E0,5.761922318E-1,4.317091744E0
2.830473792E0,-3.376472340E0,-2.900585584E0,3.283702755E-1,4.463383159E0
2.840458792E0,-3.347159078E0,-3.277914011E0,-2.063447320E-1,4.689431982E0
2.850444792E0,-2.986847802E0,-3.496171276E0,-7.099759412E-1,4.652799074E0
2.860430792E0,-2.508788221E0,-3.379167906E0,-1.349013462E0,4.419573667E0
2.870416792E0,-2.091381224E0,-2.937799603E0,-2.026222776E0,4.136438162E0
2.880402792E0,-2.187464426E0,-2.329419034E0,-2.418725313E0,4.007670868E0
2.890388792E0,-2.809742657E0,-2.020579921E0,-2.902605797E0,4.516914592E0
2.900374792E0,-3.512033018E0,-2.061506630E0,-3.332666169E0,5.262209545E0
2.910360792E0,-3.897540531E0,-2.506991372E0,-3.847462052E0,6.023187874E0
2.920346792E0,-3.785971563E0,-2.592316574E0,-4.370714178E0,6.336941559E0
2.930331792E0,-3.609709001E0,-2.478070459E0,-4.858574277E0,6.540380438E0
2.940317792E0,-3.457241099E0,-2.346312517E0,-5.207508041E0,6.676513944E0
2.950303792E0,-3.478767623E0,-2.183804361E0,-5.210231674E0,6.634556485E0
2.960289792E0,-3.554407205E0,-2.147137933E0,-4.831272458E0,6.370651885E0
2.970275792E0,-3.643718746E0,-2.168581427E0,-3.959457282E0,5.801442379E0
2.980261792E0,-3.979961713E0,-2.223403167E0,-2.625564719E0,5.260913131E0
2.990247792E0,-4.608552014E0,-2.256884616E0,-9.827579069E-1,5.224757692E0
3.000233792E0,-5.251729948E0,-2.410476792E0,4.021808481E-1,5.792479197E0
3.010219792E0,-5.482518380E0,-2.510913684E0,1.333901333E0,6.175920019E0
3.020204792E0,-5.339897189E0,-2.668330378E0,1.902693329E0,6.265359598E0
3.030190792E0,-4.929740154E0,-3.153014269E0,1.701172550E0,6.094081146E0
3.040176792E0,-3.935285477E0,-3.394208407E0,9.608255126E-1,5.284913259E0
3.050162792E0,-2.672467575E0,-3.219777485E0,3.952410802E-2,4.184568335E0
3.060148792E0,-1.221603802E0,-3.135906778E0,-1.233114046E0,3.584242936E0
3.070134792E0,3.012842184E-1,-2.965003189E0,-1.999464748E0,3.588854326E0
3.080120792E0,1.403596635E0,-3.373165739E0,-2.534058133E0,4.446322215E0
3.090106792E0,2.399399680E0,-3.598539650E0,-2.598306754E0,5.045572755E0
3.100092792E0,2.883965458E0,-3.572124561E0,-2.458239042E0,5.207712533E0
3.110078792E0,2.851799925E0,-4.059329479E0,-3.118422434E0,5.859648207E0
3.120063792E0,3.216384346E0,-4.462893486E0,-4.042364953E0,6.826658109E0
3.130049792E0,4.356354586E0,-4.524536003E0,-4.466513790E0,7.707074462E0
3.140035792E0,5.308742055E0,-4.115320370E0,-4.202133688E0,7.923164234E0
3.150021792E0,5.242521168E0,-4.173717390E0,-4.077348844E0,7.844024391E0
3.160007792E0,4.874377547E0,-4.755724093E0,-3.940828053E0,7.868074342E0
3.169993792E0,4.258311982E0,-4.956913335E0,-3.581213180E0,7.451798346E0
3.179979792E0,3.251037285E0,-5.306970933E0,-3.856974303E0,7.321846398E0
3.189965792E0,2.192381349E0,-5.524882042E0,-3.900678731E0,7.109581713E0
3.199951792E0,1.095762951E0,-5.826489612E0,-3.602409337E0,6.937292748E0
3.209936792E0,6.595787895E-1,-6.424125922E0,-3.144888101E0,7.182949200E0
3.219922792E0,6.074052536E-1,-6.646580903E0,-2.320438880E0,7.066145727E0
3.229908792E0,2.032568175E-1,-7.176930379E0,-1.925539570E0,7.433528478E0
3.239894792E0,6.423306727E-1,-7.836070628E0,-1.344930936E0,7.976555071E0
3.249880792E0,1.695715343E0,-8.191622270E0,-4.265380096E-1,8.376160255E0
3.259866792E0,2.742725379E0,-8.467752936E0,-2.828064322E-1,8.905355791E0
3.269852792E0,4.162115929E0,-8.468808943E0,-4.692986977E-1,9.447972015E0
3.279838792E0,5.296984473E0,-8.176882024E0,-3.958471441E-1,9.750699416E0
3.289824792E0,6.302365258E0,-8.164323374E0,3.009551664E-1,1.031826332E1
3.299810792E0,7.250843863E0,-8.583810226E0,1.635813543E0,1.135484129E1
3.309795792E0,8.331272491E0,-9.053743932E0,3.914025293E0,1.291123443E1
3.319781792E0,9.438782498E0,-9.760760012E0,6.345808901E0,1.498773971E1
3.329767792E0,8.974533455E0,-1.030408271E1,8.116501336E0,1.589320500E1
3.339753792E0,7.371748495E0,-1.155752460E1,8.926441276E0,1.635849640E1
3.349739792E0,5.347296256E0,-1.233575860E1,9.172496204E0,1.627572438E1
3.359725792E0,2.908903248E0,-1.186955074E1,9.340935191E0,1.538184069E1
3.369711792E0,1.189364594E0,-1.140803000E1,9.144555869E0,1.466903674E1
3.379697792E0,-1.059433615E-1,-9.875349652E0,9.475051607E0,1.368613743E1
3.389683792E0,-1.647208596E0,-8.633123304E0,9.925970167E0,1.325779008E1
3.399669000E0,-3.834610457E0,-7.437030904E0,9.685922084E0,1.279963877E1
3.409655000E0,-6.123825790E0,-6.204374694E0,8.913771529E0,1.246799224E1
3.419641000E0,-8.079648090E0,-4.485790598E0,8.136859002E0,1.231306237E1
3.429627000E0,-9.136314803E0,-2.821325991E0,7.031566844E0,1.186908003E1
3.439613000E0,-8.978955120E0,-1.767383496E0,4.974724538E0,1.041600517E1
3.449599000E0,-7.743012775E0,-8.565650529E-1,2.192597404E0,8.092924929E0
3.459585000E0,-6.369512343E0,8.622657958E-1,-3.530094190E-1,6.437297993E0
3.469571000E0,-5.226912026E0,2.166727860E0,-2.487516636E0,6.180862234E0
3.479557000E0,-4.455975353E0,2.526641525E0,-3.943427725E0,6.464538341E0
3.489543000E0,-4.276124940E0,2.116466948E0,-4.015852507E0,6.236324896E0
3.499528000E0,-4.468529325E0,1.610774011E0,-2.722060150E0,5.474665168E0
3.509514000E0,-4.700179052E0,1.093427427E0,-8.262447546E-1,4.895911259E0
3.519500000E0,-4.835222252E0,6.994095840E-1,1.114607796E0,5.011077582E0
3.529486000E0,-4.534956034E0,4.411225735E-1,2.759400469E0,5.326791370E0
3.539472000E0,-3.756453064E0,4.695314169E-2,3.613779248E0,5.212729100E0
3.549458000E0,-2.394110874E0,-6.212084833E-1,3.382084497E0,4.190007447E0
3.559444000E0,-8.002171898E-1,-8.199281538E-1,2.489775123E0,2.740731634E0
3.569430000E0,4.379798412E-1,-6.072136112E-1,1.130761606E0,1.356155051E0
3.579416000E0,9.424793619E-1,-2.356622328E-1,-1.301954193E-1,9.801810459E-1
3.589401000E0,7.306446791E-1,-1.401178519E-1,-1.064180531E0,1.298443246E0
3.599387000E0,7.136351287E-2,-3.658313397E-1,-1.503887640E0,1.549388058E0
3.609373000E0,-4.619592726E-1,-7.194254802E-1,-1.420853523E0,1.658253336E0
3.619359000E0,-6.557664049E-1,-6.553983226E-1,-1.075439637E0,1.419910896E0
3.629345000E0,-7.237671840E-1,-4.467762463E-1,-4.976259725E-1,9.854336910E-1
3.639331000E0,-7.781421965E-1,-4.297009148E-1,3.128859714E-1,9.423618123E-1
3.649317000E0,-7.873135543E-1,-7.941957271E-1,1.104029013E0,1.571460960E0
3.659303000E0,-5.369468898E-1,-8.997420627E-1,1.512446648E0,1.839930054E0
3.669289000E0,-4.455461383E-2,-8.609867173E-1,1.379257893E0,1.626540985E0
3.679275000E0,8.947578961E-1,-1.237265423E0,6.990685451E-1,1.679319580E0
3.689260000E0,1.828578701E0,-1.133538303E0,-1.600966184E-1,2.157368786E0
3.699246000E0,2.120539534E0,-8.062197952E-1,-9.380698304E-1,2.454924292E0
3.709232000E0,1.859840840E0,-6.309962106E-1,-1.287886816E0,2.348577573E0
3.719218000E0,1.333525942E0,-5.890707973E-1,-1.218812342E0,1.900210348E0
3.729204000E0,7.566975331E-1,-6.748383413E-1,-9.399283679E-1,1.382556791E0
3.739190000E0,3.420469129E-1,-7.460984315E-1,-7.465856507E-1,1.109526518E0
3.749176000E0,1.745428956E-1,-6.542815045E-1,-5.866838908E-1,8.959617722E-1
3.759162000E0,4.575878942E-1,-6.334754301E-1,-4.382207465E-1,8.959437617E-1
3.769148000E0,1.188515579E0,-8.619601326E-1,-4.164574099E-1,1.526100038E0
3.779133000E0,2.033527118E0,-1.121332532E0,-3.662765320E-1,2.350909970E0
3.789119000E0,2.846339210E0,-1.247701972E0,-2.397906594E-1,3.117034917E0
3.799105000E0,3.406030015E0,-1.171718721E0,-3.053416014E-3,3.601940386E0
3.809091000E0,3.504313524E0,-1.174406247E0,3.242316163E-1,3.710063267E0
3.819077000E0,3.391717785E0,-1.446593990E0,5.594474872E-1,3.729526135E0
3.829063000E0,3.566133211E0,-1.843806166E0,6.772677132E-1,4.071316595E0
3.839049000E0,3.874837546E0,-1.837641154E0,8.369085411E-1,4.369405787E0
3.849035000E0,4.118317360E0,-1.782020539E0,1.036788518E0,4.605547254E0
3.859021000E0,4.329715841E0,-1.797986069E0,1.408094898E0,4.895091869E0
3.869006000E0,4.375046965E0,-1.871733199E0,2.105831448E0,5.203743576E0
3.878992000E0,4.392504997E0,-2.177816227E0,2.789901885E0,5.640969437E0
3.888978000E0,4.317718524E0,-2.322527360E0,3.395233716E0,5.963592757E0
3.898964000E0,3.934576210E0,-2.241946150E0,3.867762415E0,5.955400792E0
3.908950000E0,3.125382375E0,-2.137842615E0,4.099256022E0,5.580527391E0
3.918936000E0,2.071566764E0,-1.980561869E0,3.958949744E0,4.887463273E0
3.928922000E0,9.589766961E-1,-1.805801165E0,3.619173304E0,4.156797993E0
3.938908000E0,-1.536999106E-2,-1.601653524E0,3.232885773E0,3.607919161E0
3.948894000E0,-5.206881219E-1,-1.354085629E0,2.983832978E0,3.317819051E0
3.958880000E0,-4.486159265E-1,-1.076812710E0,3.090314283E0,3.303153680E0
3.968865000E0,-2.336646777E-1,-9.492188627E-1,3.398263158E0,3.536072415E0
3.978851000E0,-3.650498593E-1,-1.087712797E0,3.449801102E0,3.635589109E0
3.988837000E0,-8.218483794E-1,-1.400898438E0,3.127573911E0,3.524155184E0
3.998823000E0,-1.475899796E0,-1.628624683E0,2.624373057E0,3.423161186E0
4.008809000E0,-1.974941525E0,-1.697421269E0,2.332343227E0,3.495920182E0
4.018795000E0,-2.008126228E0,-1.590234497E0,2.383361353E0,3.498832383E0
4.028781000E0,-1.704636440E0,-1.472351121E0,2.684816895E0,3.504546329E0
4.038767000E0,-1.622566091E0,-1.525353792E0,2.875451912E0,3.636983449E0
4.048753000E0,-1.857273327E0,-1.731114387E0,2.725159759E0,3.724609636E0
4.058738000E0,-2.243073785E0,-2.015551608E0,2.531456707E0,3.937270800E0
4.068724000E0,-2.780791923E0,-2.289956760E0,2.263069362E0,4.254196589E0
4.078710000E0,-3.176630881E0,-2.463495689E0,2.043353949E0,4.509444547E0
4.088696000E0,-3.331041813E0,-2.632529338E0,1.783052865E0,4.604924298E0
4.098682000E0,-3.413641920E0,-2.859366222E0,1.323366989E0,4.645452243E0
4.108668000E0,-3.469164741E0,-3.133914632E0,7.724084169E-1,4.738474404E0
4.118654000E0,-3.383901227E0,-3.375257288E0,1.557704097E-1,4.781988467E0
4.128640000E0,-3.215493815E0,-3.313893684E0,-3.921330658E-1,4.634119135E0
4.138626000E0,-3.132825295E0,-3.022650304E0,-7.713233198E-1,4.421080055E0
4.148612000E0,-3.114704774E0,-2.820545973E0,-1.239380507E0,4.380973574E0
4.158597000E0,-3.092806367E0,-2.961058658E0,-1.923604141E0,4.693993235E0
4.168583000E0,-3.274871120E0,-3.053045008E0,-2.653175272E0,5.204344694E0
4.178569000E0,-3.711981481E0,-2.805006705E0,-3.245034533E0,5.672487836E0
4.188555000E0,-3.936145018E0,-2.405474353E0,-3.828370893E0,5.994661638E0
4.198541000E0,-4.437396410E0,-2.059582896E0,-3.918212192E0,6.267755211E0
4.208527000E0,-5.249941285E0,-2.084540274E0,-3.854420239E0,6.838402374E0
4.218513000E0,-6.172623144E0,-2.499054069E0,-3.365112954E0,7.461268854E0
4.228499000E0,-6.841713599E0,-3.378400459E0,-3.058237043E0,8.220428726E0
4.238485000E0,-6.650251785E0,-4.150961781E0,-3.244295445E0,8.484208003E0
4.248470000E0,-5.778109165E0,-4.026214943E0,-3.108240092E0,7.697928862E0
4.258456000E0,-4.587512562E0,-3.535847558E0,-2.800486515E0,6.433522688E0
4.268442000E0,-3.678851157E0,-3.073958452E0,-2.350389635E0,5.339241316E0
4.278428000E0,-3.404148965E0,-2.929012992E0,-1.341458421E0,4.686881477E0
4.288414000E0,-3.508828159E0,-2.826545216E0,1.744924633E-1,4.509066481E0
4.298400000E0,-3.725444110E0,-3.011422480E0,1.056545091E0,4.905495561E0
4.308386000E0,-3.564198952E0,-3.311916448E0,1.210436059E0,5.013727175E0
4.318372000E0,-3.076139463E0,-3.658144997E0,9.240106389E-1,4.868105841E0
4.328358000E0,-2.277334961E0,-4.121192436E0,2.873602438E-1,4.717314652E0
4.338344000E0,-7.068868572E-1,-4.180770009E0,-1.805362916E-1,4.243951019E0
4.348329000E0,8.266957211E-1,-3.822902577E0,-4.742042193E-1,3.939908574E0
4.358315000E0,1.964850985E0,-4.317010426E0,-9.634708661E-1,4.839989104E0
4.368301000E0,2.919410695E0,-4.867683654E0,-1.590945518E0,5.894778249E0
4.378287000E0,3.452972631E0,-5.032331892E0,-2.619749079E0,6.641571312E0
4.388273000E0,3.921780748E0,-5.211761305E0,-4.374606085E0,7.853661473E0
4.398259000E0,5.016219304E0,-4.981115545E0,-6.080587385E0,9.324564929E0
4.408244417E0,6.241803306E0,-4.559376345E0,-7.297900500E0,1.063049260E1
4.418230417E0,7.181992314E0,-4.436093650E0,-7.504583201E0,1.129507457E1
4.428216417E0,6.922612166E0,-4.515023460E0,-7.399928566E0,1.109355393E1
4.438201417E0,5.774679188E0,-5.046969227E0,-6.990366193E0,1.037709196E1
4.448187417E0,4.295509629E0,-5.465759676E0,-5.907915598E0,9.123014771E0
4.458173417E0,2.967743195E0,-5.886587879E0,-4.476544688E0,7.968617752E0
4.468159417E0,1.406588071E0,-6.389799843E0,-3.351498297E0,7.351229344E0
4.478145417E0,-2.562185580E-1,-7.019691149E0,-2.214233564E0,7.365089412E0
4.488131417E0,-1.229820310E0,-7.915251868E0,-1.044684014E0,8.078058852E0
4.498117417E0,-3.005498081E-1,-8.517469472E0,6.582608271E-1,8.548153234E0
4.508103417E0,1.070491869E0,-8.773189262E0,1.788651574E0,9.017431847E0
4.518089417E0,2.480411099E0,-8.909946281E0,1.514366874E0,9.371920239E0
4.528075417E0,4.053170022E0,-8.696720545E0,2.557463953E-1,9.598257222E0
4.538060417E0,4.953494468E0,-8.528662212E0,-1.252194096E0,9.941990576E0
4.548046417E0,5.286294594E0,-8.297131183E0,-2.638480342E0,1.018571917E1
4.558032417E0,5.499423265E0,-8.134917727E0,-3.326007360E0,1.036739445E1
4.568018417E0,5.477578653E0,-8.330849152E0,-2.268982798E0,1.022522364E1
4.578004417E0,5.130980267E0,-9.195126683E0,7.261016849E-1,1.055483476E1
4.587990417E0,4.107191863E0,-1.065508872E1,4.357391005E0,1.222238917E1
4.597976417E0,2.648118015E0,-1.151149064E1,7.009457352E0,1.373533538E1
4.607962417E0,1.647319109E0,-1.174602714E1,8.312801721E0,1.448397343E1
4.617948417E0,1.122138571E0,-1.170455284E1,8.084622316E0,1.426943832E1
4.627933417E0,3.154227859E-1,-1.082749154E1,7.414941877E0,1.312689710E1
4.637919417E0,-4.886249149E-1,-9.790170922E0,7.038706879E0,1.206770879E1
4.647905417E0,-1.268355800E0,-8.646566638E0,7.508216661E0,1.152150852E1
4.657891417E0,-2.364844975E0,-7.733735583E0,8.381920488E0,1.164730651E1
4.667877417E0,-4.022540553E0,-6.473055423E0,9.348355308E0,1.206121992E1
4.677863417E0,-5.808664375E0,-5.172575605E0,1.036746535E1,1.296072753E1
4.687849417E0,-7.478016962E0,-3.870730462E0,1.117708370E1,1.399394483E1
4.697835417E0,-8.613776622E0,-2.502201625E0,1.088449721E1,1.410427028E1
4.707821417E0,-8.816612440E0,-1.386495576E0,9.473388659E0,1.301538004E1
4.717806417E0,-7.974584734E0,-6.004496617E-1,7.420929426E0,1.090984578E1
4.727792417E0,-6.071420705E0,2.619222976E-1,4.915990427E0,7.816502705E0
4.737778417E0,-3.446945906E0,9.211264267E-1,2.340065206E0,4.266827292E0
4.747764417E0,-8.668579066E-1,1.042119937E0,-1.492121726E-2,1.355610281E0
4.757750417E0,5.371147048E-1,1.151691130E0,-1.813876316E0,2.214730673E0
4.767736417E0,5.497733420E-1,1.010897048E0,-2.615441727E0,2.857393742E0
4.777722417E0,-2.621341860E-1,3.199749894E-1,-2.513265142E0,2.547076756E0
4.787708417E0,-1.480268251E0,-3.153791510E-1,-1.839088340E0,2.381785890E0
4.797694417E0,-2.484198341E0,-5.347654398E-1,-1.027715979E0,2.741061036E0
4.807680417E0,-2.818907583E0,-6.474653321E-1,-1.866469243E-1,2.898325101E0
4.817665417E0,-2.619078988E0,-4.647870227E-1,5.598840550E-1,2.718284730E0
4.827651417E0,-2.156128027E0,-2.789453330E-1,1.159561190E0,2.463996900E0
4.837637417E0,-1.573840073E0,-2.182963312E-1,1.648423648E0,2.289525363E0
4.847623417E0,-9.745700508E-1,-3.236758750E-1,1.818669863E0,2.088567195E0
4.857609417E0,-5.457089424E-1,-4.377735076E-1,1.830991262E0,1.960095124E0
4.867595417E0,-3.899706924E-1,-7.688234159E-1,1.477144814E0,1.710299210E0
4.877581417E0,-1.590647310E-1,-9.220687786E-1,8.079368301E-1,1.236233935E0
4.887567417E0,2.699174148E-1,-9.016994912E-1,1.584713848E-1,9.544792104E-1
4.897553417E0,5.449932432E-1,-7.237775628E-1,-3.412948148E-1,9.681703085E-1
4.907539417E0,2.340044010E-1,-5.370672693E-1,-5.641838050E-1,8.133281486E-1
4.917524417E0,-6.189792323E-1,-4.509643145E-1,-3.959161413E-1,8.621216236E-1
4.927510417E0,-1.619352461E0,-5.037135087E-1,1.394078538E-2,1.695943406E0
4.937496417E0,-2.411409277E0,-6.274467315E-1,2.818171564E-1,2.507589482E0
4.947482417E0,-2.630826629E0,-6.700957377E-1,3.813028530E-1,2.741472034E0
4.957468417E0,-2.052471512E0,-6.972734499E-1,3.704950058E-1,2.199112576E0
4.967454417E0,-1.039201664E0,-7.918660502E-1,2.215920047E-1,1.325177330E0
4.977440417E0,1.152632385E-1,-8.759056688E-1,-2.298306584E-2,8.837559483E-1
4.987426417E0,1.051211261E0,-9.846034344E-1,-2.382283565E-1,1.459877319E0
4.997412417E0,1.488697012E0,-1.016246811E0,-4.254783480E-1,1.852028131E0
5.007397417E0,1.250085590E0,-9.394228030E-1,-6.339842840E-1,1.687354514E0
5.017383417E0,5.600708735E-1,-1.012576660E0,-9.219177011E-1,1.479500971E0
5.027369417E0,-2.067341566E-2,-1.202756911E0,-1.142860519E0,1.659271449E0
5.037355417E0,-2.470331669E-1,-1.325199507E0,-1.380684321E0,1.929629061E0
5.047341417E0,-2.786280119E-1,-1.168279169E0,-1.732813003E0,2.108352601E0
5.057327417E0,-1.065859705E-1,-9.996554831E-1,-2.004487506E0,2.242463337E0
5.067313417E0,4.455040383E-1,-1.125301769E0,-2.091567165E0,2.416491491E0
5.077299417E0,1.489869379E0,-1.482885026E0,-2.162338355E0,3.015686643E0
5.087285417E0,2.811830113E0,-1.624500934E0,-2.242417143E0,3.946368776E0
5.097270417E0,4.096621267E0,-1.803119486E0,-2.160228095E0,4.969922646E0
5.107256417E0,4.979295892E0,-1.842283697E0,-1.722983834E0,5.581762274E0
5.117242417E0,5.069952292E0,-1.917826654E0,-1.000980754E0,5.512208069E0
5.127228417E0,4.867531042E0,-2.290798759E0,1.401630217E-1,5.381474062E0
5.137214417E0,4.705437453E0,-2.552742619E0,1.496977254E0,5.558648883E0
5.147200417E0,4.387011538E0,-2.479431983E0,2.741041966E0,5.736441776E0
5.157186417E0,3.725279219E0,-2.155882298E0,3.752804986E0,5.710435973E0
5.167172417E0,3.280946378E0,-2.161435107E0,4.524059747E0,5.991955228E0
5.177158417E0,3.277566102E0,-2.133422851E0,5.109996364E0,6.434749059E0
5.187144417E0,3.583783616E0,-2.103027123E0,5.531642593E0,6.918475112E0
5.197129417E0,4.441682419E0,-2.215215311E0,5.966547968E0,7.761147869E0
5.207115417E0,5.676911988E0,-2.439584232E0,6.201210766E0,8.754079958E0
5.217101417E0,6.461528222E0,-2.653396004E0,6.336336411E0,9.430854491E0
5.227087417E0,5.860908662E0,-2.793873021E0,6.586155192E0,9.248427813E0
5.237073417E0,4.080834954E0,-3.091443673E0,6.280448724E0,8.102732507E0
5.247059417E0,1.744996846E0,-3.258389866E0,5.350042108E0,6.502697061E0
5.257045417E0,-2.767931557E-1,-3.182273152E0,4.485809602E0,5.506901547E0
5.267031417E0,-1.667082698E0,-2.911358787E0,3.689402457E0,4.986668748E0
5.277017417E0,-2.281356676E0,-2.547114381E0,3.116471218E0,4.626529240E0
5.287003417E0,-2.427083908E0,-2.118085750E0,2.667879850E0,4.182655428E0
5.296988417E0,-2.354800628E0,-1.623208700E0,2.209062871E0,3.613841619E0
5.306974417E0,-1.810387428E0,-1.144901197E0,2.369323357E0,3.194056130E0
5.316960417E0,-1.412946333E0,-1.068942357E0,2.764686352E0,3.283678688E0
5.326946417E0,-1.217856907E0,-1.536452976E0,3.073186619E0,3.645317433E0
5.336932417E0,-9.658518523E-1,-2.126910660E0,3.622055397E0,4.309977269E0
5.346918417E0,-7.913943261E-1,-2.665632765E0,3.962185593E0,4.840538987E0
5.356904417E0,-6.881506240E-1,-3.081187364E0,3.844016873E0,4.974307246E0
5.366890417E0,-6.050926799E-1,-3.378114823E0,3.462954998E0,4.875433747E0
5.376876417E0,-7.874959874E-1,-3.666999435E0,2.681676940E0,4.610686066E0
5.386861417E0,-1.384675046E0,-3.793765901E0,1.571530423E0,4.333554265E0
5.396847417E0,-1.936284998E0,-3.867052563E0,5.555533147E-1,4.360267722E0
5.406834042E0,-2.513842555E0,-3.727636816E0,-3.317680925E-1,4.508297981E0
5.416820042E0,-3.008899407E0,-3.446790370E0,-9.379810989E-1,4.670508328E0
5.426806042E0,-3.171088890E0,-3.356105318E0,-1.416584471E0,4.829695561E0
5.436792042E0,-3.262955080E0,-3.089824287E0,-2.002605872E0,4.919788639E0
5.446778042E0,-3.481887698E0,-2.630851772E0,-2.364783579E0,4.963579793E0
5.456764042E0,-3.673627254E0,-2.221346117E0,-2.550947231E0,4.993720812E0
5.466750042E0,-3.693702500E0,-1.971218603E0,-2.399857517E0,4.825811542E0
5.476736042E0,-3.744673848E0,-1.968132443E0,-2.162423140E0,4.751021088E0
5.486721042E0,-3.802694600E0,-2.088890310E0,-2.123702878E0,4.830534428E0
5.496707042E0,-3.860049353E0,-2.085708840E0,-1.925771120E0,4.791529691E0
5.506693042E0,-3.938636516E0,-1.978083819E0,-1.757480067E0,4.744935130E0
5.516679042E0,-4.183794481E0,-1.982275688E0,-1.611755759E0,4.902173986E0
5.526665042E0,-4.527855175E0,-2.279536145E0,-1.523231252E0,5.293202336E0
5.536651042E0,-4.804716743E0,-2.580742595E0,-1.427742712E0,5.637728672E0
5.546637042E0,-5.144615974E0,-2.701873223E0,-1.251939157E0,5.944286676E0
5.556623042E0,-5.421787444E0,-3.098307135E0,-1.368477674E0,6.392809815E0
5.566609042E0,-5.273765180E0,-3.580224416E0,-1.719449776E0,6.602053740E0
5.576594042E0,-4.732718807E0,-3.372942668E0,-1.695458651E0,6.053920183E0
5.586580042E0,-3.970070563E0,-3.005672328E0,-1.854971863E0,5.313797798E0
5.596566042E0,-3.139075384E0,-2.761024241E0,-1.828690968E0,4.563020905E0
5.606552042E0,-2.502020654E0,-2.577856410E0,-1.301652769E0,3.820962046E0
5.616538042E0,-2.272917389E0,-2.626268432E0,-4.985371149E-1,3.508842913E0
5.626524042E0,-2.353842269E0,-3.113427157E0,3.512013137E-2,3.903233982E0
5.636510042E0,-1.742608843E0,-3.480851279E0,3.231171370E-3,3.892688229E0
5.646496042E0,-7.100034231E-1,-3.365412624E0,-1.128167635E-1,3.441341978E0
5.656482042E0,7.309797245E-1,-3.562418475E0,-8.459042631E-1,3.733726124E0
5.666468042E0,2.212033256E0,-3.118108146E0,-1.633147505E0,4.157265966E0
5.676453042E0,2.866601567E0,-2.931764984E0,-2.783416738E0,4.955810650E0
5.686439042E0,2.656771894E0,-2.977450157E0,-3.759527530E0,5.482489725E0
5.696425042E0,1.840268455E0,-3.216968775E0,-4.594267266E0,5.902776279E0
5.706411042E0,1.048436172E0,-3.468079498E0,-5.083535959E0,6.242526064E0
5.716397042E0,2.221368921E-1,-3.242028187E0,-4.903855700E0,5.882847295E0
5.726383042E0,-1.022279238E0,-3.163685145E0,-4.855016831E0,5.884313636E0
5.736369042E0,-1.956471341E0,-3.317128656E0,-4.061368403E0,5.596948806E0
5.746355042E0,-2.406716886E0,-3.852909903E0,-3.114854463E0,5.508132098E0
5.756341042E0,-2.218683879E0,-4.613293521E0,-3.226109435E0,6.050852614E0
5.766326042E0,1.022151768E-2,-4.894463902E0,-3.105738946E0,5.796679719E0
5.776312042E0,3.158578187E0,-4.336754719E0,-1.780288301E0,5.652741290E0
5.786298042E0,4.622861905E0,-4.300639976E0,-1.177062637E0,6.422758975E0
5.796284042E0,4.843539916E0,-4.860652378E0,-1.089690471E0,6.947895061E0
5.806270042E0,5.174237384E0,-5.975638635E0,-1.298492934E0,8.010435287E0
5.816256042E0,6.335097971E0,-6.296900450E0,-1.016332108E0,8.989847192E0
5.826242042E0,7.383866265E0,-5.950424856E0,4.310362726E-1,9.492883084E0
5.836228042E0,6.736922139E0,-6.201363378E0,1.295394495E0,9.247760515E0
5.846214042E0,5.840646306E0,-6.958054479E0,1.509202613E0,9.208982785E0
5.856200042E0,5.949821423E0,-7.249654539E0,1.631607056E0,9.519454159E0
5.866185042E0,5.844744034E0,-7.578394359E0,6.989457536E-1,9.595916791E0
5.876171042E0,5.621414895E0,-8.045224362E0,-1.363186236E0,9.908794940E0
5.886157042E0,6.456128318E0,-8.552042888E0,-3.224397370E0,1.118998520E1
5.896143042E0,7.536529464E0,-9.259439038E0,-4.270246149E0,1.267956978E1
5.906129042E0,8.631195477E0,-1.062906160E1,-4.163119019E0,1.431104628E1
5.916115042E0,9.867018539E0,-1.235008427E1,-1.836728843E0,1.591402555E1
5.926101042E0,9.554014746E0,-1.394752956E1,1.442171887E0,1.696739928E1
5.936087042E0,7.343995271E0,-1.503182553E1,4.683898650E0,1.737322515E1
5.946073042E0,4.216335406E0,-1.526122818E1,8.633703348E0,1.803395140E1
5.956059042E0,1.300636523E0,-1.531375021E1,1.136266497E1,1.911315662E1
5.966044042E0,-1.366016580E0,-1.474694802E1,1.323862249E1,1.986453127E1
5.976030042E0,-3.692503821E0,-1.335791621E1,1.400973341E1,1.970637308E1
5.986016042E0,-5.588328425E0,-1.196564505E1,1.319495548E1,1.866850091E1
5.996002042E0,-6.441952329E0,-9.770067610E0,1.105217782E1,1.609669548E1
6.005988042E0,-5.937458655E0,-6.836266333E0,9.070925975E0,1.281677224E1
6.015974042E0,-4.762302795E0,-4.263026592E0,7.498392169E0,9.852857898E0
6.025960042E0,-3.849543076E0,-1.303253152E0,6.820770042E0,7.939795630E0
6.035946042E0,-3.126805587E0,9.949981758E-1,6.406998843E0,7.198372644E0
6.045932042E0,-2.915056273E0,1.614098738E0,5.458410310E0,6.395084904E0
6.055917042E0,-3.608060086E0,1.441192186E0,4.508349156E0,5.951499359E0
6.065903042E0,-4.237660201E0,4.373027337E-1,3.584822667E0,5.567759982E0
6.075889042E0,-4.047736205E0,-3.079794265E-1,2.760981556E0,4.909382738E0
6.085875042E0,-3.543220312E0,-5.136964600E-1,2.069764945E0,4.135483183E0
6.095861042E0,-2.720272656E0,-8.153964154E-1,1.261932634E0,3.107608181E0
6.105847042E0,-1.816728149E0,-6.299484627E-1,7.162140432E-1,2.051901262E0
6.115833042E0,-1.030070068E0,-4.870775954E-1,5.398392150E-1,1.260839128E0
6.125819042E0,-3.412207013E-1,-7.861213070E-1,6.772885439E-1,1.092308586E0
6.135805042E0,-2.147074199E-1,-8.945054425E-1,1.028014187E0,1.379511664E0
6.145791042E0,-4.913017702E-1,-8.720163202E-1,1.356600809E0,1.685869404E0
6.155776042E0,-7.878064746E-1,-1.112297122E0,1.523539985E0,2.044264664E0
6.165762042E0,-1.102479063E0,-1.085439399E0,1.536608512E0,2.180551420E0
6.175748042E0,-1.233404068E0,-9.353419581E-1,1.413600929E0,2.096286660E0
6.185734042E0,-1.215591111E0,-9.632220671E-1,1.186995010E0,1.953052906E0
6.195720042E0,-1.347702516E0,-1.026525193E0,6.354005527E-1,1.809361740E0
6.205706042E0,-1.458683839E0,-7.739091048E-1,1.432006502E-1,1.657468030E0
6.215692042E0,-1.309604983E0,-3.522514737E-1,1.713555783E-2,1.356259540E0
6.225678042E0,-9.170205849E-1,-5.603082705E-1,3.804666281E-2,1.075323049E0
6.235664042E0,-1.549909759E-1,-1.103139798E0,1.272168477E-1,1.121215297E0
6.245649042E0,5.883649653E-1,-1.206488750E0,9.703936771E-2,1.345810193E0
6.255635042E0,1.144453300E0,-1.182708124E0,7.061243802E-3,1.645789089E0
6.265621042E0,1.224100564E0,-1.063623145E0,-4.047559619E-2,1.622145079E0
6.275607042E0,8.146095264E-1,-8.992394945E-1,-2.784736454E-3,1.213354072E0
6.285593042E0,2.028001499E-1,-7.315118212E-1,2.209206712E-1,7.905968557E-1
6.295579042E0,-3.668163031E-1,-5.839747296E-1,5.330356872E-1,8.716121436E-1
6.305565042E0,-5.490284067E-1,-6.666694155E-1,6.593696053E-1,1.086576540E0
6.315551042E0,-2.723638898E-1,-7.184000248E-1,6.543635117E-1,1.009193881E0
6.325537042E0,2.841834515E-1,-7.110022737E-1,3.782455632E-1,8.540223495E-1
6.335523042E0,1.006202318E0,-7.801909147E-1,3.665867999E-2,1.273767964E0
6.345508042E0,1.686666192E0,-8.971713343E-1,-2.205490807E-1,1.923122759E0
6.355494042E0,2.027077054E0,-1.003220238E0,-4.156282747E-1,2.299617162E0
6.365480042E0,2.194731930E0,-1.122077322E0,-3.957056415E-1,2.496495286E0
6.375466042E0,2.299012343E0,-1.109982210E0,-1.565738171E-3,2.552943539E0
6.385452042E0,2.430524409E0,-1.310699582E0,4.084724522E-1,2.791456975E0
6.395438042E0,2.598343007E0,-1.355298049E0,8.282580972E-1,3.045362156E0
6.405423750E0,2.626760475E0,-1.304756033E0,1.076376507E0,3.124235152E0
6.415409750E0,2.544645687E0,-1.280223894E0,1.377190025E0,3.163992297E0
6.425395750E0,2.610677124E0,-1.318511900E0,1.734037410E0,3.400146234E0
6.435381750E0,2.930563674E0,-1.354753381E0,2.340186682E0,3.987484655E0
6.445366750E0,3.752771657E0,-1.610100119E0,3.128222367E0,5.144073550E0
6.455352750E0,4.657043558E0,-2.004805595E0,4.100649998E0,6.520937860E0
6.465338750E0,5.745598646E0,-2.647326887E0,5.125207311E0,8.141743881E0
6.475324750E0,6.805349765E0,-3.704398227E0,5.885205013E0,9.729901833E0
6.485310750E0,7.293833762E0,-4.551783151E0,5.882331106E0,1.041732019E1
6.495296750E0,6.878228291E0,-4.988618107E0,4.639615347E0,9.681031227E0
6.505282750E0,5.782786937E0,-5.001288439E0,2.167775096E0,7.946871062E0
6.515268750E0,4.547348623E0,-4.199060099E0,-8.239370048E-2,6.190094825E0
6.525254750E0,2.945648906E0,-3.191408549E0,-1.929537896E0,4.752373354E0
6.535239750E0,8.549254936E-1,-2.193364266E0,-2.900965068E0,3.735952721E0
6.545225750E0,-1.367363194E0,-1.555504375E0,-2.838600713E0,3.513819855E0
6.555211750E0,-3.486598799E0,-1.288870171E0,-1.929855984E0,4.188305341E0
6.565197750E0,-4.661678061E0,-1.278539895E0,-6.129396433E-1,4.872535440E0
6.575183750E0,-4.956635007E0,-1.352041150E0,6.438562113E-1,5.177914318E0
6.585169750E0,-4.556562665E0,-1.332776914E0,1.629858446E0,5.019461742E0
6.595155750E0,-3.754651537E0,-1.272132517E0,2.403087812E0,4.635791231E0
6.605141750E0,-2.961398381E0,-1.292442235E0,2.906577226E0,4.346087720E0
6.615127750E0,-2.292006209E0,-1.568676397E0,3.312744998E0,4.322998673E0
6.625113750E0,-2.009257665E0,-2.011495394E0,3.310896986E0,4.364088557E0
6.635098750E0,-2.041913779E0,-2.348485635E0,2.844144166E0,4.215916590E0
6.645084750E0,-2.120667003E0,-2.537524363E0,2.148006830E0,3.943373146E0
6.655070750E0,-2.334687960E0,-2.490133849E0,1.189565154E0,3.614775196E0
6.665056750E0,-2.782610992E0,-2.454620200E0,3.099053532E-2,3.710666338E0
6.675042750E0,-3.208736773E0,-2.454829531E0,-1.018154319E0,4.166391474E0
6.685028750E0,-3.635632047E0,-2.238677264E0,-2.063155837E0,4.741951948E0
6.695014750E0,-3.937181144E0,-1.958734798E0,-2.947820854E0,5.294117977E0
6.705000750E0,-4.353198259E0,-1.747492438E0,-3.611200041E0,5.919867451E0
6.714986750E0,-4.629525391E0,-1.733361472E0,-4.198631791E0,6.485796501E0
6.724971750E0,-4.586351890E0,-1.658582016E0,-4.649559999E0,6.738243550E0
6.734957750E0,-4.125125273E0,-1.616555153E0,-5.078212069E0,6.739298695E0
6.744943750E0,-3.560232201E0,-1.667400786E0,-5.148998462E0,6.478245431E0
6.754929750E0,-3.693263374E0,-1.888023250E0,-4.819920381E0,6.358966789E0
6.764915750E0,-4.267726584E0,-2.393323254E0,-4.221731509E0,6.462546195E0
6.774901750E0,-4.634607791E0,-2.729387296E0,-3.603530541E0,6.474146797E0
6.784887750E0,-4.828407907E0,-2.944071912E0,-3.063439311E0,6.431620538E0
6.794873750E0,-4.640826305E0,-3.137899217E0,-2.470136957E0,6.122520467E0
6.804859750E0,-4.122855384E0,-3.035628491E0,-1.268578579E0,5.274681836E0
6.814845750E0,-3.558449385E0,-2.846125495E0,-2.164244547E-2,4.556694060E0
6.824830750E0,-3.357827323E0,-2.679680116E0,9.137243633E-1,4.392104514E0
6.834816750E0,-3.488780395E0,-2.535368202E0,1.481283912E0,4.560030986E0
6.844802750E0,-3.615173809E0,-2.620743105E0,1.529912866E0,4.720001003E0
6.854788750E0,-3.348913828E0,-2.841972217E0,1.237451511E0,4.563257186E0
6.864774750E0,-2.609916986E0,-2.925390642E0,4.204840949E-1,3.942890305E0
6.874760750E0,-1.396278260E0,-2.820805589E0,-9.116420236E-1,3.276832057E0
6.884746750E0,-7.378893793E-2,-2.364970251E0,-2.174592073E0,3.213624088E0
6.894732750E0,1.311451533E0,-2.259450082E0,-3.087839157E0,4.044721308E0
6.904718750E0,2.290211114E0,-2.135646108E0,-3.375295880E0,4.604201725E0
6.914704750E0,2.463582813E0,-2.235969126E0,-3.598906855E0,4.901115052E0
6.924689750E0,2.589892611E0,-2.398214450E0,-3.702396140E0,5.115340992E0
6.934675750E0,2.540293604E0,-2.613339361E0,-4.008503434E0,5.417631770E0
6.944661750E0,2.717388809E0,-2.938898295E0,-4.414536721E0,5.958981422E0
6.954647750E0,3.170819918E0,-2.968867907E0,-4.512336080E0,6.263341959E0
6.964633750E0,3.532553236E0,-2.717332676E0,-4.295224285E0,6.189651113E0
6.974619750E0,3.557861155E0,-2.655855928E0,-3.884182566E0,5.899052544E0
6.984605750E0,3.004725080E0,-2.699118307E0,-3.285465106E0,5.206524119E0
6.994591750E0,1.886864916E0,-2.947175029E0,-2.611806806E0,4.366650278E0
7.004577750E0,3.146018368E-1,-3.311515621E0,-1.922709517E0,3.842124661E0
7.014562750E0,-1.270932668E0,-3.737361320E0,-1.364908533E0,4.176854652E0
7.024548750E0,-2.049395292E0,-4.161045304E0,-3.273907207E-1,4.649892877E0
7.034534750E0,-2.430443718E0,-4.348139248E0,9.203763020E-1,5.065615868E0
7.044520750E0,-2.675440884E0,-4.752442051E0,1.503651266E0,5.657265815E0
7.054506750E0,-2.610107605E0,-5.194789177E0,1.744438437E0,6.069725016E0
7.064492750E0,-2.021350876E0,-5.302931092E0,1.794434470E0,5.952052805E0
7.074478750E0,-6.981271434E-1,-5.384729546E0,1.799661881E0,5.720268934E0
7.084464750E0,8.300233716E-1,-5.254662327E0,1.443366473E0,5.512143117E0
7.094450750E0,2.223373931E0,-5.330244021E0,3.662192293E-1,5.786968937E0
7.104436750E0,3.421223420E0,-5.051421297E0,-6.209099829E-1,6.132467367E0
7.114421750E0,4.210456030E0,-4.776350731E0,-1.515711733E0,6.545139291E0
7.124407750E0,4.752032745E0,-4.482660876E0,-1.803654213E0,6.777110908E0
7.134393750E0,4.810397898E0,-4.553087080E0,-1.909527408E0,6.893244869E0
7.144379750E0,4.670928941E0,-4.903426514E0,-1.719854404E0,6.987064328E0
7.154365750E0,5.187468463E0,-5.316139952E0,-5.252311161E-1,7.446276974E0
7.164351750E0,6.174987758E0,-5.986416807E0,1.324834056E0,8.701887455E0
7.174337750E0,6.851107736E0,-6.600914149E0,2.616231686E0,9.866833993E0
7.184323750E0,7.584043354E0,-7.224624363E0,2.737180173E0,1.082612886E1
7.194309750E0,8.881104890E0,-7.940004886E0,2.364264346E0,1.214526441E1
7.204294750E0,9.777432763E0,-8.255039417E0,2.034322924E0,1.295694165E1
7.214280750E0,9.627819471E0,-9.018169472E0,1.481608433E0,1.327469216E1
7.224266750E0,8.116542851E0,-9.514712101E0,1.464528131E0,1.259177735E1
7.234252750E0,5.417531841E0,-1.038598349E1,2.063026906E0,1.189430049E1
7.244238750E0,2.184859491E0,-1.120193670E1,3.244570849E0,1.186525334E1
7.254224750E0,-1.078304919E0,-1.164840904E1,4.459655591E0,1.251945297E1
7.264210750E0,-4.065065598E0,-1.140116420E1,5.580825278E0,1.332880018E1
7.274196750E0,-6.636364648E0,-1.025608759E1,6.485750898E0,1.383089415E1
7.284182750E0,-8.776908676E0,-8.792559918E0,6.792146752E0,1.415897218E1
7.294168750E0,-9.854347622E0,-7.215067089E0,7.033511628E0,1.409381588E1
7.304153750E0,-8.843241829E0,-6.386066980E0,7.065577759E0,1.299642899E1
7.314139750E0,-6.852098839E0,-5.031508604E0,6.728212126E0,1.084141023E1
7.324125750E0,-4.895036929E0,-3.400706710E0,5.975850888E0,8.440200620E0
7.334111750E0,-2.616983346E0,-2.100190493E0,5.107897214E0,6.111465936E0
7.344097750E0,-1.184218460E0,-5.518278343E-1,4.315832212E0,4.509245502E0
7.354083750E0,-8.474890047E-1,5.210053334E-1,3.511691833E0,3.649885436E0
7.364069750E0,-1.450249815E0,6.791942976E-1,2.753798836E0,3.185582749E0
7.374055750E0,-2.721233938E0,4.204285464E-1,1.930853227E0,3.363044528E0
7.384041750E0,-4.016409162E0,-7.553067729E-2,1.292800377E0,4.220021357E0
7.394026750E0,-4.881048635E0,-6.246193103E-1,8.299559824E-1,4.990351891E0
7.404012292E0,-5.272437277E0,-7.337267464E-1,2.799578150E-1,5.330602795E0
7.413998292E0,-5.057668462E0,-4.452995320E-1,-9.155921102E-2,5.078059180E0
7.423984292E0,-4.194319469E0,-9.408886269E-2,-3.398868053E-1,4.209120046E0
7.433970292E0,-3.121818497E0,1.805710825E-1,-4.480181949E-1,3.158967702E0
7.443956292E0,-1.904647468E0,2.974887908E-2,-2.991203101E-1,1.928221962E0
7.453942292E0,-7.084954262E-1,-5.239438516E-1,2.350010589E-2,8.814959918E-1
7.463928292E0,-4.825531662E-2,-6.163767828E-1,4.379834957E-1,7.576796530E-1
7.473914292E0,2.250757027E-1,-5.501924412E-1,8.956343937E-1,1.074956632E0
7.483900292E0,2.057190800E-1,-7.972998677E-1,1.343278513E0,1.575564845E0
7.493885292E0,-5.239982307E-2,-1.168991141E0,1.524327021E0,1.921681268E0
7.503871292E0,-3.741814560E-1,-1.307636518E0,1.408877256E0,1.958279895E0
7.513857292E0,-5.422011977E-1,-1.085794033E0,1.312036840E0,1.787280473E0
7.523843292E0,-6.350175601E-1,-8.541073219E-1,1.178064265E0,1.587634099E0
7.533829292E0,-6.741383564E-1,-8.765330020E-1,9.697641512E-1,1.470787250E0
7.543815292E0,-5.362797225E-1,-1.071137841E0,7.429285828E-1,1.409565569E0
7.553801292E0,-2.725124091E-1,-1.195431227E0,5.887690079E-1,1.360135205E0
7.563787292E0,2.561904913E-1,-1.396014989E0,3.560544296E-1,1.463306590E0
7.573773292E0,7.530248970E-1,-1.391594494E0,1.142019689E-1,1.586387034E0
7.583759292E0,8.730787593E-1,-1.185423863E0,-5.868974604E-2,1.473411260E0
7.593744292E0,7.373765785E-1,-9.901824090E-1,-7.461288370E-2,1.236831639E0
7.603730292E0,4.028544474E-1,-1.010615358E0,7.037949957E-2,1.090224005E0
7.613716292E0,2.108739853E-1,-1.113287641E0,3.388636887E-1,1.182668934E0
7.623702292E0,2.625358897E-1,-1.071950457E0,6.757135233E-1,1.294060138E0
7.633688292E0,4.148991269E-1,-1.044816746E0,8.727798935E-1,1.423210476E0
7.643674292E0,6.219800234E-1,-1.005707059E0,9.451415261E-1,1.513802610E0
7.653660292E0,9.305826169E-1,-9.718961191E-1,9.669259127E-1,1.656958598E0
7.663646292E0,1.423239772E0,-1.230860822E0,9.121889576E-1,2.091104614E0
7.673632292E0,1.793052188E0,-1.298270009E0,7.737936223E-1,2.345058152E0
7.683618292E0,1.733732185E0,-1.082218607E0,5.872908318E-1,2.126484170E0
7.693603292E0,1.451628588E0,-9.606085078E-1,4.522610442E-1,1.798481114E0
7.703589292E0,1.048810394E0,-9.342676784E-1,5.354704678E-1,1.503192589E0
7.713575292E0,6.809661502E-1,-1.025225503E0,6.687998486E-1,1.400748181E0
7.723561292E0,5.545557797E-1,-1.098490531E0,8.066117048E-1,1.471338167E0
7.733547292E0,7.867873049E-1,-1.026391000E0,1.160516771E0,1.737616737E0
7.743533292E0,1.444399676E0,-1.085105816E0,1.751396039E0,2.516174306E0
7.753519292E0,2.008718551E0,-1.095293566E0,2.323585267E0,3.260930344E0
7.763505292E0,2.358361582E0,-1.136972957E0,2.801805062E0,3.834669277E0
7.773491292E0,2.586764935E0,-1.190410369E0,3.431525629E0,4.459125230E0
7.783476292E0,2.631923566E0,-1.322308351E0,4.050630577E0,5.008306011E0
7.793462292E0,2.696876777E0,-1.475275021E0,4.751457379E0,5.659145515E0
7.803448292E0,2.922654730E0,-1.607334386E0,5.654078026E0,6.564604545E0
7.813434292E0,3.186043729E0,-1.972232803E0,6.388032814E0,7.405912510E0
7.823420292E0,3.087720459E0,-2.460974954E0,6.451815412E0,7.564148165E0
7.833406292E0,2.852843068E0,-2.836664992E0,6.082159116E0,7.292327568E0
7.843392292E0,2.773526757E0,-3.045019997E0,5.662972226E0,7.002417575E0
7.853378292E0,2.747253463E0,-3.263161486E0,5.298418211E0,6.802121729E0
7.863364292E0,2.395513036E0,-3.548969587E0,4.845506335E0,6.466266270E0
7.873350292E0,1.970004137E0,-4.066661011E0,4.231933146E0,6.190953580E0
7.883335292E0,1.284657837E0,-4.634294965E0,3.314145991E0,5.840428001E0
7.893321292E0,7.041357422E-1,-5.060527750E0,2.158655779E0,5.546579399E0
7.903307292E0,4.888933021E-1,-5.098110729E0,8.347850516E-1,5.189086215E0
7.913293292E0,7.379431736E-1,-4.714797091E0,-8.942597133E-1,4.855262318E0
7.923279292E0,1.145526849E0,-3.939718836E0,-2.234279281E0,4.671789825E0
7.933265292E0,1.522511460E0,-3.251303918E0,-2.927674565E0,4.632525949E0
7.943251292E0,1.416777429E0,-2.692063934E0,-2.807267823E0,4.139470876E0
7.953237292E0,4.722790235E-1,-2.527008730E0,-2.089306339E0,3.312706081E0
7.963223292E0,-1.039722067E0,-2.596304668E0,-1.447054604E0,3.148934253E0
7.973209292E0,-2.174577747E0,-2.417038391E0,-7.209786469E-1,3.330266231E0
7.983194292E0,-2.795904636E0,-2.047766258E0,-2.015798360E-1,3.471464217E0
7.993180292E0,-3.041834434E0,-1.541813704E0,2.683877832E-1,3.420815432E0
8.003166292E0,-3.109510692E0,-1.237670197E0,5.008201602E-1,3.384036805E0
8.013152292E0,-3.250342051E0,-1.086929562E0,3.958018282E-1,3.450043247E0
8.023138292E0,-3.359127159E0,-9.823591268E-1,7.937273651E-2,3.500723462E0
8.033124292E0,-3.459316276E0,-8.043049783E-1,-3.592295408E-1,3.569708876E0
8.043110292E0,-3.515274714E0,-7.559204382E-1,-1.141906253E0,3.772601479E0
8.053096292E0,-3.289437704E0,-6.167754167E-1,-2.301525769E0,4.061752478E0
8.063082292E0,-2.851747885E0,-1.539472479E-1,-3.300230202E0,4.364365377E0
8.073068292E0,-2.624142677E0,1.302461439E-1,-3.884416455E0,4.689539427E0
8.083053292E0,-2.665761403E0,1.696131080E-1,-4.033336852E0,4.837650114E0
8.093039292E0,-2.975958533E0,5.491880357E-2,-3.678553534E0,4.731923643E0
8.103025292E0,-3.548174658E0,-2.281811589E-1,-2.870384130E0,4.569542111E0
8.113011292E0,-4.279944926E0,-6.407063162E-1,-1.886861408E0,4.721088765E0
8.122997292E0,-4.605137824E0,-1.158290151E0,-1.494030988E0,4.978057759E0
8.132983292E0,-4.401386333E0,-1.316895291E0,-1.347693307E0,4.787764834E0
8.142969292E0,-3.947802027E0,-1.225909692E0,-1.032599573E0,4.260781301E0
8.152955292E0,-3.644013446E0,-1.252118374E0,-4.633292753E-1,3.880890160E0
8.162941292E0,-3.679467453E0,-1.381956675E0,2.991545163E-1,3.941798881E0
8.172926292E0,-3.740328782E0,-1.511700251E0,1.031343737E0,4.164008520E0
8.182912292E0,-3.616235079E0,-1.530355208E0,1.535886966E0,4.216407473E0
8.192898292E0,-3.514390031E0,-1.663383749E0,1.620210101E0,4.212227861E0
8.202884292E0,-3.192787322E0,-1.708198856E0,1.477003312E0,3.910674239E0
8.212870292E0,-2.588448933E0,-1.569513134E0,9.874019118E-1,3.184085723E0
8.222856292E0,-1.780568967E0,-1.310747675E0,-7.416549861E-2,2.212235484E0
8.232842292E0,-8.284171414E-1,-8.921450678E-1,-1.186080798E0,1.699701574E0
8.242828292E0,-2.334553474E-1,-6.138818490E-1,-1.883106326E0,1.994352466E0
8.252814292E0,5.894519627E-2,-8.650590107E-1,-2.702777202E0,2.838451379E0
8.262800292E0,3.855969751E-1,-1.022082406E0,-3.424055226E0,3.594091215E0
8.272785292E0,9.924420655E-1,-1.482979458E0,-4.261225065E0,4.619762806E0
8.282771292E0,2.001747501E0,-1.691553880E0,-4.427250322E0,5.144792804E0
8.292757292E0,2.580732363E0,-1.754117772E0,-4.169626093E0,5.207964136E0
8.302743292E0,2.834044855E0,-2.461569616E0,-4.240200816E0,5.663076741E0
8.312729292E0,3.179007189E0,-2.729715325E0,-3.856857358E0,5.694978590E0
8.322715292E0,2.942578533E0,-2.628502945E0,-3.306439068E0,5.147847654E0
8.332701292E0,2.162644749E0,-2.714624538E0,-2.994604719E0,4.584089453E0
8.342687292E0,1.244120845E0,-2.855532203E0,-2.546665900E0,4.023357807E0
8.352673292E0,1.096756393E-1,-2.878039890E0,-2.153635359E0,3.596288033E0
8.362659292E0,-9.588521504E-1,-3.000203428E0,-2.254854755E0,3.873627244E0
8.372644292E0,-1.755334139E0,-3.140186063E0,-2.544545699E0,4.406436118E0
8.382630292E0,-2.210901820E0,-3.309562651E0,-2.669756221E0,4.792586992E0
8.392616292E0,-2.096515664E0,-3.864344718E0,-2.787502187E0,5.205641793E0
8.402602292E0,-1.041710705E0,-4.498718500E0,-2.629454872E0,5.313912142E0
8.412588292E0,7.819370395E-1,-4.831913897E0,-1.921754082E0,5.258512736E0
8.422574292E0,2.662711496E0,-5.038156303E0,-1.010001327E0,5.787327028E0
8.432560292E0,4.320337492E0,-5.406491713E0,-2.184051991E-2,6.920689683E0
8.442546292E0,5.728423619E0,-5.688660799E0,1.192296388E0,8.160715013E0
8.452532292E0,6.446483921E0,-5.645084424E0,2.181085113E0,8.842017042E0
8.462518292E0,6.309781281E0,-5.482471603E0,2.716331048E0,8.789157471E0
8.472503292E0,5.429228611E0,-5.556973316E0,2.687537019E0,8.220664874E0
8.482489292E0,4.657938182E0,-5.689430292E0,2.473804915E0,7.757945341E0
8.492475292E0,3.943524789E0,-5.724125916E0,2.167206162E0,7.281056778E0
8.502461292E0,3.651715983E0,-5.719500183E0,1.802212582E0,7.021088389E0
8.512447292E0,3.393327523E0,-5.766954432E0,1.359061464E0,6.827846158E0
8.522433292E0,3.311712672E0,-6.386086861E0,3.178699918E-1,7.200735209E0
8.532419292E0,3.521062288E0,-6.677053083E0,-6.910906041E-1,7.580140086E0
8.542405292E0,3.893898300E0,-6.911234654E0,-1.091470217E0,8.007428779E0
8.552391292E0,4.259711221E0,-7.526633052E0,-1.053712699E0,8.712385163E0
8.562376292E0,4.083698920E0,-7.937804579E0,-9.703805208E-2,8.927191875E0
8.572362292E0,3.296179544E0,-8.769896110E0,1.783372123E0,9.537100896E0
8.582348292E0,2.433024679E0,-9.490463698E0,4.515026092E0,1.078767681E1
8.592334292E0,1.889931196E0,-9.426684024E0,7.738356053E0,1.234165167E1
8.602320292E0,1.307123424E0,-9.217996312E0,1.012255940E1,1.375304463E1
8.612306292E0,5.945460570E-1,-9.046320307E0,1.144000492E1,1.459668143E1
8.622292292E0,-2.156412202E-1,-8.380028329E0,1.203465506E1,1.466643441E1
8.632278292E0,-9.428553379E-1,-7.884452244E0,1.149503891E1,1.397102298E1
8.642264292E0,-1.721223237E0,-6.796010592E0,1.008697208E1,1.228394786E1
8.652250292E0,-2.219501320E0,-5.312234012E0,8.291570481E0,1.009436265E1
8.662236292E0,-2.484729268E0,-4.136482028E0,6.380748353E0,7.999894540E0
8.672221292E0,-2.943656175E0,-2.867340070E0,4.903316879E0,6.397598547E0
8.682207292E0,-3.532412319E0,-1.813435290E0,4.000371712E0,5.636440204E0
8.692193292E0,-4.059203179E0,-8.468890804E-1,3.382675358E0,5.351340407E0
8.702179292E0,-4.338683131E0,-4.519605339E-3,2.738760383E0,5.130789429E0
8.712165292E0,-4.097312992E0,1.191699095E-1,1.905765748E0,4.520411299E0
8.722151292E0,-3.588311116E0,1.669698742E-1,1.127128585E0,3.764873763E0
8.732137292E0,-3.065743698E0,4.196040890E-1,5.738898906E-1,3.147094155E0
8.742123292E0,-2.532237895E0,5.120471066E-1,3.329115155E-1,2.604851450E0
8.752109292E0,-2.010575042E0,3.703065062E-1,4.107440954E-1,2.085245698E0
8.762094292E0,-1.515387213E0,-1.007280837E-1,5.777537307E-1,1.624913513E0
8.772080292E0,-1.229411590E0,-4.772792700E-1,9.037131992E-1,1.598732593E0
8.782066292E0,-1.172829253E0,-5.683498000E-1,1.423804905E0,1.930225469E0
8.792052292E0,-1.120002583E0,-6.806090315E-1,1.822373928E0,2.244700687E0
8.802038292E0,-1.230987414E0,-7.385831514E-1,2.061117497E0,2.511780329E0
8.812024292E0,-1.517894499E0,-6.986773664E-1,2.237922681E0,2.792928874E0
8.822010292E0,-1.665274154E0,-7.714461114E-1,2.316870617E0,2.955698998E0
8.831996292E0,-1.270485941E0,-1.318630452E0,2.118511427E0,2.800180613E0
8.841982292E0,-3.239070958E-1,-1.779753719E0,1.521813595E0,2.363970331E0
8.851968292E0,5.220171940E-1,-1.697878228E0,7.705364308E-1,1.936238317E0
8.861953292E0,9.736385894E-1,-1.343026498E0,8.881277382E-2,1.661198358E0
8.871939292E0,1.127625598E0,-1.005194258E0,-2.141272299E-1,1.525714736E0
8.881925292E0,8.085863096E-1,-8.072562142E-1,-2.695651200E-1,1.173941979E0
8.891911292E0,1.789920419E-1,-7.642419031E-1,-1.886943269E-1,8.072851953E-1
8.901897292E0,-5.594861519E-1,-8.295462388E-1,7.703896657E-2,1.003547069E0
8.911883292E0,-1.168950795E0,-9.212285337E-1,3.506911442E-1,1.529082160E0
8.921869292E0,-1.304647713E0,-1.070742861E0,5.220432141E-1,1.766670611E0
8.931855292E0,-9.113441080E-1,-1.196928699E0,5.373120484E-1,1.597463812E0
8.941841292E0,-4.057926732E-1,-1.126216419E0,4.021782169E-1,1.262845373E0
8.951827292E0,2.043122399E-1,-1.048488651E0,2.441227153E-1,1.095749900E0
8.961812292E0,8.745493340E-1,-1.168497051E0,7.244597867E-2,1.461324849E0
8.971798292E0,1.241219457E0,-1.149937842E0,-7.592580289E-2,1.693737733E0
8.981784292E0,1.255305399E0,-9.432504635E-1,-5.961967260E-3,1.570206556E0
8.991770292E0,1.175092126E0,-9.751144266E-1,1.735301578E-1,1.536815657E0
9.001756292E0,1.070721080E0,-1.131048558E0,3.586309321E-1,1.598227336E0
9.011742292E0,9.298669177E-1,-1.150827789E0,5.631418312E-1,1.583093745E0
9.021728292E0,7.277719420E-1,-1.127667991E0,7.133651336E-1,1.519926614E0
9.031714292E0,6.691916120E-1,-1.147281160E0,7.523600686E-1,1.526472124E0
9.041700292E0,7.521431369E-1,-1.227985746E0,6.990322924E-1,1.600723098E0
9.051686292E0,9.790893638E-1,-1.305407413E0,7.029815018E-1,1.776763205E0
9.061671292E0,1.511141549E0,-1.563479830E0,6.491789317E-1,2.269240236E0
9.071657292E0,2.305940124E0,-1.814783073E0,7.190953318E-1,3.021240731E0
9.081643292E0,3.133143384E0,-1.935055913E0,8.282487416E-1,3.774523126E0
9.091629292E0,3.842682538E0,-2.074687569E0,9.337325120E-1,4.465690764E0
9.101615292E0,4.185553908E0,-2.033051008E0,9.731006455E-1,4.753849260E0
9.111601292E0,4.061163166E0,-1.970937352E0,9.424284911E-1,4.611486937E0
9.121587292E0,3.625248562E0,-2.081756707E0,8.169296285E-1,4.259520177E0
9.131573292E0,2.955458195E0,-2.266951183E0,4.661936069E-1,3.753816363E0
9.141559292E0,2.251901327E0,-2.284535514E0,2.970955655E-2,3.207965829E0
9.151544292E0,1.735682817E0,-2.065104714E0,-3.011538255E-1,2.714396055E0
9.161530292E0,1.438152511E0,-1.561961747E0,-3.054088444E-1,2.145059837E0
9.171516292E0,1.383075247E0,-1.095856506E0,3.060561311E-1,1.790940808E0
9.181502292E0,1.320431103E0,-9.872795588E-1,1.187903375E0,2.032086035E0
9.191488292E0,1.173375968E0,-9.546585274E-1,2.330588477E0,2.778457615E0
9.201474292E0,9.154804283E-1,-1.176456866E0,2.926281173E0,3.284094499E0
9.211460292E0,3.789463520E-1,-1.385600660E0,3.092668372E0,3.409998121E0
9.221446292E0,-2.203271788E-1,-1.576701993E0,3.110301821E0,3.494067924E0
9.231432292E0,-6.802533746E-1,-1.643312304E0,2.940534931E0,3.436563060E0
9.241418292E0,-7.441488236E-1,-1.407794936E0,3.018332720E0,3.412620175E0
9.251403292E0,-8.815081054E-1,-1.165140749E0,3.099299700E0,3.426407468E0
9.261389292E0,-1.433977599E0,-9.269257683E-1,3.038812008E0,3.485665152E0
9.271375292E0,-2.358262179E0,-8.722946477E-1,2.987349494E0,3.904683784E0
9.281361292E0,-3.518943842E0,-1.000632260E0,2.910448083E0,4.674926601E0
9.291347292E0,-4.467372746E0,-1.065915838E0,2.940947160E0,5.453692879E0
9.301333292E0,-4.757131810E0,-1.056345701E0,3.076375106E0,5.762833772E0
9.311319292E0,-4.644052506E0,-1.038266695E0,3.106290046E0,5.682803820E0
9.321305292E0,-4.394084037E0,-1.038311718E0,3.081286767E0,5.466296177E0
9.331291292E0,-4.008409587E0,-1.189278055E0,2.870493473E0,5.071633118E0
9.341277292E0,-3.545049906E0,-1.456826178E0,2.727707391E0,4.704264975E0
9.351262292E0,-3.308024248E0,-1.811535237E0,2.812013716E0,4.704477174E0
9.361248292E0,-3.048722746E0,-2.222710857E0,2.722222703E0,4.652488622E0
9.371234292E0,-2.635072292E0,-2.592781135E0,2.640279822E0,4.542818238E0
9.381220292E0,-2.257607917E0,-2.847369490E0,2.457765710E0,4.386903099E0
9.391206292E0,-2.048169131E0,-2.968315052E0,2.036632574E0,4.141710188E0
9.401192292E0,-2.013147233E0,-2.961974332E0,1.334483131E0,3.821897297E0
9.411178792E0,-2.124922022E0,-2.936013864E0,6.558412492E-1,3.683150656E0
9.421164792E0,-2.381965038E0,-2.870132115E0,3.006725997E-2,3.729922230E0
9.431150792E0,-2.732072337E0,-2.726161972E0,-7.320766622E-1,3.928373021E0
9.441136792E0,-3.158764713E0,-2.595063888E0,-1.495425695E0,4.352981635E0
9.451121792E0,-3.499457411E0,-2.446568000E0,-2.063561634E0,4.742381655E0
9.461107792E0,-3.835525546E0,-2.377120035E0,-2.388045557E0,5.105361638E0
9.471093792E0,-4.231199613E0,-2.364036890E0,-2.488421200E0,5.448298876E0
9.481079792E0,-4.707764060E0,-2.616437801E0,-2.497980228E0,5.937061094E0
9.491065792E0,-5.067734444E0,-3.061290459E0,-2.424193629E0,6.397667264E0
9.501051792E0,-5.088129532E0,-3.283301051E0,-2.415243004E0,6.519396191E0
9.511037792E0,-4.750744019E0,-3.289728895E0,-2.843181714E0,6.440152731E0
9.521023792E0,-4.279573043E0,-2.931583428E0,-3.107743664E0,6.047065198E0
9.531009792E0,-3.731891250E0,-2.492234754E0,-2.919678497E0,5.353762126E0
9.540995792E0,-3.486953140E0,-2.268935143E0,-2.278179006E0,4.743101145E0
9.550980792E0,-3.581610206E0,-2.320889408E0,-1.302718863E0,4.462234390E0
9.560966792E0,-3.636257699E0,-2.586315284E0,-3.377144185E-1,4.474980205E0
9.570952792E0,-3.737457799E0,-2.798172187E0,3.685788001E-1,4.683397135E0
9.580938792E0,-3.483378738E0,-3.414288622E0,1.408277039E-1,4.879664606E0
9.590924792E0,-2.301376373E0,-3.584024522E0,-7.414925797E-1,4.323352429E0
9.600910792E0,-7.662495446E-1,-2.861826146E0,-1.718249928E0,3.424845992E0
9.610896792E0,6.252100253E-1,-2.511638739E0,-3.097146755E0,4.036277338E0
9.620882792E0,1.859646127E0,-2.402976715E0,-4.437347293E0,5.377976554E0
9.630868792E0,2.689194705E0,-2.033873127E0,-5.488315310E0,6.441274175E0
9.640853792E0,3.141971510E0,-1.789165836E0,-6.513745027E0,7.449964674E0
9.650839792E0,3.495217595E0,-1.738081344E0,-6.897797168E0,7.925722590E0
9.660825792E0,3.586724766E0,-1.758644248E0,-6.392143407E0,7.537700012E0
9.670811792E0,3.238983834E0,-1.941639147E0,-5.389518415E0,6.580872861E0
9.680797792E0,2.657899237E0,-2.303733239E0,-4.273612391E0,5.534923492E0
9.690783792E0,1.982758083E0,-2.521041062E0,-3.130375312E0,4.481766086E0
9.700769792E0,9.700560004E-1,-2.536897834E0,-2.235922202E0,3.517983422E0
9.710755792E0,-1.273482639E-1,-2.714464324E0,-1.813962562E0,3.267260982E0
9.720741792E0,-8.084886611E-1,-2.841809665E0,-1.210269706E0,3.192849644E0
9.730727792E0,-1.188966984E0,-2.862939748E0,-4.590209006E-1,3.133810249E0
9.740713792E0,-1.284524521E0,-3.207722573E0,8.809751317E-2,3.456479209E0
9.750698792E0,-8.973189765E-1,-3.701786568E0,3.542833811E-1,3.825430937E0
9.760684792E0,-2.250833040E-1,-4.064571801E0,2.724983758E-1,4.079909531E0
9.770670792E0,6.473183477E-1,-4.376536543E0,1.264876268E-1,4.425956651E0
9.780656792E0,1.979714608E0,-4.540924872E0,1.678886911E-1,4.956556792E0
9.790642792E0,3.619497825E0,-4.818262988E0,1.212116110E-1,6.027529758E0
9.800628792E0,5.604595964E0,-4.946340399E0,6.820361906E-1,7.506194284E0
9.810614792E0,6.796622211E0,-4.777157646E0,1.333089155E0,8.413824062E0
9.820600792E0,6.483912533E0,-4.778232365E0,1.245683806E0,8.150113767E0
9.830586792E0,5.307742766E0,-5.032473394E0,1.045814354E0,7.388616203E0
9.840571792E0,3.774557213E0,-5.235278222E0,6.509214751E-1,6.486841988E0
9.850557792E0,2.440236050E0,-5.826169769E0,-2.955264652E-1,6.323475472E0
9.860543792E0,2.252840974E0,-6.042447751E0,-6.592897908E-1,6.482370732E0
9.870529792E0,2.809077829E0,-6.104034719E0,-4.327758193E-1,6.733309217E0
9.880515792E0,3.230516481E0,-6.346567284E0,-1.414268973E-1,7.122861405E0
9.890501792E0,3.721997761E0,-6.861618106E0,7.856004663E-1,7.845523466E0
9.900487792E0,4.100796763E0,-7.692826123E0,1.698716134E0,8.881539527E0
9.910473792E0,4.341289235E0,-8.354409338E0,2.284113053E0,9.688143272E0
9.920459792E0,4.127528479E0,-8.649048196E0,2.672964881E0,9.949234508E0
9.930445792E0,3.477469541E0,-8.853256940E0,3.149534883E0,1.001960692E1
9.940431792E0,2.593473446E0,-8.979379043E0,3.890743142E0,1.012389425E1
9.950416792E0,1.706956615E0,-8.728528814E0,4.828680387E0,1.012013194E1
9.960402792E0,8.152082813E-1,-8.239196970E0,5.850511143E0,1.013791951E1
9.970388792E0,-1.811701298E-1,-7.778655063E0,6.880551390E0,1.038663972E1
9.980374792E0,-1.361810094E0,-6.936596952E0,7.929843010E0,1.062324405E1
9.990360792E0,-2.489753780E0,-6.115145599E0,8.818026881E0,1.101596467E1
1.000034679E1,-3.383961453E0,-5.359973604E0,9.591795945E0,1.149708927E1
1.001033279E1,-3.951611488E0,-4.515308220E0,9.886476903E0,1.156484618E1
1.002031879E1,-4.129513024E0,-3.563676796E0,9.648412780E0,1.108352558E1
1.003030479E1,-4.070826275E0,-2.636762137E0,8.851078852E0,1.009285579E1
1.004028979E1,-3.844793383E0,-2.060522251E0,7.573428319E0,8.739851520E0
1.005027579E1,-3.274992158E0,-1.793814373E0,6.005442477E0,7.071681765E0
1.006026179E1,-2.396973671E0,-1.499059448E0,4.409564541E0,5.238026484E0
1.007024779E1,-1.591059539E0,-1.015908258E0,2.840120696E0,3.410253013E0
1.008023379E1,-7.499030685E-1,-3.134652843E-1,1.340234452E0,1.567432131E0
1.009021979E1,1.667216599E-1,1.516742890E-1,1.054799697E-1,2.488518150E-1
1.010020579E1,5.223247576E-1,3.532884043E-1,-7.596842909E-1,9.872973568E-1
1.011019179E1,2.318882936E-1,4.350633962E-1,-1.076223456E0,1.183769094E0
1.012017779E1,-3.840515560E-1,1.989518049E-1,-1.002989419E0,1.092275237E0
1.013016379E1,-1.142012088E0,-4.075800209E-1,-6.853999476E-1,1.392869761E0
1.014014879E1,-2.028697903E0,-7.898426943E-1,-2.081642394E-1,2.186961136E0
1.015013479E1,-2.575926536E0,-8.518576057E-1,3.203443873E-1,2.731973541E0
1.016012079E1,-2.489811083E0,-8.205815070E-1,7.327533312E-1,2.722028781E0
1.017010679E1,-1.851499786E0,-9.312520500E-1,1.091072899E0,2.342161803E0
1.018009279E1,-9.162785733E-1,-9.417169581E-1,1.310036069E0,1.855422258E0
1.019007879E1,-2.354872549E-1,-8.422306037E-1,1.296790810E0,1.564120533E0
1.020006479E1,2.633065528E-1,-1.083363199E0,1.284691751E0,1.701011187E0
1.021005079E1,8.820244145E-1,-1.492904668E0,1.311184170E0,2.173921651E0
1.022003679E1,1.129234752E0,-1.504664589E0,1.088386834E0,2.173424153E0
1.023002279E1,9.491095197E-1,-1.335074577E0,6.942564328E-1,1.779107923E0
1.024000879E1,5.954120296E-1,-1.256992613E0,4.729719186E-1,1.469097802E0
1.024999379E1,1.772372925E-1,-1.259338516E0,5.095309035E-1,1.370024926E0
1.025997979E1,-2.395200795E-1,-1.302209717E0,5.873656762E-1,1.448488334E0
1.026996579E1,-5.901887119E-1,-1.238328886E0,6.069655430E-1,1.500062770E0
1.027995179E1,-7.791835856E-1,-1.173327509E0,4.958696151E-1,1.493221745E0
1.028993779E1,-6.367161763E-1,-1.209368796E0,2.873181438E-1,1.396614510E0
1.029992379E1,-3.781341738E-1,-1.093268529E0,1.145365027E-1,1.162471565E0
1.030990979E1,-1.947052646E-1,-8.304122845E-1,-7.665926300E-2,8.563710323E-1
1.031989579E1,-1.219670713E-1,-6.565562175E-1,-1.570866910E-1,6.860162256E-1
1.032988179E1,-9.577212989E-2,-6.568675818E-1,-6.333228908E-2,6.668270388E-1
1.033986779E1,-5.304418623E-2,-8.740879156E-1,1.247515154E-1,8.845373427E-1
1.034985279E1,7.617226303E-2,-8.564941554E-1,5.436461178E-1,1.017317823E0
1.035983879E1,2.763031590E-1,-8.506880164E-1,1.047421168E0,1.377354218E0
1.036982479E1,3.813893187E-1,-1.008703684E0,1.437421024E0,1.796975274E0
1.037981079E1,4.821999943E-1,-1.229960643E0,1.681631155E0,2.138504936E0
1.038979679E1,4.131180650E-1,-1.309523560E0,1.697843145E0,2.183618519E0
1.039978279E1,3.240690637E-1,-1.311372304E0,1.585906388E0,2.083222779E0
1.040976792E1,3.221330506E-1,-1.394592508E0,1.393183329E0,1.997402752E0
1.041975392E1,5.434957713E-1,-1.627261990E0,1.090403978E0,2.032818258E0
1.042973992E1,7.537973142E-1,-1.540277933E0,7.507485759E-1,1.871974873E0
1.043972592E1,7.861704236E-1,-1.351800099E0,4.844424015E-1,1.637104726E0
1.044971092E1,8.040874618E-1,-1.350019768E0,3.974644840E-1,1.620829428E0
1.045969692E1,8.496524745E-1,-1.540668380E0,3.500692928E-1,1.793911061E0
1.046968292E1,9.467437363E-1,-1.647904415E0,3.057345160E-1,1.924937988E0
1.047966892E1,1.007373515E0,-1.492440546E0,2.414578102E-1,1.816722889E0
1.048965492E1,9.756728357E-1,-1.349933375E0,1.708362907E-1,1.674348422E0
1.049964092E1,9.682550579E-1,-1.389991042E0,1.602944005E-1,1.701554362E0
1.050962692E1,1.069417151E0,-1.541058536E0,2.833051632E-1,1.897044087E0
1.051961292E1,1.310834652E0,-1.560916703E0,5.123213410E-1,2.101718725E0
1.052959892E1,1.690906593E0,-1.590077937E0,7.503989124E-1,2.439387522E0
1.053958392E1,2.393407454E0,-1.823079979E0,1.110264046E0,3.206977721E0
1.054956992E1,3.361677715E0,-2.212349883E0,1.487940382E0,4.290610171E0
1.055955592E1,4.278587787E0,-2.596507858E0,1.793395420E0,5.316430536E0
1.056954192E1,4.900183648E0,-2.701518004E0,2.099662635E0,5.976502531E0
1.057952792E1,4.796924744E0,-2.601554298E0,2.575934722E0,6.034402328E0
1.058951392E1,4.465557185E0,-2.821915975E0,3.339609153E0,6.249591990E0
1.059949992E1,4.059435314E0,-3.008477238E0,4.379564524E0,6.686593735E0
1.060948592E1,3.272553869E0,-3.024514981E0,5.519323679E0,7.093675604E0
1.061947192E1,2.522291197E0,-2.969215524E0,6.500450213E0,7.578525363E0
1.062945792E1,1.911063618E0,-2.769095737E0,7.350189811E0,8.083646802E0
1.063944392E1,1.374345354E0,-2.340593940E0,7.905730262E0,8.358694642E0
1.064942892E1,7.037971884E-1,-2.127838029E0,7.524855498E0,7.851526949E0
1.065941492E1,1.564030784E-1,-2.186535595E0,6.540210110E0,6.897807486E0
1.066940092E1,-7.193887889E-2,-2.252005407E0,5.947482537E0,6.359972648E0
1.067938692E1,-1.362319386E-1,-2.445621336E0,5.524252882E0,6.042929154E0
1.068937292E1,-7.709203005E-2,-2.367028325E0,5.499037349E0,5.987334803E0
1.069935892E1,1.795013344E-1,-2.287166469E0,6.294347556E0,6.699415074E0
1.070934492E1,1.649727577E-1,-3.105666148E0,6.261238282E0,6.991100275E0
1.071933092E1,1.120384991E-2,-4.134473217E0,5.360814434E0,6.769957585E0
1.072931692E1,-3.090481514E-1,-4.681908258E0,4.304946451E0,6.367757818E0
1.073930292E1,-7.109027249E-1,-4.729637910E0,2.895836475E0,5.591129254E0
1.074928792E1,-1.023825826E0,-4.598691269E0,1.506212347E0,4.946196149E0
1.075927392E1,-1.415612664E0,-4.535096952E0,7.057538129E-2,4.751425519E0
1.076925992E1,-1.954827104E0,-4.276579853E0,-1.306959118E0,4.880433012E0
1.077924592E1,-2.516366213E0,-3.836262295E0,-2.041510321E0,5.021630383E0
1.078923192E1,-3.372420804E0,-3.402355040E0,-2.251656767E0,5.293316549E0
1.079921792E1,-4.343396571E0,-3.166580102E0,-2.380503234E0,5.878700448E0
1.080920392E1,-4.908293737E0,-2.758902871E0,-2.217838957E0,6.051586742E0
1.081918992E1,-5.412827756E0,-2.363381417E0,-2.111633494E0,6.272421546E0
1.082917592E1,-5.899334224E0,-2.338582206E0,-2.031082982E0,6.663063042E0
1.083916192E1,-6.342687072E0,-2.618075021E0,-1.887195868E0,7.116565489E0
1.084914692E1,-6.628902431E0,-2.860581858E0,-1.928466832E0,7.472901734E0
1.085913292E1,-6.551850747E0,-2.957357370E0,-2.160943794E0,7.506156733E0
1.086911892E1,-5.918068703E0,-2.919454549E0,-2.909838218E0,7.212067006E0
1.087910492E1,-4.996791345E0,-2.625900642E0,-3.609276892E0,6.700011762E0
1.088909092E1,-4.101834059E0,-2.047964478E0,-3.951441334E0,6.052527552E0
1.089907692E1,-3.670875555E0,-1.778640848E0,-3.979107435E0,5.698437205E0
1.090906292E1,-3.620500038E0,-1.867662952E0,-3.453379598E0,5.340600722E0
1.091904892E1,-3.909548957E0,-2.230483853E0,-2.507955286E0,5.152617877E0
1.092903492E1,-4.166490231E0,-2.774503827E0,-1.863914448E0,5.341506286E0
1.093902092E1,-4.213004247E0,-3.035904188E0,-1.712125554E0,5.467859996E0
1.094900592E1,-3.719888086E0,-3.336489956E0,-2.265682045E0,5.486624438E0
1.095899192E1,-2.286773536E0,-3.066261469E0,-2.568067878E0,4.607197112E0
1.096897792E1,-6.893200672E-1,-2.290534173E0,-1.921259554E0,3.068052677E0
1.097896392E1,5.584921253E-1,-1.984659452E0,-7.465849198E-1,2.192755261E0
1.098894992E1,1.168644986E0,-2.053552370E0,3.603368573E-1,2.390115288E0
1.099893592E1,1.083835216E0,-2.355209787E0,4.527868916E-1,2.631867756E0
1.100892192E1,9.139127898E-1,-2.938380232E0,-5.156063068E-1,3.120122568E0
1.101890792E1,1.093472596E0,-2.758599693E0,-1.790856120E0,3.465937136E0
1.102889392E1,1.348986565E0,-2.242760667E0,-3.097235048E0,4.054948224E0
1.103887992E1,1.489236710E0,-1.914922488E0,-4.109205644E0,4.771826185E0
1.104886492E1,1.697584113E0,-1.697540844E0,-3.955953630E0,4.627418920E0
1.105885092E1,1.796624252E0,-1.765034377E0,-2.686327230E0,3.682330654E0
1.106883692E1,1.411136035E0,-2.094387862E0,-1.369346131E0,2.872781623E0
1.107882292E1,1.180580907E0,-2.631288559E0,2.634419158E-2,2.884119410E0
1.108880892E1,1.270894076E0,-3.171088305E0,7.882052547E-1,3.506029138E0
1.109879492E1,1.630217757E0,-3.344078765E0,1.156295081E0,3.895829955E0
1.110878092E1,1.720341477E0,-3.269750714E0,8.990890749E-1,3.802526225E0
1.111876692E1,1.453085715E0,-3.453183131E0,-5.945378709E-1,3.793337200E0
1.112875292E1,1.420388669E0,-3.418153632E0,-2.442757515E0,4.434900506E0
1.113873892E1,1.873040344E0,-3.626899815E0,-4.143274446E0,5.816305145E0
1.114872392E1,2.981035085E0,-4.147475671E0,-5.141906374E0,7.247573786E0
1.115870992E1,5.249329081E0,-4.688486375E0,-4.897401543E0,8.574491365E0
1.116869592E1,7.749313150E0,-4.874030807E0,-3.345765102E0,9.746905905E0
1.117868192E1,8.821660926E0,-5.418046396E0,-1.837650071E0,1.051446081E1
1.118866792E1,8.968094501E0,-6.483670458E0,-3.887099596E-1,1.107320175E1
1.119865392E1,8.289739718E0,-7.404058455E0,1.752405853E0,1.125214613E1
1.120863992E1,6.245901035E0,-8.436680832E0,3.523991743E0,1.107282173E1
1.121862592E1,3.546457331E0,-9.047027235E0,4.563278192E0,1.073543521E1
1.122861192E1,1.069132392E0,-8.808646778E0,4.737936570E0,1.005899324E1
1.123859792E1,-2.641222394E-1,-8.293038132E0,3.779215398E0,9.117385099E0
1.124858392E1,1.323716068E-1,-7.851226026E0,2.703491440E0,8.304705793E0
1.125856892E1,1.521561872E0,-7.249604838E0,2.488346940E0,7.814332430E0
1.126855492E1,3.344607938E0,-6.678716615E0,3.586214012E0,8.285685779E0
1.127854092E1,3.898994733E0,-6.274051285E0,5.403534776E0,9.152271168E0
1.128852692E1,2.719906620E0,-6.558252279E0,6.713479482E0,9.771354652E0
1.129851292E1,7.484055966E-1,-6.829458420E0,7.369014337E0,1.007491864E1
1.130849892E1,-1.006126889E0,-6.714243713E0,7.290092129E0,9.961867455E0
1.131848492E1,-1.642793364E0,-6.870188370E0,6.520713739E0,9.613426337E0
1.132847092E1,-1.576913370E0,-6.784176412E0,5.625133724E0,8.952867406E0
1.133845692E1,-1.605301602E0,-5.867562793E0,5.192571913E0,7.998005341E0
1.134844292E1,-1.845100009E0,-5.138716718E0,5.107489078E0,7.476446230E0
1.135842792E1,-2.798171017E0,-4.281864567E0,5.751714249E0,7.697164543E0
1.136841392E1,-4.238867067E0,-3.652667325E0,6.509927965E0,8.584237573E0
1.137839992E1,-5.540409908E0,-3.037637887E0,6.812403846E0,9.291513980E0
1.138838592E1,-6.151608251E0,-2.494834134E0,6.383528119E0,9.209555509E0
1.139837192E1,-6.174032323E0,-2.094598947E0,5.266817518E0,8.381252093E0
1.140835837E1,-5.771028187E0,-1.299550695E0,4.203668582E0,7.257026105E0
1.141834437E1,-5.068191696E0,-6.473005137E-1,3.014526182E0,5.932363199E0
1.142833037E1,-4.201467690E0,-3.090005697E-1,1.872142797E0,4.610068411E0
1.143831637E1,-3.088622684E0,-2.107609696E-1,1.258553528E0,3.341850872E0
1.144830237E1,-1.997048678E0,-9.744267941E-2,9.547310328E-1,2.215673677E0
1.145828737E1,-1.139580231E0,1.911662007E-1,8.318751848E-1,1.423799123E0
1.146827338E1,-5.382666063E-1,2.838499044E-1,6.995385882E-1,9.271763285E-1
1.147825937E1,-4.360069907E-1,2.913389817E-1,6.147201204E-1,8.079983444E-1
1.148824537E1,-6.975476843E-1,1.496555743E-1,5.781457865E-1,9.182712635E-1
1.149823138E1,-9.932799715E-1,-2.304269283E-1,7.844003984E-1,1.286462458E0
1.150821737E1,-1.178337915E0,-6.647198807E-1,1.168388293E0,1.787586072E0
1.151820337E1,-1.356076899E0,-9.115372123E-1,1.425001538E0,2.168057662E0
1.152818938E1,-1.439333063E0,-9.535589585E-1,1.525690591E0,2.304058622E0
1.153817537E1,-1.293471930E0,-9.943475269E-1,1.601681006E0,2.286302404E0
1.154816137E1,-9.183309460E-1,-1.198850751E0,1.589069731E0,2.192194668E0
1.155814637E1,-5.873762012E-1,-1.349833826E0,1.530198795E0,2.123339472E0
1.156813237E1,-1.171951586E-1,-1.345797786E0,1.414302303E0,1.955800958E0
1.157811837E1,1.709755093E-1,-1.226638840E0,1.145746704E0,1.687190262E0
1.158810437E1,2.471466029E-1,-1.072051760E0,7.924380541E-1,1.355851942E0
1.159809037E1,1.177447969E-1,-9.383662842E-1,5.265370917E-1,1.082421558E0
1.160807637E1,-1.602651644E-1,-8.430821045E-1,4.498321474E-1,9.689279223E-1
1.161806237E1,-3.485841000E-1,-9.738276737E-1,2.973695076E-1,1.076234099E0
1.162804837E1,-2.656764293E-1,-1.173165614E0,1.803591210E-1,1.216318600E0
1.163803437E1,-1.108234477E-1,-1.113508008E0,2.844220179E-1,1.154589886E0
1.164802037E1,-6.166298211E-2,-1.067866835E0,4.250113016E-1,1.150989360E0
1.165800637E1,2.241413176E-2,-1.065851227E0,6.095774943E-1,1.228057797E0
1.166799137E1,1.832032067E-1,-1.035658252E0,8.271903956E-1,1.338056568E0
1.167797737E1,2.123504072E-1,-1.053521788E0,8.844381452E-1,1.391844706E0
1.168796338E1,3.886936605E-2,-1.074760191E0,8.149819940E-1,1.349376132E0
1.169794937E1,-2.167814273E-1,-1.037359938E0,6.926266676E-1,1.266033778E0
1.170793537E1,-4.192248970E-1,-9.178527168E-1,8.627783042E-1,1.327625522E0
1.171792138E1,-6.318799442E-1,-9.187205167E-1,1.082199749E0,1.553858407E0
1.172790737E1,-7.633113188E-1,-1.107168676E0,1.101653436E0,1.738420817E0
1.173789337E1,-9.873813003E-1,-1.243624124E0,9.421712136E-1,1.846404449E0
1.174787938E1,-1.202250688E0,-1.238168526E0,5.535423841E-1,1.812423015E0
1.175786537E1,-9.376852298E-1,-1.378261527E0,-1.249837960E-1,1.671669637E0
1.176785037E1,2.281922686E-1,-1.888989210E0,-9.747179854E-1,2.137855724E0
1.177783637E1,1.631719907E0,-2.115730784E0,-1.850311778E0,3.249996966E0
1.178782237E1,2.885146596E0,-2.143849021E0,-2.745019242E0,4.522752496E0
1.179780837E1,4.561790661E0,-2.627928164E0,-3.896190993E0,6.549522480E0
1.180779437E1,6.189296479E0,-2.793121069E0,-4.362712848E0,8.071070537E0
1.181778037E1,7.399558437E0,-2.668092104E0,-3.997515054E0,8.823395444E0
1.182776637E1,7.756919208E0,-2.793262572E0,-2.685180591E0,8.670773103E0
1.183775237E1,7.486886603E0,-3.502833009E0,-2.319099283E-1,8.269044220E0
1.184773837E1,6.936085321E0,-4.553735244E0,2.795062637E0,8.755464545E0
1.185772437E1,6.761912554E0,-5.754898058E0,5.197284769E0,1.028854130E1
1.186770937E1,7.155552374E0,-6.647119431E0,6.910711913E0,1.196428291E1
1.187769538E1,7.318996085E0,-6.983592778E0,7.884372722E0,1.282581791E1
1.188768137E1,6.866518657E0,-6.727949587E0,8.271446704E0,1.268192472E1
1.189766737E1,6.491629103E0,-6.614509510E0,8.365913150E0,1.248525079E1
1.190765338E1,6.221906401E0,-6.497236583E0,8.723548740E0,1.253102171E1
1.191763937E1,5.413159293E0,-6.014153659E0,8.965331107E0,1.207681662E1
1.192762537E1,4.467802516E0,-5.868412394E0,8.667853426E0,1.138117772E1
1.193761138E1,2.943849133E0,-5.256414152E0,8.004564579E0,1.001844257E1
1.194759737E1,1.104067751E0,-4.254228287E0,7.233750697E0,8.464311730E0
1.195758337E1,-2.268567646E-1,-3.448389584E0,6.469006226E0,7.334227721E0
1.196756837E1,-1.137501546E0,-2.916800498E0,5.378159029E0,6.223040210E0
1.197755437E1,-1.767809758E0,-2.453279434E0,4.383054434E0,5.324931689E0
1.198754037E1,-2.028531842E0,-1.974284298E0,3.957274516E0,4.865466218E0
1.199752637E1,-1.977920682E0,-1.609502242E0,4.190904111E0,4.905746116E0
1.200751238E1,-2.197994676E0,-1.417641063E0,4.606439999E0,5.297185691E0
1.201749837E1,-2.680684667E0,-1.423385367E0,5.125614277E0,5.956846305E0
1.202748437E1,-3.296487107E0,-1.476582751E0,5.823700490E0,6.852927204E0
1.203747038E1,-4.022662175E0,-1.570144633E0,6.125003420E0,7.494186549E0
1.204745637E1,-4.561201261E0,-1.624488071E0,5.878878325E0,7.616083560E0
1.205744237E1,-4.516520932E0,-1.896282442E0,5.639296265E0,7.469706206E0
1.206742838E1,-3.854919006E0,-2.427503153E0,5.697219368E0,7.294619979E0
1.207741337E1,-2.501729463E0,-3.284659359E0,5.753069633E0,7.081345043E0
1.208739937E1,-9.170568377E-1,-4.299424925E0,5.483153973E0,7.027874886E0
1.209738538E1,4.385095990E-1,-5.365368830E0,4.313432222E0,6.898200554E0
1.210737137E1,1.255173252E0,-6.551954827E0,2.531933255E0,7.135422760E0
1.211735737E1,1.568082905E0,-7.046012975E0,1.264662406E0,7.328339092E0
1.212734338E1,1.102897139E0,-6.449561895E0,6.267878965E-1,6.573134245E0
1.213732937E1,1.535344344E-1,-5.342254786E0,3.622116208E-2,5.344583333E0
1.214731537E1,-9.538942963E-1,-4.549225871E0,-8.738134620E-1,4.729579297E0
1.215730138E1,-2.194972835E0,-4.285276125E0,-1.608491550E0,5.076292178E0
1.216728737E1,-3.371166576E0,-4.111269711E0,-2.075382657E0,5.707408860E0
1.217727237E1,-3.936677114E0,-3.923788389E0,-2.950066477E0,6.292569765E0
1.218725837E1,-4.072622539E0,-3.075528429E0,-3.761483424E0,6.339864905E0
1.219724438E1,-3.762154684E0,-1.973863299E0,-4.337233021E0,6.071370065E0
1.220723037E1,-3.375942582E0,-1.321493980E0,-5.085715216E0,6.245625182E0
1.221721637E1,-3.253993637E0,-1.036464144E0,-5.743718766E0,6.682292853E0
1.222720238E1,-3.168469337E0,-1.539679909E0,-6.159672146E0,7.095870144E0
1.223718837E1,-2.729993067E0,-1.384488227E0,-5.980763719E0,6.718571609E0
1.224717437E1,-2.291955339E0,-9.688342246E-1,-5.555448947E0,6.087258170E0
1.225716038E1,-2.200803094E0,-9.054141542E-1,-4.676880237E0,5.247524921E0
1.226714637E1,-2.242453980E0,-1.171634594E0,-3.538655391E0,4.350104533E0
1.227713137E1,-2.465928131E0,-1.560536196E0,-2.081432186E0,3.584471329E0
1.228711738E1,-2.744557312E0,-2.019577416E0,-7.430302513E-1,3.487604010E0
1.229710337E1,-2.422827135E0,-2.759580563E0,-1.966582346E-1,3.677506040E0
1.230708937E1,-1.322026808E0,-2.929761436E0,1.744008082E-1,3.218955202E0
1.231707538E1,-5.825990260E-2,-2.210783268E0,7.767189842E-1,2.343981496E0
1.232706137E1,9.284630013E-1,-1.531011265E0,1.049828248E0,2.075615183E0
1.233704737E1,1.147740020E0,-1.099555455E0,1.074412428E0,1.918512814E0
1.234703338E1,4.846464694E-1,-8.565764549E-1,1.241503047E0,1.584277513E0
1.235701937E1,-4.986400259E-1,-1.101528890E0,1.113743066E0,1.643907354E0
1.236700537E1,-9.778550166E-1,-2.068390849E0,3.789684618E-1,2.319064085E0
1.237699138E1,-3.966517210E-1,-2.504092615E0,7.389659978E-2,2.536389781E0
1.238697638E1,6.613399708E-1,-2.463802083E0,-3.719969727E-1,2.577997868E0
1.239696237E1,2.208848278E0,-2.473898470E0,-1.356541167E0,3.583209217E0
1.240694817E1,3.702081560E0,-2.182741629E0,-2.026194125E0,4.751339972E0
1.241693417E1,4.566190690E0,-2.127023512E0,-2.544063304E0,5.643277818E0
1.242692017E1,5.107600760E0,-2.655988952E0,-2.750676423E0,6.380288678E0
1.243690617E1,5.612155244E0,-3.230227629E0,-2.839828920E0,7.070734426E0
1.244689217E1,6.155685514E0,-3.389871234E0,-2.905739905E0,7.604407638E0
1.245687817E1,6.135311476E0,-3.291024638E0,-2.938417654E0,7.556929826E0
1.246686417E1,5.334321869E0,-3.426240331E0,-2.947395469E0,6.991512902E0
1.247685017E1,3.979338984E0,-3.643367329E0,-2.620578214E0,5.998057554E0
1.248683517E1,2.474991315E0,-4.222921125E0,-2.458198404E0,5.477351936E0
1.249682117E1,1.463337638E0,-4.899033501E0,-2.135478147E0,5.540952373E0
1.250680717E1,1.181011262E0,-5.652466534E0,-1.559538076E0,5.981414927E0
1.251679317E1,1.638534252E0,-6.396415967E0,-7.024751329E-1,6.640211069E0
1.252677917E1,2.386580245E0,-7.083417614E0,1.549219787E-3,7.474662049E0
1.253676517E1,3.055205262E0,-7.534556029E0,5.473686746E-1,8.148829745E0
1.254675117E1,3.692101532E0,-7.947648366E0,9.634550786E-1,8.816176834E0
1.255673717E1,4.344343820E0,-8.444085161E0,1.329249288E0,9.588680885E0
1.256672317E1,5.022242521E0,-8.712435522E0,1.948305119E0,1.024330735E1
1.257670917E1,5.591991121E0,-8.909792499E0,2.649397386E0,1.084776814E1
1.258669417E1,6.017763730E0,-8.923976090E0,3.229175130E0,1.123736631E1
1.259668017E1,6.305328627E0,-9.168202593E0,3.717924006E0,1.173183987E1
1.260666617E1,6.131946988E0,-9.207558448E0,4.435934606E0,1.191878443E1
1.261665217E1,5.519525993E0,-8.926113832E0,5.413289101E0,1.180865675E1
1.262663817E1,4.825253919E0,-8.598362192E0,6.322601886E0,1.171282214E1
1.263662417E1,3.404854140E0,-8.215191227E0,6.920679662E0,1.126846066E1
1.264661017E1,1.378413847E0,-7.650592269E0,7.261022111E0,1.063738826E1
1.265659617E1,-2.804125822E-1,-7.697604468E0,7.260944928E0,1.058551213E1
1.266658217E1,-1.622808166E0,-7.543059635E0,7.449266202E0,1.072486932E1
1.267656817E1,-2.981901643E0,-7.049530660E0,7.389368495E0,1.063909708E1
1.268655317E1,-4.418678303E0,-6.136444666E0,6.851026459E0,1.020378531E1
1.269653917E1,-5.625634831E0,-5.241285651E0,6.053778486E0,9.786065424E0
1.270652517E1,-6.809669103E0,-4.227310045E0,5.266258525E0,9.590371336E0
1.271651117E1,-7.732643323E0,-3.257584997E0,4.207932372E0,9.386816693E0
1.272649717E1,-7.904908143E0,-2.550322748E0,2.830364909E0,8.775117344E0
1.273648317E1,-7.735931212E0,-1.657440639E0,1.420338676E0,8.037978797E0
1.274646917E1,-6.875230424E0,-9.939491853E-1,1.112736833E-1,6.947597441E0
1.275645517E1,-5.427503682E0,-4.161425373E-1,-9.143548393E-1,5.519693434E0
1.276644117E1,-4.019384226E0,1.600450167E-1,-1.584166256E0,4.323268056E0
1.277642717E1,-2.641281450E0,7.124292867E-1,-1.808527283E0,3.279435031E0
1.278641217E1,-1.349252613E0,1.022702430E0,-1.504042883E0,2.264629742E0
1.279639817E1,-3.651375675E-1,6.191014391E-1,-8.575128865E-1,1.118901419E0
1.280638417E1,9.351744354E-2,-1.013059348E-1,1.949077244E-1,2.387413364E-1
1.281637017E1,-1.822331536E-1,-6.200910804E-1,1.222559237E0,1.382885736E0
1.282635617E1,-8.715719318E-1,-9.596789467E-1,2.097392892E0,2.465700359E0
1.283634217E1,-1.625428303E0,-1.163823372E0,2.891641098E0,3.515407551E0
1.284632817E1,-2.104490681E0,-1.354597553E0,3.257165751E0,4.107668961E0
1.285631417E1,-2.070283885E0,-1.471811423E0,3.272280804E0,4.142478230E0
1.286630017E1,-1.627960732E0,-1.421051159E0,3.008441570E0,3.704100865E0
1.287628617E1,-1.021918464E0,-1.221073460E0,2.440413659E0,2.913924599E0
1.288627217E1,-3.362581694E-1,-1.113250803E0,1.760725272E0,2.110106725E0
1.289625717E1,7.428185821E-2,-9.385541260E-1,1.161170563E0,1.494897561E0
1.290624317E1,1.862998921E-1,-8.098326436E-1,6.295007122E-1,1.042500699E0
1.291622917E1,4.694109643E-1,-1.239867581E0,1.936153436E-1,1.339815350E0
1.292621517E1,1.187989914E0,-1.869146391E0,3.670808896E-3,2.214732882E0
1.293620117E1,1.491691371E0,-1.738496497E0,-1.827021734E-1,2.298019430E0
1.294618717E1,1.351203244E0,-1.338582614E0,-1.935475890E-1,1.911809167E0
1.295617317E1,9.107798517E-1,-1.052500279E0,1.670047017E-1,1.401844266E0
1.296615917E1,3.324931473E-1,-1.061816063E0,8.045757774E-1,1.373079468E0
1.297614517E1,-1.286036611E-1,-1.297101297E0,1.299099290E0,1.840290641E0
1.298613117E1,-4.850698078E-1,-1.290092532E0,1.535119811E0,2.063061874E0
1.299611717E1,-5.697281349E-1,-1.048442312E0,1.706961293E0,2.082675751E0
1.300610217E1,-4.985230815E-1,-7.716883323E-1,1.844672577E0,2.060787486E0
1.301608817E1,-4.183659410E-1,-6.316051251E-1,1.929250213E0,2.072670133E0
1.302607417E1,-2.641760337E-1,-7.521388976E-1,1.934352493E0,2.092181031E0
1.303606017E1,1.628449559E-2,-9.181166455E-1,1.930675764E0,2.137922418E0
1.304604617E1,4.860708511E-1,-1.158566725E0,1.700294298E0,2.114129236E0
1.305603217E1,1.014068577E0,-1.178799699E0,1.355797402E0,2.063029424E0
1.306601817E1,1.471869895E0,-1.137854571E0,1.126434520E0,2.174849131E0
1.307600417E1,1.570801275E0,-1.071831905E0,8.827132165E-1,2.096526390E0
1.308599017E1,1.292879607E0,-1.009989852E0,6.567931759E-1,1.767199608E0
1.309597517E1,8.708667576E-1,-9.861905149E-1,4.869923357E-1,1.402904906E0
1.310596117E1,5.033172137E-1,-9.784647350E-1,3.345700417E-1,1.150068941E0
1.311594717E1,3.920458692E-1,-1.051675091E0,1.049195872E-1,1.127265976E0
1.312593317E1,7.181024015E-1,-1.363942427E0,-3.202403069E-1,1.574345533E0
1.313591917E1,1.230239555E0,-1.726413372E0,-7.697672296E-1,2.255334583E0
1.314590517E1,1.969135825E0,-1.974776195E0,-9.792595178E-1,2.955703998E0
1.315589117E1,2.655357453E0,-2.162054473E0,-1.006132005E0,3.568992065E0
1.316587717E1,2.852805061E0,-1.991032478E0,-9.936977550E-1,3.618030165E0
1.317586317E1,2.715294337E0,-1.903510185E0,-9.218745048E-1,3.441805770E0
1.318584917E1,2.471099993E0,-1.959655734E0,-4.150555399E-1,3.181015070E0
1.319583517E1,2.127896501E0,-2.032316452E0,3.073854956E-1,2.958502919E0
1.320582017E1,1.753681716E0,-1.991955169E0,1.166197633E0,2.898844921E0
1.321580617E1,1.489767637E0,-1.803979465E0,2.180389879E0,3.198100928E0
1.322579217E1,1.213664453E0,-1.485444498E0,3.247532464E0,3.771736187E0
1.323577817E1,8.931633604E-1,-1.122194997E0,4.080930848E0,4.325628161E0
1.324576417E1,6.948719984E-1,-8.279929259E-1,4.892526135E0,5.010512086E0
1.325575017E1,4.282962674E-1,-6.909312674E-1,5.853171042E0,5.909351483E0
1.326573617E1,-8.942614675E-2,-8.764005625E-1,6.667182398E0,6.725131680E0
1.327572217E1,-5.493260300E-1,-1.026323757E0,7.251150842E0,7.343996737E0
1.328570817E1,-1.032291425E0,-1.499245974E0,7.614893264E0,7.829429321E0
1.329569417E1,-1.506621652E0,-2.033263993E0,7.711445412E0,8.116061952E0
1.330568017E1,-2.218391519E0,-2.557874427E0,7.579914050E0,8.301751594E0
1.331566517E1,-2.819151412E0,-2.795943228E0,7.236710558E0,8.254386283E0
1.332565117E1,-3.296611361E0,-2.867471048E0,6.625925614E0,7.936808358E0
1.333563717E1,-3.763538135E0,-2.895958098E0,5.539594222E0,7.296430411E0
1.334562317E1,-3.933267895E0,-2.582904603E0,4.201508621E0,6.308301453E0
1.335560917E1,-3.939263923E0,-2.080677896E0,2.883552060E0,5.306778047E0
1.336559517E1,-4.028598268E0,-1.473431101E0,1.694094495E0,4.612001667E0
1.337558117E1,-4.263168387E0,-9.915123582E-1,6.453162611E-1,4.424266553E0
1.338556717E1,-4.518807194E0,-9.122708917E-1,4.906398654E-3,4.609976215E0
1.339555317E1,-4.761311400E0,-1.130035821E0,-6.638753235E-2,4.894024367E0
1.340553917E1,-4.916234255E0,-1.475456577E0,1.121876031E-1,5.134093632E0
1.341552437E1,-4.778080337E0,-1.784943269E0,2.523149568E-1,5.106832386E0
1.342551038E1,-4.417872557E0,-2.069536611E0,3.994396734E-1,4.894908760E0
1.343549637E1,-4.044485738E0,-2.251949859E0,7.021930048E-1,4.682116836E0
1.344548237E1,-3.659055408E0,-2.405120596E0,8.642561880E-1,4.463208523E0
1.345546838E1,-3.387304307E0,-2.568773053E0,1.071134478E0,4.384034048E0
1.346545437E1,-3.447412514E0,-2.792462965E0,1.201000553E0,4.596183720E0
1.347544037E1,-3.666832790E0,-2.952616448E0,1.039445493E0,4.821208721E0
1.348542638E1,-3.910213201E0,-3.130353093E0,7.504863283E-1,5.064790962E0
1.349541237E1,-4.002132601E0,-3.406551586E0,2.694081223E-1,5.262531691E0
1.350539837E1,-4.014305334E0,-3.654457158E0,-3.462133464E-1,5.439629410E0
1.351538438E1,-3.985617725E0,-3.825727367E0,-1.153059525E0,5.643658813E0
1.352536938E1,-3.892492045E0,-3.874289078E0,-2.035751984E0,5.857123553E0
1.353535537E1,-3.757886801E0,-3.644580041E0,-2.754150546E0,5.915236438E0
1.354534137E1,-3.651657511E0,-3.073946173E0,-3.126801494E0,5.706192709E0
1.355532738E1,-3.610633446E0,-2.705502589E0,-3.142365028E0,5.498261190E0
1.356531337E1,-3.826614389E0,-2.742684449E0,-2.654966859E0,5.405011072E0
1.357529937E1,-4.071711543E0,-3.382284472E0,-2.288733523E0,5.766886879E0
1.358528538E1,-3.603976976E0,-3.621639660E0,-2.310770363E0,5.607547016E0
1.359527137E1,-2.702205929E0,-3.139996028E0,-2.338249499E0,4.756984619E0
1.360525737E1,-1.941046386E0,-2.650483214E0,-2.308709950E0,4.015328626E0
1.361524338E1,-1.798842686E0,-2.432989596E0,-2.064875357E0,3.663193091E0
1.362522837E1,-2.133107539E0,-2.449256111E0,-1.857462046E0,3.741546274E0
1.363521437E1,-2.519996749E0,-3.044537309E0,-2.464297927E0,4.657505267E0
1.364520038E1,-2.542713767E0,-3.785402336E0,-3.307690372E0,5.633425223E0
1.365518637E1,-2.066746320E0,-3.693028608E0,-3.581709609E0,5.544235238E0
1.366517237E1,-1.324132975E0,-3.497412640E0,-3.431853658E0,5.075711067E0
1.367515838E1,-7.123007941E-1,-3.343751321E0,-3.191053623E0,4.676630041E0
1.368514437E1,-4.404760176E-1,-3.087323140E0,-2.874041564E0,4.240954869E0
1.369513037E1,-3.464767635E-1,-2.833640812E0,-2.544994766E0,3.824469212E0
1.370511638E1,-3.238082778E-1,-2.651736272E0,-2.452456731E0,3.626444688E0
1.371510237E1,-2.900745213E-1,-2.710980553E0,-2.677219023E0,3.821133403E0
1.372508737E1,-1.142867535E-1,-3.039330071E0,-3.163291628E0,4.388280149E0
1.373507337E1,4.557045060E-1,-3.148383274E0,-3.732094733E0,4.903928521E0
1.374505938E1,1.505079156E0,-2.867471632E0,-4.057255472E0,5.191240583E0
1.375504537E1,2.802434222E0,-2.487587679E0,-3.958892441E0,5.451106254E0
1.376503137E1,4.120546319E0,-2.509161274E0,-3.402733939E0,5.903676018E0
1.377501738E1,5.391204752E0,-2.701201378E0,-2.196481417E0,6.417640390E0
1.378500337E1,6.159948134E0,-2.596601706E0,-8.080289968E-1,6.733514112E0
1.379498937E1,6.260337811E0,-2.897305881E0,-6.264652032E-2,6.898560390E0
1.380497538E1,6.205283352E0,-3.119366759E0,7.277333504E-1,6.983236089E0
1.381496137E1,5.958830813E0,-3.029662870E0,1.613776556E0,6.876830414E0
1.382494737E1,5.436554003E0,-3.317656367E0,2.160725693E0,6.725451562E0
1.383493238E1,5.374956509E0,-3.971169255E0,2.752034732E0,7.227311941E0
1.384491837E1,5.651134538E0,-4.104574065E0,3.632613130E0,7.872656983E0
1.385490437E1,5.693249694E0,-4.212112547E0,3.899056714E0,8.084406437E0
1.386489037E1,5.448136752E0,-4.566336871E0,3.230805334E0,7.808439639E0
1.387487637E1,4.844597678E0,-4.624516667E0,2.076850308E0,7.012102984E0
1.388486237E1,3.942157125E0,-4.815573853E0,4.910738019E-1,6.242716381E0
1.389484837E1,3.071650556E0,-5.298112986E0,-1.025049648E0,6.209328879E0
1.390483437E1,3.010578142E0,-5.670092965E0,-1.676825913E0,6.635154869E0
1.391482037E1,3.644456080E0,-6.055502830E0,-1.354675906E0,7.196271357E0
1.392480637E1,4.095625486E0,-6.705624332E0,-6.256215231E-1,7.882318701E0
1.393479138E1,4.183564686E0,-7.487187150E0,6.926598506E-1,8.604647731E0
1.394477737E1,3.949570225E0,-8.412456987E0,2.305822303E0,9.575246943E0
1.395476337E1,3.486630374E0,-8.935343077E0,3.889282508E0,1.035004665E1
1.396474938E1,2.816862227E0,-9.058089582E0,5.180802637E0,1.080853439E1
1.397473537E1,2.357034264E0,-9.468258312E0,6.140161157E0,1.152844764E1
1.398472137E1,2.050499831E0,-9.766521274E0,7.090585130E0,1.224197226E1
1.399470738E1,2.122404211E0,-9.810489997E0,8.084008359E0,1.288803727E1
1.400469337E1,2.671079446E0,-1.035337941E1,8.506206565E0,1.366318707E1
1.401467937E1,2.389255346E0,-9.584946517E0,9.141257454E0,1.345891261E1
1.402466538E1,1.558740224E0,-7.912498414E0,9.870025177E0,1.274577182E1
1.403465037E1,5.079768598E-1,-6.517973734E0,1.034625750E1,1.223875265E1
1.404463637E1,-8.038377857E-1,-5.396897601E0,1.057689157E1,1.190139883E1
1.405462237E1,-2.123756672E0,-4.620374499E0,1.026630034E1,1.145666293E1
1.406460837E1,-3.422047877E0,-3.779416834E0,9.540111237E0,1.081702943E1
1.407459437E1,-4.501911664E0,-3.082229631E0,8.421494443E0,1.003438672E1
1.408458037E1,-4.905165476E0,-2.930061106E0,6.834493457E0,8.908210103E0
1.409456637E1,-4.959786072E0,-2.597329392E0,5.092162356E0,7.568072100E0
1.410455237E1,-4.796554030E0,-1.878762722E0,3.403498463E0,6.174178627E0
1.411453837E1,-4.342796062E0,-1.206021265E0,1.806244676E0,4.855603439E0
1.412452437E1,-3.719776404E0,-6.510067713E-1,3.382088006E-1,3.791428689E0
1.413451037E1,-2.888901093E0,-1.975549051E-1,-6.492629854E-1,2.967544421E0
1.414449537E1,-1.924098231E0,6.642963231E-2,-1.191965290E0,2.264364845E0
1.415448138E1,-1.182409916E0,2.400793657E-1,-1.352985914E0,1.812816095E0
1.416446737E1,-8.185218984E-1,4.114355287E-1,-1.083555719E0,1.418925751E0
1.417445337E1,-6.977622771E-1,3.682427314E-1,-4.458209574E-1,9.062180922E-1
1.418443938E1,-6.221922773E-1,-3.761776954E-2,3.706748807E-1,7.252159635E-1
1.419442537E1,-5.048363203E-1,-7.628675151E-1,1.188776364E0,1.500005267E0
1.420441137E1,-4.751155078E-1,-1.084120852E0,1.827061933E0,2.176972227E0
1.421439738E1,-5.503042692E-1,-1.156221991E0,2.179454763E0,2.527787006E0
1.422438337E1,-4.991031253E-1,-1.266315122E0,2.383239877E0,2.744538254E0
1.423436937E1,-3.553814882E-1,-1.431755949E0,2.506842853E0,2.908690803E0
1.424435437E1,-4.095348912E-1,-1.414000879E0,2.399299693E0,2.814916754E0
1.425434037E1,-5.171721911E-1,-1.283915533E0,2.069778978E0,2.489958070E0
1.426432637E1,-4.912661022E-1,-1.463358103E0,1.560244128E0,2.194794081E0
1.427431237E1,-3.990145808E-1,-1.629779216E0,1.031632590E0,1.969684931E0
1.428429837E1,-3.828739268E-1,-1.416998454E0,6.544322164E-1,1.607096322E0
1.429428437E1,-3.130634344E-1,-1.181507398E0,3.666533120E-1,1.276088985E0
1.430427037E1,7.186812758E-3,-1.337524268E0,2.291219759E-1,1.357026049E0
1.431425637E1,4.311666656E-1,-1.380781969E0,2.377349976E-1,1.465940473E0
1.432424237E1,7.103712130E-1,-1.161309946E0,1.998800504E-1,1.375943344E0
1.433422837E1,7.398417646E-1,-8.436269188E-1,1.966489521E-1,1.139185246E0
1.434421437E1,7.513584405E-1,-6.336496040E-1,2.797157402E-1,1.021906171E0
1.435419937E1,6.996240306E-1,-6.021278492E-1,4.112967304E-1,1.010542790E0
1.436418537E1,4.671738195E-1,-7.923743194E-1,6.292246505E-1,1.114464939E0
1.437417138E1,3.992800444E-1,-1.176518554E0,9.592041528E-1,1.569615580E0
1.438415737E1,5.093258125E-1,-1.465851356E0,1.197300435E0,1.960015641E0
1.439414337E1,7.135398191E-1,-1.494547151E0,1.234375291E0,2.065548987E0
1.440412938E1,9.030363840E-1,-1.383533377E0,1.130631579E0,2.001990780E0
1.441411575E1,1.008947001E0,-1.216598586E0,1.067652462E0,1.907345786E0
1.442410175E1,1.014584886E0,-1.170879499E0,1.017731273E0,1.853676951E0
1.443408775E1,9.204400367E-1,-1.150289991E0,9.395773888E-1,1.747335856E0
1.444407375E1,6.716328245E-1,-1.137599486E0,8.477971530E-1,1.569708016E0
1.445405875E1,4.673001194E-1,-9.838548446E-1,8.946006060E-1,1.409485722E0
1.446404475E1,2.558139306E-1,-8.593948129E-1,1.015615166E0,1.354796803E0
1.447403075E1,2.163118958E-2,-7.990629494E-1,9.818322927E-1,1.266082208E0
1.448401675E1,-1.278774369E-1,-7.244676805E-1,1.009714741E0,1.249291766E0
1.449400275E1,-3.257261646E-1,-7.794119194E-1,1.009462214E0,1.316280531E0
1.450398875E1,-4.913660896E-1,-9.606390595E-1,8.717782655E-1,1.387178929E0
1.451397475E1,-4.519769061E-1,-1.168409635E0,6.702474730E-1,1.420808176E0
1.452396075E1,-2.281975311E-1,-1.295346840E0,5.737043877E-1,1.434968387E0
1.453394675E1,2.143688661E-1,-1.384164291E0,5.096063326E-1,1.490490996E0
1.454393275E1,6.900995010E-1,-1.328027805E0,4.526860271E-1,1.563591958E0
1.455391875E1,8.964530039E-1,-1.106562466E0,5.193920866E-1,1.515874869E0
1.456390375E1,9.723446006E-1,-9.561121452E-1,3.526786128E-1,1.408540614E0
1.457388975E1,8.642512178E-1,-1.004425642E0,9.492136002E-2,1.328461931E0
1.458387575E1,6.483807868E-1,-1.059266677E0,-9.082947850E-2,1.245268458E0
1.459386175E1,6.557775146E-1,-1.305460184E0,-3.838562590E-1,1.510501926E0
1.460384775E1,1.038092448E0,-1.808011120E0,-6.174031153E-1,2.174333633E0
1.461383375E1,1.745576305E0,-2.188271341E0,-8.306063390E-1,2.919841604E0
1.462381975E1,2.261468541E0,-2.393324131E0,-1.499974537E0,3.618309546E0
1.463380575E1,2.542013855E0,-2.276473666E0,-1.796288037E0,3.856269895E0
1.464379175E1,3.000661265E0,-2.114986726E0,-1.299698630E0,3.894400262E0
1.465377775E1,3.689736333E0,-1.971820574E0,4.345656520E-1,4.206076306E0
1.466376375E1,4.175701350E0,-1.870650879E0,3.212290125E0,5.590583541E0
1.467374875E1,4.147622436E0,-1.934437570E0,6.314537991E0,7.798603120E0
1.468373475E1,4.083397204E0,-2.401072569E0,9.177915403E0,1.032828221E1
1.469372075E1,4.233590539E0,-3.155990794E0,1.172263360E1,1.285704885E1
1.470370675E1,3.904658931E0,-3.732121630E0,1.347866238E1,1.452065539E1
1.471369275E1,3.615180241E0,-4.356280326E0,1.431756943E1,1.539608719E1
1.472367875E1,2.967960711E0,-4.754917177E0,1.465629512E1,1.569155872E1
1.473366475E1,1.376056834E0,-4.969537473E0,1.418113869E1,1.508955034E1
1.474365075E1,-1.019883049E-1,-5.421212663E0,1.274824575E1,1.385343704E1
1.475363675E1,-1.155123299E0,-5.523706752E0,1.111172820E1,1.246259001E1
1.476362275E1,-2.191985493E0,-5.005366287E0,9.576708959E0,1.102596239E1
1.477360775E1,-2.885917844E0,-4.181024655E0,8.012046676E0,9.486958464E0
1.478359375E1,-3.101114675E0,-3.528062575E0,6.808458729E0,8.271592835E0
1.479357975E1,-3.326140677E0,-2.934901139E0,5.988567998E0,7.452503147E0
1.480356575E1,-3.515986320E0,-2.627983128E0,5.382863114E0,6.945766368E0
1.481355175E1,-3.776349970E0,-2.705575680E0,4.885602447E0,6.741666717E0
1.482353775E1,-4.327014427E0,-3.069436215E0,4.319889010E0,6.841486212E0
1.483352375E1,-4.799808006E0,-3.566903874E0,3.958506525E0,7.171522436E0
1.484350975E1,-4.931338783E0,-4.279583568E0,3.917964270E0,7.614681985E0
1.485349575E1,-5.186659793E0,-4.918816386E0,4.095999123E0,8.238531621E0
1.486348175E1,-4.704731110E0,-5.739266696E0,3.959866587E0,8.411552794E0
1.487346775E1,-3.657846789E0,-6.431116269E0,3.538490499E0,8.201220312E0
1.488345275E1,-2.694108705E0,-6.749193690E0,2.588912033E0,7.714421735E0
1.489343875E1,-2.029588434E0,-6.760304570E0,1.483305295E0,7.212568314E0
1.490342475E1,-1.968142968E0,-6.818316550E0,4.717311394E-1,7.112352465E0
1.491341075E1,-2.511045831E0,-6.964840758E0,-5.592534328E-1,7.424764128E0
1.492339675E1,-3.555471983E0,-7.076972228E0,-1.701587117E0,8.100636744E0
1.493338275E1,-4.858123457E0,-7.148680142E0,-3.406757993E0,9.290370892E0
1.494336875E1,-5.812762688E0,-6.456843433E0,-4.842627166E0,9.946359890E0
1.495335475E1,-5.849357488E0,-5.332533206E0,-6.321517813E0,1.012978188E1
1.496334075E1,-5.006973102E0,-3.815295642E0,-7.155945307E0,9.530677506E0
1.497332675E1,-3.742733157E0,-2.084797844E0,-6.762905996E0,8.005706155E0
1.498331175E1,-2.353790229E0,-1.130167675E0,-5.820949375E0,6.379738164E0
1.499329775E1,-1.431781969E0,-9.288383194E-1,-4.713129466E0,5.012617040E0
1.500328375E1,-1.718093222E0,-1.038171312E0,-3.856049858E0,4.347270925E0
1.501326975E1,-2.586883634E0,-1.804845876E0,-3.531251646E0,4.734888991E0
1.502325575E1,-3.177819035E0,-2.285944693E0,-3.188207198E0,5.048637648E0
1.503324175E1,-3.358576936E0,-2.973050128E0,-3.046115180E0,5.421981537E0
1.504322775E1,-2.615122177E0,-3.416391866E0,-2.987859371E0,5.238119987E0
1.505321375E1,-1.344101216E0,-3.103693590E0,-2.484863169E0,4.196911596E0
1.506319975E1,-1.155649549E-1,-2.754004074E0,-1.828234446E0,3.307617706E0
1.507318575E1,9.563249838E-1,-2.784191202E0,-1.112680261E0,3.147115423E0
1.508317175E1,1.635801848E0,-2.643478834E0,-5.163893221E-1,3.151267358E0
1.509315675E1,1.677871395E0,-2.564473010E0,-3.674671713E-1,3.086552504E0
1.510314275E1,1.329327056E0,-2.651235458E0,-5.405025816E-1,3.014681230E0
1.511312875E1,1.262160090E0,-2.650632902E0,-9.372952205E-1,3.081789287E0
1.512311475E1,1.197989237E0,-2.702441572E0,-1.430196350E0,3.283874276E0
1.513310075E1,1.587454730E0,-3.069494687E0,-1.765222365E0,3.880440717E0
1.514308675E1,2.673757471E0,-3.185428602E0,-1.482034110E0,4.415015231E0
1.515307275E1,3.729802625E0,-3.221234027E0,-1.254988480E0,5.085545434E0
1.516305875E1,4.489062408E0,-3.520610299E0,-1.276430220E0,5.845994550E0
1.517304475E1,4.936595430E0,-3.499861454E0,-1.222422997E0,6.173598838E0
1.518303075E1,4.512913785E0,-3.291432189E0,-2.043896570E0,5.947892894E0
1.519301575E1,3.651273934E0,-3.402307093E0,-3.312514325E0,5.990012191E0
1.520300175E1,2.761330635E0,-3.771783294E0,-4.300127760E0,6.351566330E0
1.521298775E1,2.683115355E0,-4.652729482E0,-3.982360826E0,6.686269317E0
1.522297375E1,3.249388370E0,-5.029264442E0,-2.360413370E0,6.436115046E0
1.523295975E1,3.493881506E0,-5.585814707E0,-1.245821508E0,6.705266971E0
1.524294575E1,3.223934271E0,-6.569871866E0,-8.254911947E-1,7.364672717E0
1.525293175E1,2.790062683E0,-7.598089535E0,-1.148809476E0,8.175278440E0
1.526291775E1,2.631858078E0,-8.239926703E0,-2.022781982E0,8.883395520E0
1.527290375E1,2.938074422E0,-8.562094252E0,-2.999523104E0,9.536187820E0
1.528288975E1,3.543084657E0,-8.924370777E0,-3.252654917E0,1.013792911E1
1.529287575E1,4.406751738E0,-9.760359478E0,-2.707426323E0,1.104600540E1
1.530286075E1,5.532313854E0,-1.106372490E1,-1.414270143E0,1.245040823E1
1.531284675E1,6.608085759E0,-1.255487365E1,-2.904782715E-1,1.419070214E1
1.532283275E1,7.288661315E0,-1.416034014E1,4.368063051E-1,1.593206253E1
1.533281875E1,7.788991186E0,-1.546806290E1,1.296018977E0,1.736689434E1
1.534280475E1,8.219681888E0,-1.638679380E1,2.613392571E0,1.851809931E1
1.535279075E1,7.385399405E0,-1.634745607E1,5.026396968E0,1.862922733E1
1.536277675E1,4.542683714E0,-1.629633620E1,8.136122838E0,1.877240112E1
1.537276275E1,4.649822831E-1,-1.597580003E1,1.106903534E1,1.944134610E1
1.538274875E1,-3.945465479E0,-1.508545736E1,1.290202167E1,2.023857418E1
1.539273475E1,-8.002184177E0,-1.328538150E1,1.329745717E1,2.042935830E1
1.540272075E1,-1.091003902E1,-1.139078540E1,1.175866180E1,1.967346107E1
1.541270604E1,-1.203226004E1,-9.388928552E0,9.115841947E0,1.777711550E1
1.542269204E1,-1.158097778E1,-6.496480538E0,6.856413499E0,1.494435384E1
1.543267804E1,-9.994601276E0,-3.597078723E0,5.483509483E0,1.195407488E1
1.544266404E1,-7.321488168E0,-8.657448891E-1,4.527136260E0,8.651512349E0
1.545265004E1,-4.146906736E0,1.279048603E0,3.312612559E0,5.459505726E0
1.546263604E1,-1.540671743E0,2.606293466E0,1.571200786E0,3.411027259E0
1.547262204E1,-2.208943588E-1,2.533524283E0,-5.850621656E-2,2.543808677E0
1.548260804E1,-5.217119694E-2,1.152926793E0,-1.051661496E0,1.561394865E0
1.549259404E1,-7.513748127E-1,-4.941821086E-1,-1.519962513E0,1.766087797E0
1.550258004E1,-1.682653248E0,-1.289549033E0,-1.154331586E0,2.413864137E0
1.551256504E1,-2.199399177E0,-1.723675267E0,-1.074997441E-1,2.796420813E0
1.552255104E1,-2.335581415E0,-1.824090671E0,1.175505816E0,3.188112489E0
1.553253704E1,-2.580573903E0,-1.454164526E0,2.119234582E0,3.642130057E0
1.554252304E1,-2.797145416E0,-1.101552864E0,2.751773361E0,4.075499702E0
1.555250904E1,-2.827062110E0,-1.043163153E0,3.208637370E0,4.401797736E0
1.556249504E1,-2.633064358E0,-9.756193337E-1,3.370853458E0,4.387198882E0
1.557248104E1,-2.159459186E0,-1.030247823E0,3.206945186E0,4.001146333E0
1.558246704E1,-1.399304194E0,-1.388441530E0,2.613416544E0,3.273494790E0
1.559245304E1,-6.860315931E-1,-1.451708403E0,1.686348689E0,2.328490613E0
1.560243904E1,-3.088201100E-1,-1.175693219E0,1.038049105E0,1.598490022E0
1.561242404E1,-1.251883024E-1,-9.449337307E-1,8.037021303E-1,1.246799495E0
1.562241004E1,5.471356630E-2,-1.491167461E0,7.532301342E-1,1.671505192E0
1.563239604E1,2.182941020E-1,-2.005682092E0,5.024114799E-1,2.079141714E0
1.564238204E1,4.008155233E-1,-1.903690571E0,2.352371402E-1,1.959598782E0
1.565236804E1,5.463275778E-1,-1.443712043E0,4.087601352E-1,1.596829087E0
1.566235404E1,3.926089561E-1,-1.153467953E0,8.102907729E-1,1.463284404E0
1.567234004E1,-2.666973531E-2,-1.129426248E0,1.203905450E0,1.650970399E0
1.568232604E1,-4.682578933E-1,-1.283096631E0,1.413428875E0,1.965549186E0
1.569231204E1,-7.019038600E-1,-1.254956905E0,1.555538288E0,2.118321323E0
1.570229804E1,-4.492708147E-1,-1.190624377E0,1.611553445E0,2.053420361E0
1.571228404E1,5.412826002E-2,-1.073416062E0,1.532028973E0,1.871433858E0
1.572226904E1,4.871870846E-1,-1.006277162E0,1.367194794E0,1.766116244E0
1.573225504E1,6.381171691E-1,-9.173562151E-1,1.323303255E0,1.732012544E0
1.574224104E1,6.186851174E-1,-9.691186917E-1,1.461316255E0,1.859410528E0
1.575222704E1,7.436775380E-1,-1.301229723E0,1.537577981E0,2.147184464E0
1.576221304E1,9.950990403E-1,-1.362560584E0,1.652278717E0,2.361528828E0
1.577219904E1,1.116335794E0,-1.146569408E0,1.831288301E0,2.431962963E0
1.578218504E1,9.898856628E-1,-1.018194665E0,1.840371950E0,2.324556499E0
1.579217104E1,5.670863628E-1,-8.937091979E-1,1.853163904E0,2.134132032E0
1.580215704E1,-3.755257308E-2,-7.809403816E-1,1.727341763E0,1.896045264E0
1.581214304E1,-7.357668400E-1,-6.621468866E-1,1.436404778E0,1.744434014E0
1.582212804E1,-1.289140897E0,-4.737417045E-1,1.098504856E0,1.758700763E0
1.583211404E1,-1.723905355E0,-4.888368765E-1,7.446008134E-1,1.940423030E0
1.584210004E1,-1.850926759E0,-7.593989468E-1,3.140030819E-1,2.025145566E0
1.585208604E1,-1.663322938E0,-9.831888467E-1,1.307849649E-1,1.936597070E0
1.586207204E1,-1.200489507E0,-1.173894031E0,-6.111714453E-2,1.680159980E0
1.587205804E1,-6.333043259E-1,-1.403939282E0,-1.711725605E-1,1.549651549E0
1.588204404E1,3.147316450E-1,-1.705137254E0,1.090353692E-1,1.737365182E0
1.589203004E1,1.515442761E0,-2.114892586E0,8.788599014E-2,2.603278963E0
1.590201604E1,2.584710808E0,-2.248859898E0,-1.866647583E-1,3.431172472E0
1.591200204E1,3.414898487E0,-2.194395130E0,-6.927450737E-1,4.117863208E0
1.592198804E1,3.852622805E0,-2.060442729E0,-1.171630574E0,4.523366547E0
1.593197304E1,3.875027581E0,-1.730283205E0,-1.602486168E0,4.536262850E0
1.594195904E1,3.558373371E0,-1.345471804E0,-2.114061989E0,4.352191806E0
1.595194504E1,2.754405777E0,-9.935702857E-1,-2.295160198E0,3.720442639E0
1.596193104E1,1.790070108E0,-4.470365936E-1,-1.977304385E0,2.704426989E0
1.597191704E1,9.710073423E-1,1.439853466E-1,-1.084305332E0,1.462636350E0
1.598190304E1,1.440093201E-1,3.473880520E-1,1.067064232E-1,3.909007594E-1
1.599188904E1,-8.475240880E-1,7.406375706E-3,1.228234545E0,1.492284166E0
1.600187504E1,-1.703637736E0,-6.817862222E-1,2.264034884E0,2.914286867E0
1.601186104E1,-2.068579422E0,-1.247569533E0,3.434970809E0,4.199342213E0
1.602184704E1,-1.813890495E0,-1.580101564E0,4.808792837E0,5.376932977E0
1.603183304E1,-1.213683164E0,-1.652925127E0,6.005379912E0,6.345847161E0
1.604181804E1,-3.625887662E-1,-1.557783619E0,6.994414220E0,7.174955798E0
1.605180404E1,5.355277705E-1,-1.584524691E0,8.028747493E0,8.201115460E0
1.606179004E1,9.671411633E-1,-1.752658453E0,9.107597957E0,9.324994061E0
1.607177604E1,5.401008779E-1,-2.223797562E0,1.014276855E1,1.039772756E1
1.608176204E1,-4.552256191E-1,-2.735490912E0,1.097881397E1,1.132362562E1
1.609174804E1,-1.690190894E0,-3.502487438E0,1.164642566E1,1.227857460E1
1.610173404E1,-2.928609535E0,-4.044286348E0,1.201026515E1,1.300690105E1
1.611172004E1,-3.481565516E0,-4.144042478E0,1.195534927E1,1.312344325E1
1.612170604E1,-3.361919205E0,-3.962741078E0,1.174435483E1,1.284272899E1
1.613169204E1,-2.959361211E0,-3.997481140E0,1.190087310E1,1.289838962E1
1.614167704E1,-2.860260261E0,-4.410054245E0,1.166826034E1,1.279757659E1
1.615166304E1,-2.845725253E0,-5.062695313E0,1.031706236E1,1.183937548E1
1.616164904E1,-2.613429408E0,-5.508124507E0,8.492273819E0,1.045409793E1
1.617163504E1,-2.173936307E0,-5.861565304E0,6.641523646E0,9.121062615E0
1.618162104E1,-1.411120248E0,-6.250708616E0,5.289212354E0,8.308934100E0
1.619160704E1,-7.679773968E-1,-6.650122561E0,4.283591834E0,7.947520265E0
1.620159304E1,-3.039780307E-1,-7.089832594E0,3.071809015E0,7.732667035E0
1.621157904E1,9.600367963E-2,-7.317005108E0,1.634609016E0,7.497981535E0
1.622156504E1,2.140490234E-1,-7.119172168E0,1.917477429E-2,7.122415111E0
1.623155104E1,1.352256328E-1,-6.444947857E0,-1.699531821E0,6.666636878E0
1.624153704E1,1.788663268E-3,-5.302476178E0,-3.137096686E0,6.160976582E0
1.625152204E1,-2.782801026E-1,-4.165571049E0,-4.092575578E0,5.846246389E0
1.626150804E1,-6.905859894E-1,-3.323776063E0,-4.828776281E0,5.902666914E0
1.627149404E1,-1.333586168E0,-2.646204221E0,-5.226196911E0,6.007826812E0
1.628148004E1,-2.244676507E0,-2.283273393E0,-5.309727895E0,6.200412916E0
1.629146604E1,-3.103902043E0,-2.098201416E0,-5.218952796E0,6.424494172E0
1.630145204E1,-4.129570912E0,-1.891396508E0,-5.047752169E0,6.790474109E0
1.631143804E1,-5.321641012E0,-1.735249538E0,-5.005107840E0,7.508798740E0
1.632142404E1,-6.132438154E0,-1.715953726E0,-5.062302380E0,8.134998482E0
1.633141004E1,-6.491031518E0,-1.547770262E0,-4.884006742E0,8.269377534E0
1.634139604E1,-6.682158287E0,-1.598004277E0,-4.751047490E0,8.353281348E0
1.635138204E1,-6.775599716E0,-1.672091423E0,-4.641257830E0,8.381283642E0
1.636136704E1,-6.648950779E0,-1.618269557E0,-4.292943871E0,8.078162533E0
1.637135304E1,-6.253649181E0,-1.570295491E0,-3.812678136E0,7.490692262E0
1.638133904E1,-5.578132051E0,-1.519216554E0,-3.149678140E0,6.583619711E0
1.639132504E1,-4.729242638E0,-1.671876538E0,-2.234569595E0,5.491284764E0
1.640131104E1,-3.738922527E0,-1.929182824E0,-1.588066349E0,4.497025990E0
1.641129654E1,-2.809146826E0,-2.073947166E0,-1.389469762E0,3.758083149E0
1.642128254E1,-1.864366000E0,-2.055251571E0,-1.615302533E0,3.210782128E0
1.643126854E1,-7.866218287E-1,-2.079389754E0,-2.446820015E0,3.305989086E0
1.644125454E1,3.499149263E-1,-1.836932472E0,-3.045310603E0,3.573608545E0
1.645124054E1,1.153638107E0,-1.649933691E0,-2.994629862E0,3.608458130E0
