"Time (s)","Linear Acceleration x (m/s^2)","Linear Acceleration y (m/s^2)","Linear Acceleration z (m/s^2)","Absolute acceleration (m/s^2)"
2.763541706E-3,3.628071597E-1,4.740261716E-1,3.046013439E-1,6.701580598E-1
1.274954167E-2,4.771870667E-1,4.577638954E-1,2.818194222E-1,7.188028014E-1
2.273554169E-2,5.065747706E-1,5.180738318E-1,3.359576225E-2,7.253600269E-1
3.272154171E-2,4.392648765E-1,5.772014612E-1,-2.125632459E-1,7.558427694E-1
4.270754167E-2,3.797903976E-1,6.887096179E-1,-4.286699045E-1,8.957229319E-1
5.269354169E-2,4.581663300E-1,7.942863590E-1,-7.042690587E-1,1.156201588E0
6.267954170E-2,4.884843990E-1,7.958335322E-1,-7.863464248E-1,1.220782011E0
7.266554167E-2,2.970417346E-1,1.507961249E0,-2.879408723E-1,1.563678633E0
8.265154168E-2,5.980457252E-1,1.206604525E0,2.997458160E-2,1.347015829E0
9.263754170E-2,8.742474715E-1,1.535324464E0,7.270597512E-1,1.910535457E0
1.026235417E-1,1.001079572E0,1.803504671E0,8.860870600E-1,2.244980999E0
1.126095417E-1,1.232038743E0,2.050871714E0,6.151130533E-1,2.470295189E0
1.225955417E-1,1.069549225E0,2.153810191E0,5.375497377E-1,2.464100973E0
1.325815417E-1,1.051347647E0,2.247833419E0,6.413787460E-1,2.563094546E0
1.425675417E-1,1.452450561E0,2.523910291E0,7.694041175E-1,3.011929362E0
1.525535417E-1,1.601215714E0,2.879111100E0,6.736173695E-1,3.362578304E0
1.625395417E-1,1.237374182E0,3.103426664E0,1.073392088E0,3.509205395E0
1.725255417E-1,1.015739273E0,3.149412092E0,1.847683309E0,3.790047019E0
1.825115417E-1,1.775438328E0,3.144081770E0,2.376550516E0,4.322663969E0
1.924975417E-1,2.596670411E0,2.990252051E0,2.938679025E0,4.931545292E0
2.024835417E-1,2.745929654E0,2.479500688E0,3.436806834E0,5.049722224E0
2.124695417E-1,2.586119987E0,1.757731497E0,3.575169498E0,4.749681415E0
2.224555417E-1,2.890485688E0,1.189548197E0,3.474308537E0,4.673409059E0
2.324415417E-1,3.477476266E0,7.635902309E-1,3.040994189E0,4.682259804E0
2.424275417E-1,3.457735773E0,6.453928596E-1,2.255911932E0,4.178708804E0
2.524135417E-1,2.314792078E0,1.209287812E0,1.889317238E-1,2.618460344E0
2.623995417E-1,-5.421100397E0,2.241602626E0,-4.168225100E0,7.196333256E0
2.723855417E-1,-5.573526199E0,2.910653320E0,-1.500511311E0,6.464335328E0
2.823715417E-1,1.162381302E0,2.130054708E0,3.719074738E0,4.440695920E0
2.923575417E-1,1.243577054E0,2.107024280E0,2.894327894E0,3.789877196E0
3.023435417E-1,1.573471114E0,2.622031247E0,2.841551510E0,4.174359135E0
3.123295417E-1,2.147885938E0,2.612109107E0,3.240299458E0,4.683595688E0
3.223150417E-1,2.303576095E0,2.521091348E0,3.160245813E0,4.652904255E0
3.323010417E-1,2.658126109E0,2.447846201E0,3.260030887E0,4.866763485E0
3.422870417E-1,2.428056300E0,2.657873510E0,3.337289563E0,4.908895050E0
3.522730417E-1,2.245813791E0,3.024603859E0,2.909442946E0,4.759912430E0
3.622590417E-1,2.194250996E0,2.895259940E0,2.597491068E0,4.465896036E0
3.722450417E-1,1.900914752E0,2.424046279E0,3.031130521E0,4.321716036E0
3.822310417E-1,1.738193172E0,1.853914686E0,4.079758481E0,4.806531435E0
3.922170417E-1,1.544991081E0,1.438806814E0,4.530320946E0,4.998096674E0
4.022030417E-1,1.757767604E0,1.020390002E0,4.692348461E0,5.113616801E0
4.121890417E-1,2.116356436E0,8.355197543E-1,4.233714500E0,4.806391192E0
4.221750417E-1,2.679690056E0,9.882788479E-1,3.623252907E0,4.613609813E0
4.321610417E-1,3.182653805E0,1.425391547E0,3.335517272E0,4.825629677E0
4.421470417E-1,3.319266690E0,1.029625095E0,3.085219020E0,4.647175012E0
4.521330417E-1,3.681001178E0,3.323773724E-1,3.110985360E0,4.830991027E0
4.621190417E-1,3.494886058E0,-3.867067766E-1,2.990884135E0,4.616184420E0
4.721050417E-1,3.051423283E0,-1.120516554E0,3.020694410E0,4.437492098E0
4.820910417E-1,2.774044821E0,-1.767567099E0,2.943078470E0,4.413765852E0
4.920770417E-1,2.280634837E0,-2.128545542E0,3.221707066E0,4.484573313E0
5.020630417E-1,2.449339580E0,-2.700147709E0,3.533514519E0,5.076986004E0
5.120490417E-1,2.508504924E0,-2.979691395E0,3.589959446E0,5.297071510E0
5.220350417E-1,2.317540123E0,-3.540697823E0,3.761543065E0,5.661867142E0
5.320210417E-1,2.240613862E0,-4.568491570E0,3.815705824E0,6.360116087E0
5.420070417E-1,1.814230803E0,-5.514399154E0,4.186468413E0,7.157272470E0
5.519930417E-1,1.016941022E0,-6.448959047E0,4.308098685E0,7.821953472E0
5.619790417E-1,1.999320906E-1,-7.084390590E0,4.303762389E0,8.291618273E0
5.719650417E-1,-3.538629663E-1,-7.614876307E0,4.263050273E0,8.734137496E0
5.819510417E-1,-4.959526455E-1,-8.129821878E0,4.363672669E0,9.240217095E0
5.919370417E-1,-8.298690051E-2,-8.276260132E0,3.936773009E0,9.165235966E0
6.019230417E-1,1.823693937E-1,-8.669068478E0,4.148472036E0,9.612274814E0
6.119090417E-1,1.738061464E-1,-9.422063554E0,4.348221401E0,1.037846422E1
6.218950417E-1,-6.056762320E-1,-9.889973538E0,4.334870161E0,1.081524478E1
6.318810417E-1,-1.515655015E0,-1.000499763E1,4.121983857E0,1.092647878E1
6.418670417E-1,-1.830762636E0,-1.028341046E1,4.337819497E0,1.131003539E1
6.518530417E-1,-2.170358104E0,-1.089022164E1,4.850314500E0,1.211746394E1
6.618390417E-1,-2.394105611E0,-1.152097482E1,5.207729650E0,1.286798549E1
6.718250417E-1,-1.835288673E0,-1.197008776E1,4.886226345E0,1.305857930E1
6.818110417E-1,-1.386635909E0,-1.174366954E1,2.907152592E0,1.217735889E1
6.917970417E-1,-8.259379220E-1,-1.089220735E1,-4.494742978E-1,1.093272068E1
7.017830417E-1,-4.316218713E-1,-1.070208864E1,-1.256165525E0,1.078419912E1
7.117690417E-1,-1.373581708E0,-1.067883193E1,-7.283303511E-1,1.079141525E1
7.217550417E-1,-2.095373118E0,-1.100749573E1,-4.533415000E-1,1.121432429E1
7.317410417E-1,-2.422824503E0,-1.217658920E1,-2.696348481E-1,1.241821670E1
7.417270417E-1,-3.005151926E0,-1.313224760E1,-3.615998559E-1,1.347655815E1
7.517130417E-1,-3.165886622E0,-1.384280242E1,8.384702593E-2,1.420045940E1
7.616990417E-1,-2.359346984E0,-1.517158217E1,1.079069735E0,1.539181001E1
7.716850417E-1,-1.843355638E0,-1.648345997E1,2.354435323E0,1.675248573E1
7.816710417E-1,-6.145251158E-1,-1.704573290E1,3.081375352E0,1.733290297E1
7.916570417E-1,1.517592490E0,-1.622364011E1,2.334649661E0,1.646086797E1
8.016430417E-1,3.786395486E0,-1.231617393E1,-2.203022112E0,1.307204030E1
8.116290417E-1,5.359070794E0,-8.017412665E0,-7.711347764E0,1.234760827E1
8.216150417E-1,5.737753437E0,-5.763498142E0,-1.010874711E1,1.297407004E1
8.316010417E-1,5.194972780E0,-5.299526258E0,-9.168293810E0,1.179535214E1
8.415870417E-1,4.324980181E0,-6.160116534E0,-6.969274117E0,1.025783949E1
8.515730417E-1,3.484821246E0,-7.761725619E0,-4.897837161E0,9.817187609E0
8.615590417E-1,2.124564757E0,-9.751168824E0,-4.084034550E0,1.078324659E1
8.715450417E-1,6.244990039E-1,-1.133116251E1,-4.597311619E0,1.224420340E1
8.815310417E-1,5.694082922E-1,-1.231047290E1,-5.029643927E0,1.331049536E1
8.915170417E-1,9.254639643E-1,-1.190413819E1,-5.607093894E0,1.319107620E1
9.015040417E-1,4.464167302E0,-1.158893116E1,-5.891536378E0,1.374562898E1
9.114900417E-1,6.575735453E0,-9.131693748E0,-7.127645953E0,1.332034025E1
9.214760417E-1,8.618010006E0,-7.334718078E0,-9.181765795E0,1.457302333E1
9.314620417E-1,1.001888827E1,-5.319266458E0,-1.133564849E1,1.603650974E1
9.414480417E-1,1.053808243E1,-5.384276971E0,-1.231837833E1,1.708168799E1
9.514340417E-1,1.027320005E1,-6.383597701E0,-1.208132519E1,1.709524429E1
9.614200417E-1,1.011773428E1,-7.574529349E0,-1.173324980E1,1.724561372E1
9.714060417E-1,1.131877226E1,-7.470751212E0,-1.160736392E1,1.785098390E1
9.813920417E-1,1.237326848E1,-7.184693727E0,-1.174313159E1,1.850996317E1
9.913780417E-1,1.354249293E1,-6.690498755E0,-1.177437561E1,1.915196620E1
1.001364042E0,1.439292484E1,-6.151056858E0,-1.138581994E1,1.935532696E1
1.011350042E0,1.473620200E1,-6.358169330E0,-1.208320449E1,2.008944493E1
1.021336042E0,1.525634926E1,-6.818128270E0,-1.224946305E1,2.071937284E1
1.031322042E0,1.622385997E1,-6.968406390E0,-1.117417529E1,2.089580133E1
1.041308042E0,1.842688266E1,-7.812136220E0,-9.460427136E0,2.213773156E1
1.051294042E0,2.032328439E1,-9.948044575E0,-5.521166722E0,2.329125933E1
1.061280042E0,1.923453517E1,-1.153910938E1,-5.507913423E-1,2.243706219E1
1.071266042E0,1.694852762E1,-1.092558092E1,3.226422261E0,2.042132972E1
1.081252042E0,1.672431029E1,-1.072547517E1,7.517248271E0,2.124258444E1
1.091238042E0,1.506144519E1,-9.600431113E0,1.435242585E1,2.291304294E1
1.101224042E0,1.255052683E1,-6.451028962E0,1.926099733E1,2.387713376E1
1.111210042E0,1.129981909E1,-3.179001927E0,1.811349412E1,2.158449986E1
1.121196042E0,1.105738885E1,-1.343362128E0,1.458837738E1,1.835459682E1
1.131182042E0,9.813375013E0,1.344056485E0,1.415270485E1,1.727448614E1
1.141168042E0,7.716979802E0,2.599405738E0,1.198679910E1,1.449110210E1
1.151154042E0,5.072432681E0,2.768420969E0,8.752042807E0,1.048770620E1
1.161140042E0,2.178674306E0,1.927649684E0,5.230320368E0,5.984873114E0
1.171126042E0,-7.644591272E-1,8.560241854E-1,2.824492258E0,3.048759040E0
1.181112042E0,-2.868545181E0,-2.417146857E-1,2.526048033E0,3.829868941E0
1.191098042E0,-3.829229264E0,-1.094745535E0,3.308791988E0,5.177795763E0
1.201084042E0,-3.933994412E0,-1.531568505E0,4.032673777E0,5.838190808E0
1.211070042E0,-3.464159524E0,-1.538042103E0,4.808796346E0,6.122948392E0
1.221056042E0,-2.593123198E0,-8.826490434E-1,5.077494031E0,5.769254968E0
1.231042042E0,-1.426193785E0,-5.516526371E-2,4.607612951E0,4.823605397E0
1.241028042E0,-5.716033369E-1,4.950333171E-1,3.398820398E0,3.481920225E0
1.251014042E0,7.707331896E-2,6.580542742E-1,2.128313992E0,2.229057239E0
1.261000042E0,3.687265885E-1,6.084415264E-1,1.169971719E0,1.369304280E0
1.270986042E0,3.561334401E-1,1.344684184E-1,3.976352227E-1,5.504784764E-1
1.280972042E0,3.753327727E-2,-5.376041168E-1,-2.172375101E-1,5.810499712E-1
1.290958042E0,-5.941390908E-1,-1.236635094E0,-6.900556469E-1,1.535722765E0
1.300944042E0,-9.742695040E-1,-1.615555279E0,-7.536862171E-1,2.031566598E0
1.310930042E0,-9.707547426E-1,-1.486604586E0,-6.017416406E-1,1.874686898E0
1.320916667E0,-5.555123842E-1,-9.997379288E-1,-7.677218735E-1,1.377485684E0
1.330902667E0,9.765551805E-2,-4.027984603E-1,-1.251354436E0,1.318207542E0
1.340888667E0,7.591352373E-1,1.644544020E-1,-1.595499330E0,1.774528013E0
1.350874667E0,1.278085567E0,7.296237552E-1,-2.091257848E0,2.557188481E0
1.360860667E0,1.428278317E0,8.242185482E-1,-2.627600135E0,3.102192392E0
1.370846667E0,1.414533852E0,7.653400102E-1,-2.916474223E0,3.330536480E0
1.380832667E0,1.467185690E0,7.244406371E-1,-2.949534965E0,3.373011206E0
1.390818667E0,1.470182973E0,5.947602113E-1,-2.717722685E0,3.146616322E0
1.400804667E0,1.399733380E0,3.332241954E-1,-2.294244524E0,2.708108165E0
1.410790667E0,1.401558296E0,2.011640990E-1,-1.977380984E0,2.432050207E0
1.420776667E0,1.626159205E0,3.473197858E-1,-2.258054352E0,2.804252886E0
1.430762667E0,2.052317145E0,6.246818756E-1,-2.535490701E0,3.321286830E0
1.440748667E0,2.600813456E0,7.439602509E-1,-2.837231587E0,3.920151855E0
1.450734667E0,3.036502358E0,1.032638457E0,-3.501291098E0,4.748234209E0
1.460720667E0,3.369850368E0,1.123833679E0,-4.260071409E0,5.546810079E0
1.470706667E0,3.671087224E0,1.219688839E0,-5.082223259E0,6.386980157E0
1.480692667E0,4.016297480E0,1.164462765E0,-5.119092293E0,6.609971625E0
1.490678667E0,4.238611543E0,1.302734212E0,-5.044870661E0,6.716670621E0
1.500664667E0,4.436304735E0,1.101021937E0,-5.319146590E0,7.013299470E0
1.510650667E0,4.688503332E0,1.205973610E0,-5.773275272E0,7.534397335E0
1.520636667E0,5.302625282E0,1.264384371E0,-5.959832441E0,8.076887114E0
1.530622667E0,6.201225969E0,9.399656439E-1,-6.245050265E0,8.850954284E0
1.540608667E0,7.055644509E0,8.291766948E-1,-6.255923163E0,9.466056626E0
1.550594667E0,7.986897801E0,2.610097665E-1,-6.263900519E0,1.015357633E1
1.560580667E0,9.290751463E0,-6.368746358E-1,-5.764713194E0,1.095242394E1
1.570566667E0,1.116901454E1,-1.037839848E0,-5.265029440E0,1.239130874E1
1.580552667E0,1.306472512E1,-1.747595349E0,-4.898553737E0,1.406189748E1
1.590538667E0,1.437004000E1,-2.830393853E0,-3.790494677E0,1.512868233E1
1.600524667E0,1.325434448E1,-4.026063500E0,-2.984855071E0,1.417025740E1
1.610510667E0,1.050445275E1,-6.327192535E0,-2.744456448E0,1.256618217E1
1.620496667E0,7.151833545E0,-8.436282637E0,-1.528422264E0,1.116493002E1
1.630482667E0,3.493598501E0,-9.231678797E0,5.956429946E-1,9.888574947E0
1.640468667E0,9.897391900E-2,-8.860423872E0,1.610512640E0,9.006145569E0
1.650455667E0,-1.302328123E0,-8.175548274E0,1.657152371E0,8.442855092E0
1.660441667E0,-1.488862050E0,-6.901982020E0,1.438710335E0,7.205827741E0
1.670427667E0,-2.100983521E-1,-5.564437872E0,2.309077156E-1,5.573188362E0
1.680413667E0,6.552582818E-1,-5.511138747E0,-4.376236727E-1,5.567183146E0
1.690399667E0,8.365962267E-2,-5.790065551E0,6.324056089E-2,5.791015230E0
1.700385667E0,-9.588059574E-1,-6.200366428E0,4.809005968E-1,6.292465184E0
1.710371667E0,-2.412288990E0,-6.903043290E0,1.034058307E0,7.385148706E0
1.720357667E0,-3.786783156E0,-7.047865373E0,1.920675710E0,8.228069529E0
1.730343667E0,-3.823135004E0,-6.583217551E0,2.274112999E0,7.945231558E0
1.740329667E0,-3.012611219E0,-6.615284266E0,1.915189998E0,7.517031662E0
1.750315667E0,-2.097474607E0,-5.887950865E0,1.017115269E0,6.332605198E0
1.760301667E0,-7.260171926E-1,-5.490158937E0,3.612988704E-1,5.549728191E0
1.770287667E0,-3.841866267E-1,-5.968281083E0,1.850279765E0,6.260312585E0
1.780273667E0,-8.597471076E-1,-6.186310891E0,4.696351757E0,7.814430712E0
1.790259667E0,-1.625918300E0,-6.763684845E0,6.390627224E0,9.446224606E0
1.800245667E0,-2.893526241E0,-7.936185485E0,6.570991607E0,1.070203088E1
1.810231667E0,-3.694980116E0,-8.860916793E0,5.966821033E0,1.130361348E1
1.820217667E0,-4.173695755E0,-9.908581717E0,4.567249036E0,1.168158772E1
1.830203667E0,-3.869721525E0,-1.067033592E1,3.347305259E0,1.183364973E1
1.840189667E0,-2.798385318E0,-1.086083002E1,2.837368997E0,1.156889156E1
1.850175667E0,-1.039688737E0,-1.119452711E1,3.452212493E0,1.176078913E1
1.860161667E0,1.259665668E-2,-1.161584473E1,4.408887141E0,1.242442325E1
1.870147667E0,-1.861203825E-1,-1.080040373E1,3.394208114E0,1.132272097E1
1.880133667E0,-1.838769228E0,-9.875109916E0,-4.659809875E-1,1.005564550E1
1.890119667E0,-3.864043586E0,-1.023663975E1,-3.861645058E0,1.160309996E1
1.900105667E0,-3.994051164E0,-1.063561165E1,-5.699573457E0,1.271038227E1
1.910091667E0,-2.027943319E0,-1.130504183E1,-4.757357805E0,1.243177293E1
1.920077667E0,-5.035536604E-1,-1.259459495E1,-2.550596690E0,1.286012954E1
1.930063667E0,-8.651519814E-1,-1.468598378E1,5.706037554E-1,1.472250645E1
1.940049667E0,-7.504345804E-1,-1.731405461E1,5.462755376E0,1.817089253E1
1.950035667E0,8.937396035E-1,-1.815694712E1,8.295640143E0,1.998227076E1
1.960021667E0,4.329480198E0,-1.358466773E1,6.364027655E0,1.561372614E1
1.970007667E0,6.088198705E0,-5.935719109E0,-4.657917717E0,9.695108162E0
1.979993667E0,6.759398251E0,-5.553860843E-1,-1.628507681E1,1.764090828E1
1.989979667E0,7.035434192E0,-6.346450925E-1,-1.467466006E1,1.628636720E1
1.999965667E0,7.413030422E0,-3.112575218E0,-7.955111167E0,1.131039072E1
2.009951667E0,6.767801285E0,-6.069434406E0,-3.196194495E0,9.636224753E0
2.019937667E0,5.375300910E0,-8.386809345E0,-8.061638081E-1,9.994114816E0
2.029923667E0,4.603928620E0,-1.028853847E1,2.414315343E-2,1.127167980E1
2.039909667E0,4.733124604E0,-1.088463871E1,1.613778895E0,1.197840185E1
2.049895667E0,5.857050669E0,-9.518495250E0,8.809169519E-1,1.121083445E1
2.059881667E0,7.831181186E0,-5.891455686E0,-2.981686465E0,1.024339314E1
2.069867667E0,9.578143281E0,-1.346901155E0,-8.541609117E0,1.290403262E1
2.079853667E0,9.533906171E0,-4.092463312E-1,-1.195378572E1,1.529561514E1
2.089839667E0,8.462499797E0,-2.229051724E0,-1.162927695E1,1.455412851E1
2.099825667E0,7.497110460E0,-4.880779079E0,-9.882732346E0,1.333030638E1
2.109811667E0,6.539652870E0,-8.303045057E0,-8.535099996E0,1.358512233E1
2.119797667E0,6.995650322E0,-1.101408788E1,-8.107079133E0,1.536144483E1
2.129783667E0,8.222102051E0,-1.167671190E1,-7.468656739E0,1.611612225E1
2.139769667E0,1.026275926E1,-1.068175436E1,-8.776995800E0,1.721800683E1
2.149755667E0,1.294340125E1,-8.249498595E0,-1.129954544E1,1.905952754E1
2.159741667E0,1.577990193E1,-5.543504255E0,-1.328583291E1,2.135998830E1
2.169727667E0,1.820717237E1,-3.470553747E0,-1.360788234E1,2.299391943E1
2.179713667E0,2.016783499E1,-1.958319646E0,-1.151515567E1,2.330612353E1
2.189699667E0,2.032017835E1,-2.020875644E0,-6.765710905E0,2.151205314E1
2.199685667E0,1.902734376E1,-4.407298745E0,-1.961781782E0,1.962938309E1
2.209671667E0,1.684428931E1,-8.410833215E0,1.443341914E0,1.888267549E1
2.219657667E0,1.301104184E1,-1.020892044E1,4.786730123E0,1.721691179E1
2.229643667E0,1.050810142E1,-9.930214076E0,7.106954411E0,1.611018771E1
2.239629667E0,9.598337810E0,-7.187274688E0,8.470071942E0,1.468084210E1
2.249615667E0,1.035230820E1,-3.609245025E0,7.553570005E0,1.331365294E1
2.259602667E0,1.194201177E1,-1.523336502E0,5.838999145E0,1.338006391E1
2.269588667E0,1.249357495E1,5.193143186E-1,6.454619737E0,1.407200122E1
2.279574667E0,1.169986688E1,1.467810173E0,7.828916559E0,1.415391416E1
2.289560667E0,9.101926743E0,1.591895837E0,9.263184180E0,1.308379853E1
2.299546667E0,5.837045006E0,2.949570926E-1,9.735797664E0,1.135534457E1
2.309532667E0,2.131381441E0,-8.606582500E-1,9.994746287E0,1.025565565E1
2.319518667E0,-6.966548145E-2,-1.182310221E0,9.376069940E0,9.450576610E0
2.329504667E0,-1.222994270E0,-1.037855051E0,7.227600596E0,7.403449768E0
2.339490667E0,-1.964022435E0,-5.753438008E-1,5.049513350E0,5.448485082E0
2.349476667E0,-1.912549980E0,-2.105987276E-1,3.651417190E0,4.127353480E0
2.359462667E0,-1.500220120E0,3.500171064E-1,2.978053590E0,3.352905541E0
2.369448667E0,-1.208332377E0,6.259669474E-1,2.856760118E0,3.164329333E0
2.379434667E0,-9.556496304E-1,5.141518119E-1,3.173454673E0,3.353868343E0
2.389420667E0,-8.223208344E-1,2.444498670E-1,3.270920742E0,3.381551388E0
2.399406667E0,-9.651677281E-1,-2.306776276E-1,2.945449516E0,3.108123833E0
2.409392667E0,-1.158736879E0,-7.391877535E-1,2.530003089E0,2.879233461E0
2.419378667E0,-1.497054437E0,-9.540512940E-1,2.003201119E0,2.676602433E0
2.429364667E0,-1.746622372E0,-1.308917350E0,9.433734012E-1,2.377794717E0
2.439350667E0,-1.607491384E0,-1.331577357E0,1.309799695E-1,2.091478559E0
2.449336667E0,-9.756780982E-1,-8.953098732E-1,-2.558916986E-1,1.348706077E0
2.459322667E0,-3.817331350E-1,-5.143102714E-1,-7.178919017E-1,9.620831691E-1
2.469308667E0,1.498161900E-1,-2.481415066E-1,-1.065243409E0,1.103975823E0
2.479294667E0,6.099411911E-1,-8.706504107E-3,-1.180561026E0,1.328844760E0
2.489280667E0,8.211584079E-1,9.640976876E-2,-1.319659270E0,1.557272155E0
2.499266667E0,7.601070446E-1,-1.631139278E-2,-1.427950873E0,1.617736838E0
2.509252667E0,7.479384041E-1,-1.034705740E-1,-1.538957339E0,1.714207603E0
2.519238667E0,7.015980506E-1,-1.276634288E-1,-1.806615390E0,1.942265930E0
2.529224667E0,7.058419597E-1,-1.828064731E-1,-2.087384067E0,2.211063844E0
2.539210667E0,7.840660107E-1,-8.359150261E-2,-2.479285510E0,2.601654030E0
2.549196667E0,7.436968338E-1,8.680191636E-4,-3.334648960E0,3.416572760E0
2.559182667E0,6.340995473E-1,-6.811713874E-3,-3.494082066E0,3.551160109E0
2.569168667E0,8.523544729E-1,9.610542119E-2,-3.204010468E0,3.316839984E0
2.579154667E0,1.209384291E0,3.765460700E-1,-3.246463593E0,3.484813218E0
2.589140667E0,1.580809370E0,5.165205190E-1,-3.384102371E0,3.770663147E0
2.599126667E0,1.904553913E0,5.872882006E-1,-3.441022092E0,3.976539460E0
2.609112667E0,2.187599496E0,5.147198689E-1,-3.492576408E0,4.153145563E0
2.619098667E0,2.419338101E0,4.095372301E-1,-3.516155305E0,4.287687689E0
2.629084667E0,2.902297064E0,6.571922484E-1,-3.553799679E0,4.635161492E0
2.639070667E0,3.539334252E0,1.068993520E0,-3.926636860E0,5.393339516E0
2.649056667E0,4.118676379E0,1.221139241E0,-4.574362759E0,6.275306432E0
2.659042667E0,4.836322698E0,1.643914568E0,-5.281775281E0,7.347763092E0
2.669028667E0,5.944568869E0,2.209837042E0,-6.160389599E0,8.841474923E0
2.679014667E0,6.949319909E0,1.829269257E0,-7.018021769E0,1.004449614E1
2.689000667E0,7.305317109E0,2.351826149E-1,-7.074628664E0,1.017218461E1
2.698986667E0,6.510505670E0,-1.741040035E0,-5.748791810E0,8.858132521E0
2.708972667E0,5.733793702E0,-2.699958844E0,-4.155775793E0,7.578696486E0
2.718958667E0,6.419829388E0,-2.560434923E0,-2.687813008E0,7.415819249E0
2.728944667E0,8.346637219E0,-1.254586776E0,-2.176510836E0,8.716509638E0
2.738930667E0,1.076569933E1,-7.672558504E-1,-3.035227080E0,1.121167102E1
2.748917667E0,1.244655748E1,-1.484530286E0,-3.667141230E0,1.306018944E1
2.758903667E0,1.205697622E1,-3.431748993E0,-3.687814646E0,1.306704073E1
2.768889667E0,9.697505418E0,-5.895614811E0,-2.360449477E0,1.159187677E1
2.778875667E0,5.100967094E0,-7.433699160E0,6.614494599E-2,9.015770829E0
2.788861667E0,6.035597226E-1,-7.357799377E0,1.416582717E0,7.517193799E0
2.798847667E0,-1.402736656E0,-7.023138667E0,2.107939369E0,7.465624907E0
2.808833667E0,-1.863578526E0,-6.160966719E0,2.447999983E0,6.886446090E0
2.818819667E0,-1.295003023E0,-5.128679388E0,2.208608542E0,5.732219185E0
2.828805667E0,-1.316616525E0,-4.762438450E0,1.848538172E0,5.275546649E0
2.838791667E0,-1.600020689E0,-4.835017599E0,2.040760562E0,5.486544000E0
2.848777667E0,-1.752419594E0,-4.719904050E0,1.657315509E0,5.300487088E0
2.858763667E0,-1.378905598E0,-4.732842184E0,1.125488880E0,5.056471201E0
2.868749667E0,-1.013210791E0,-4.598059770E0,1.119809625E0,4.839702816E0
2.878735667E0,-7.995462218E-1,-4.760228203E0,7.537264167E-1,4.885401746E0
2.888721667E0,-1.057659278E0,-5.332959468E0,6.590740286E-1,5.476630205E0
2.898707667E0,-1.936690502E0,-5.832012307E0,1.624720205E0,6.356323890E0
2.908693667E0,-3.245317831E0,-6.281224650E0,2.658439520E0,7.553354990E0
2.918679667E0,-3.385243163E0,-6.193127575E0,3.029156208E0,7.680526529E0
2.928665667E0,-2.374916804E0,-6.164967969E0,3.200879284E0,7.341163946E0
2.938651667E0,-1.786205391E0,-6.244299483E0,3.854459123E0,7.552394379E0
2.948637667E0,-1.088597188E0,-6.107127897E0,4.076364757E0,7.422856904E0
2.958623667E0,-5.745550114E-1,-6.497920123E0,4.218597109E0,7.768503134E0
2.968609667E0,-3.950142083E-1,-6.876267720E0,4.520060252E0,8.238327419E0
2.978595667E0,-1.954902533E-1,-7.198917080E0,4.646678783E0,8.570545331E0
2.988581667E0,-2.583051369E-1,-7.812751932E0,4.957320886E0,9.256394798E0
2.998567667E0,-2.730836821E-1,-8.358076127E0,5.490641917E0,1.000395721E1
3.008553667E0,-6.890133807E-1,-9.123601786E0,5.559581759E0,1.070625043E1
3.018539667E0,-1.037528191E0,-9.767365612E0,5.231882744E0,1.112881363E1
3.028525667E0,-7.417005944E-1,-1.003316717E1,4.402505490E0,1.098164914E1
3.038511667E0,-6.935851724E-1,-1.051823815E1,3.792405839E0,1.120253258E1
3.048497667E0,9.082399674E-2,-1.079708602E1,3.492610906E0,1.134828826E1
3.058483667E0,6.911405247E-1,-1.054156971E1,2.167415639E0,1.078425045E1
3.068469667E0,3.242376097E-1,-1.034570553E1,-1.807735424E-1,1.035236359E1
3.078455667E0,6.680239230E-1,-1.014334275E1,-1.908693742E0,1.034295750E1
3.088441667E0,1.083645473E0,-9.313160332E0,-3.483758222E0,1.000229045E1
3.098427667E0,1.518740006E0,-8.203682152E0,-6.196145908E0,1.039226617E1
3.108413667E0,2.217851236E0,-8.033155709E0,-7.688010356E0,1.133825198E1
3.118399667E0,3.855881166E0,-8.135507711E0,-6.641009091E0,1.118737266E1
3.128385667E0,5.423581370E0,-6.975351128E0,-6.107123219E0,1.074093628E1
3.138371667E0,5.844603117E0,-6.254677706E0,-6.787491199E0,1.092476158E1
3.148357667E0,5.913870987E0,-6.574637346E0,-6.626344274E0,1.105025632E1
3.158343667E0,6.230970170E0,-5.978591478E0,-6.892582036E0,1.104881136E1
3.168329667E0,6.451889087E0,-5.744627423E0,-6.857398170E0,1.102957509E1
3.178315667E0,6.314755508E0,-5.951604239E0,-8.096743594E0,1.186823437E1
3.188302667E0,5.909751039E0,-6.255047250E0,-9.711835774E0,1.297576693E1
3.198288667E0,5.482582700E0,-6.308021854E0,-1.052770128E1,1.344181338E1
3.208274667E0,5.582691709E0,-6.583618670E0,-1.049997379E1,1.359264253E1
3.218260667E0,5.066788364E0,-7.326023269E0,-9.936883410E0,1.334483470E1
3.228246667E0,4.437525634E0,-8.705867929E0,-9.155537524E0,1.339058018E1
3.238232667E0,4.348032829E0,-9.774629023E0,-7.969151502E0,1.334002015E1
3.248218667E0,4.775864242E0,-1.021589383E1,-7.301342171E0,1.343439480E1
3.258204667E0,5.036136090E0,-1.025594843E1,-7.041358591E0,1.342117266E1
3.268190667E0,5.850332218E0,-1.023501423E1,-7.471532400E0,1.395728124E1
3.278176667E0,7.610568078E0,-9.686706780E0,-7.298740160E0,1.431868160E1
3.288162667E0,9.664292064E0,-7.334722171E0,-7.063206128E0,1.403871687E1
3.298148667E0,1.150041016E1,-5.113560827E0,-7.672890626E0,1.474046094E1
3.308134667E0,1.278694262E1,-3.488030782E0,-7.978771341E0,1.547039277E1
3.318120667E0,1.385901908E1,-3.385278539E0,-8.552133520E0,1.663344548E1
3.328106792E0,1.363268623E1,-4.263516296E0,-7.550156985E0,1.615650258E1
3.338092792E0,1.295154993E1,-6.061359401E0,-5.865639644E0,1.545601668E1
3.348078792E0,1.248957194E1,-7.992774253E0,-3.578196017E0,1.525376459E1
3.358064792E0,1.246085744E1,-8.942786583E0,-6.354941082E-1,1.535090397E1
3.368050792E0,1.336730333E1,-8.604740919E0,2.800305251E0,1.614212112E1
3.378036792E0,1.479812870E1,-7.210609757E0,5.415340304E0,1.732926474E1
3.388022792E0,1.503236582E1,-5.300596883E0,7.442460043E0,1.759143430E1
3.398008792E0,1.504276450E1,-3.418946806E0,8.668352779E0,1.769503606E1
3.407994792E0,1.518438991E1,-1.316349307E0,1.016866821E1,1.832212558E1
3.417980792E0,1.394015973E1,-4.263079217E-1,1.105888574E1,1.779912204E1
3.427966792E0,1.184500529E1,6.013131128E-1,1.145084916E1,1.648598418E1
3.437952792E0,9.625404571E0,7.401683316E-2,1.135732763E1,1.488767217E1
3.447938792E0,6.222048488E0,-4.900039807E-2,9.919307849E0,1.170935338E1
3.457924792E0,3.855492618E0,-2.156817122E-1,6.198618110E0,7.303027345E0
3.467910792E0,2.022092888E0,1.537174523E-2,2.993855106E0,3.612791764E0
3.477896792E0,3.620350349E-1,3.360266197E-1,1.152481527E0,1.253872771E0
3.487882792E0,-1.097391400E0,2.343219048E-1,1.126160286E0,1.589783517E0
3.497868792E0,-2.100639120E0,-1.621086453E-1,1.569200308E0,2.627042735E0
3.507854792E0,-2.261374401E0,-3.662516083E-1,2.241490359E0,3.205032520E0
3.517840792E0,-1.909856168E0,-1.981329024E-1,2.759647806E0,3.361913628E0
3.527826792E0,-1.324475037E0,6.452387854E-2,3.167549570E0,3.433914346E0
3.537812792E0,-7.771481699E-1,3.191373758E-1,3.040190781E0,3.154135053E0
3.547798792E0,-3.649603969E-1,3.571575800E-1,2.071497767E0,2.133508994E0
3.557784792E0,-1.909741563E-1,1.209151572E-1,8.494121540E-1,8.789724745E-1
3.567770792E0,-3.827096200E-1,-2.678925240E-1,-1.242164952E-1,4.833867968E-1
3.577757792E0,-9.660418868E-1,-7.735932089E-1,-9.458146137E-1,1.557642020E0
3.587743792E0,-1.440582029E0,-1.093944467E0,-1.387666481E0,2.279826603E0
3.597729792E0,-1.546701391E0,-1.207335865E0,-1.324785524E0,2.367488494E0
3.607715792E0,-1.135295391E0,-1.095649076E0,-1.162521197E0,1.959795412E0
3.617701792E0,-7.087737536E-1,-9.408574905E-1,-1.025235005E0,1.561627314E0
3.627687792E0,-3.216494858E-1,-7.769056566E-1,-8.683717507E-1,1.208763951E0
3.637673792E0,9.865071416E-2,-5.854824342E-1,-7.303067100E-1,9.412064252E-1
3.647659792E0,4.686005402E-1,-3.592138995E-1,-8.127097660E-1,1.004548782E0
3.657645792E0,6.836061680E-1,-1.822227748E-1,-1.203596132E0,1.396125418E0
3.667631792E0,8.017602700E-1,-9.373291343E-2,-1.905685349E0,2.069599488E0
3.677617792E0,9.058003628E-1,-1.086016519E-1,-2.503639748E0,2.664672701E0
3.687603792E0,1.069073335E0,-3.787709355E-2,-2.533393305E0,2.749988019E0
3.697589792E0,1.216259447E0,2.468709067E-2,-2.574741890E0,2.847664358E0
3.707575792E0,1.203205538E0,-7.307601616E-2,-2.685172405E0,2.943330515E0
3.717561792E0,1.199125351E0,-2.026659563E-1,-2.469495517E0,2.752704707E0
3.727547792E0,1.097663296E0,-4.021725158E-1,-2.365928464E0,2.638981800E0
3.737533792E0,1.241352773E0,-4.786836250E-1,-2.310750044E0,2.666394661E0
3.747519792E0,1.575967290E0,-1.429043426E-1,-1.928811087E0,2.494876101E0
3.757505792E0,2.107123098E0,2.084734109E-1,-2.612432458E0,3.362771515E0
3.767491792E0,2.762709408E0,6.631767274E-1,-2.955690329E0,4.099813650E0
3.777477792E0,3.324677703E0,7.468467289E-1,-3.452484389E0,4.850866966E0
3.787463792E0,3.553938258E0,7.784798732E-1,-3.933119668E0,5.357792305E0
3.797449792E0,3.593001752E0,5.457133278E-1,-4.449315374E0,5.744899645E0
3.807435792E0,3.649198172E0,2.138847166E-1,-4.423131543E0,5.738160560E0
3.817421792E0,3.724429033E0,-2.752869129E-2,-4.546566850E0,5.877363318E0
3.827407792E0,3.978551949E0,8.872945100E-2,-4.802729275E0,6.237223502E0
3.837393792E0,4.606108462E0,1.081132632E-1,-5.150263215E0,6.910364305E0
3.847379792E0,4.805972140E0,1.609782323E-1,-5.370543031E0,7.208745706E0
3.857365792E0,5.140586073E0,6.871297002E-2,-5.553281969E0,7.567647407E0
3.867351792E0,5.824279364E0,1.086903834E-1,-5.859318804E0,8.262303587E0
3.877337792E0,6.511023148E0,3.073355019E-2,-6.491036196E0,9.193906563E0
3.887323792E0,7.934930087E0,-8.253432602E-1,-7.551733394E0,1.098512559E1
3.897309792E0,9.053512967E0,-2.558473767E0,-7.379096106E0,1.195671127E1
3.907295792E0,9.036168371E0,-3.962303706E0,-5.801169999E0,1.144577489E1
3.917281792E0,9.807359397E0,-4.469061422E0,-4.078958875E0,1.152365887E1
3.927267792E0,1.014652714E1,-5.006192499E0,-2.436447054E0,1.157368786E1
3.937253792E0,9.354377940E0,-5.782178827E0,-7.939495593E-1,1.102580312E1
3.947239792E0,7.197381016E0,-6.507270405E0,6.685384780E-2,9.703160880E0
3.957225792E0,5.547982637E0,-6.422283465E0,2.570637730E-1,8.490695968E0
3.967212792E0,5.439892763E0,-5.642715132E0,-7.812581778E-2,7.838288779E0
3.977198792E0,5.441900112E0,-5.362394936E0,3.126726942E-1,7.646392646E0
3.987184792E0,5.171290387E0,-5.268340718E0,1.328656965E0,7.500865785E0
3.997170792E0,3.929161688E0,-5.325869134E0,1.403536409E0,6.765582610E0
4.007156792E0,2.137099726E0,-6.027240313E0,1.449888457E0,6.557209587E0
4.017142792E0,1.916407388E-1,-6.113243499E0,2.689643186E0,6.681515751E0
4.027128792E0,-9.542582855E-1,-5.714062858E0,3.500116392E0,6.768451668E0
4.037114792E0,-1.885957136E0,-5.778388077E0,3.678028454E0,7.104540548E0
4.047100792E0,-2.168829934E0,-5.751146484E0,3.764709917E0,7.207811729E0
4.057086792E0,-2.282615581E0,-5.383043209E0,3.945892326E0,7.053903482E0
4.067072792E0,-2.052001396E0,-5.179188806E0,3.600490866E0,6.633116981E0
4.077058792E0,-1.425891484E0,-4.884459316E0,3.121775812E0,5.969639315E0
4.087044792E0,-1.056807631E0,-4.832036689E0,2.770901942E0,5.669507783E0
4.097030792E0,-1.166175706E0,-4.889050550E0,3.569058573E0,6.164491881E0
4.107016792E0,-1.374393886E0,-4.961595785E0,4.697779940E0,6.969614598E0
4.117002792E0,-1.044871125E0,-4.864757708E0,5.385200831E0,7.331985489E0
4.126988792E0,-6.368214262E-1,-5.021641427E0,5.228153390E0,7.277088155E0
4.136974792E0,-1.296165158E0,-5.449409691E0,4.790123847E0,7.370305053E0
4.146960792E0,-1.884685074E0,-5.734184881E0,4.647675149E0,7.617991754E0
4.156946792E0,-1.991215496E0,-5.971107042E0,5.681266994E0,8.479142240E0
4.166932792E0,-4.625591969E-1,-5.571023591E0,6.765875212E0,8.776521648E0
4.176918792E0,1.421130096E0,-5.073153058E0,6.789947029E0,8.594176712E0
4.186904792E0,1.511285391E0,-5.473659264E0,6.920744566E0,8.952186024E0
4.196890792E0,1.546639996E0,-5.296817828E0,5.989987117E0,8.144220039E0
4.206876792E0,1.860686932E0,-5.049016922E0,4.769890727E0,7.190729120E0
4.216862792E0,4.991829398E-1,-5.497760902E0,4.432143856E0,7.079439081E0
4.226848792E0,-9.372800177E-1,-6.187869174E0,2.961495445E0,6.923775994E0
4.236834792E0,-1.425506737E0,-6.788174154E0,1.122327582E0,7.026449815E0
4.246820792E0,-6.708899358E-1,-6.998549371E0,1.578786233E-1,7.032404444E0
4.256806792E0,9.961813599E-2,-7.569237619E0,-1.684006879E-1,7.571766022E0
4.266792792E0,6.237321416E-1,-7.943247752E0,-1.040086056E0,8.035297482E0
4.276778792E0,1.551070723E0,-7.068848691E0,-2.163520077E0,7.553493320E0
4.286764792E0,2.434623454E0,-5.466936720E0,-3.384411981E0,6.875247844E0
4.296751792E0,1.697972076E0,-5.070055203E0,-3.269537583E0,6.267251785E0
4.306737792E0,8.064210856E-1,-6.039668570E0,-3.183028904E0,6.874560670E0
4.316723792E0,6.062349334E-2,-7.345603255E0,-2.113675195E0,7.643898562E0
4.326709583E0,2.121954560E-1,-8.336305189E0,-1.653965054E0,8.501447613E0
4.336695583E0,1.127422408E0,-9.123113544E0,-8.722034311E-1,9.233797748E0
4.346681583E0,1.540276471E0,-9.249237986E0,1.330726880E-1,9.377556359E0
4.356667583E0,2.518153122E0,-8.524728790E0,6.687551174E-1,8.913996270E0
4.366653583E0,3.247697355E0,-7.227103583E0,-1.344402348E0,8.036540423E0
4.376639583E0,4.407393177E0,-4.527670403E0,-5.524486771E0,8.393144106E0
4.386625583E0,5.339498994E0,-1.939315610E0,-9.373736901E0,1.096075445E1
4.396611583E0,5.482071068E0,-1.193035476E0,-1.144674208E1,1.274771905E1
4.406597583E0,4.585157304E0,-1.239827819E0,-1.140888253E1,1.235813259E1
4.416583583E0,3.369586658E0,-3.560770730E0,-1.001191488E1,1.114771914E1
4.426569583E0,2.136042842E0,-6.477250800E0,-8.078704934E0,1.057274469E1
4.436555583E0,1.546602573E0,-8.525274335E0,-6.100515865E0,1.059663040E1
4.446541583E0,1.595464246E0,-9.511634712E0,-4.323652571E0,1.056932697E1
4.456527583E0,2.303103640E0,-8.838082831E0,-4.090614714E0,1.000745338E1
4.466513583E0,3.753182132E0,-7.081242449E0,-5.347029623E0,9.634370583E0
4.476499583E0,5.329897281E0,-5.801055978E0,-6.649016268E0,1.030870859E1
4.486485583E0,6.775772209E0,-5.085902912E0,-7.329742098E0,1.120279504E1
4.496471583E0,7.615999557E0,-4.053300415E0,-6.950467132E0,1.107888473E1
4.506457583E0,7.902135978E0,-3.403949868E0,-6.351970112E0,1.069477218E1
4.516443583E0,8.321346842E0,-3.728180607E0,-5.979453943E0,1.090403656E1
4.526429583E0,8.950944033E0,-4.158539187E0,-5.368331029E0,1.123529373E1
4.536415583E0,9.654896758E0,-4.053073836E0,-5.112183807E0,1.165241873E1
4.546401583E0,1.019600160E1,-4.339064954E0,-5.006417032E0,1.215936449E1
4.556387583E0,9.932374038E0,-4.603692393E0,-4.595654810E0,1.187291375E1
4.566373583E0,1.058557702E1,-4.483201159E0,-2.999312312E0,1.188063163E1
4.576359583E0,1.088554620E1,-3.854905265E0,1.412886107E-1,1.154882562E1
4.586345583E0,1.092593058E1,-3.009488514E0,1.290402727E0,1.140605626E1
4.596331583E0,1.166494497E1,-2.215756617E0,1.380418857E0,1.195349634E1
4.606317583E0,1.250976939E1,-1.776310586E0,2.133193493E0,1.281405963E1
4.616304583E0,1.266996673E1,-1.419632624E0,3.355501301E0,1.318342910E1
4.626290583E0,1.171875806E1,-1.208293712E0,4.622085394E0,1.265515459E1
4.636276583E0,1.037683259E1,-1.980392300E0,5.585979599E0,1.195005341E1
4.646262583E0,8.078957534E0,-1.862427209E0,6.365397073E0,1.045258197E1
4.656248583E0,6.127402532E0,-2.497814752E0,6.690088865E0,9.409645549E0
4.666234583E0,3.681534444E0,-2.019489707E0,6.597842606E0,7.820713625E0
4.676220583E0,2.520627664E0,-1.899140853E0,5.526621004E0,6.364262685E0
4.686206583E0,1.611561046E0,-1.205703761E0,4.568735983E0,4.992414151E0
4.696192583E0,8.122501749E-1,-9.277981728E-2,3.837232933E0,3.923355072E0
4.706178583E0,6.403426194E-1,4.173331766E-1,2.163889037E0,2.294912071E0
4.716164583E0,7.115415332E-1,7.304857810E-1,1.403362162E0,1.734740957E0
4.726150583E0,5.375526613E-1,7.735813683E-1,1.577626730E0,1.837470298E0
4.736136583E0,1.201979962E-1,4.250519398E-1,1.865942409E0,1.917513438E0
4.746122583E0,-4.927036402E-1,-2.269473964E-1,2.151295888E0,2.218633813E0
4.756108583E0,-1.145332721E0,-8.694262961E-1,2.322999376E0,2.732034998E0
4.766094583E0,-1.520796764E0,-1.256287732E0,2.465946257E0,3.157843031E0
4.776080583E0,-1.719739798E0,-1.426372710E0,2.090286625E0,3.059631065E0
4.786066583E0,-1.642162449E0,-1.258827470E0,1.506444481E0,2.559437259E0
4.796052583E0,-1.352653939E0,-1.058002217E0,9.300090051E-1,1.952935769E0
4.806038583E0,-8.619526774E-1,-6.802802718E-1,3.059286618E-1,1.139884210E0
4.816024583E0,-3.770366514E-1,-2.236463508E-1,-4.008114302E-1,5.939900077E-1
4.826010583E0,6.104493141E-2,1.006323355E-1,-1.046360410E0,1.052959382E0
4.835996583E0,3.181002259E-1,1.798088980E-1,-1.354285312E0,1.402714404E0
4.845982583E0,4.134525257E-1,6.754498869E-2,-1.391473603E0,1.453170363E0
4.855968583E0,3.773395371E-1,-1.701411116E-1,-1.338305456E0,1.400854960E0
4.865954583E0,4.083900064E-1,-5.042922369E-1,-1.355330209E0,1.502668637E0
4.875940583E0,5.268487483E-1,-6.629307058E-1,-1.313981039E0,1.563199570E0
4.885926583E0,5.992460489E-1,-6.076101986E-1,-1.441715219E0,1.675359291E0
4.895912583E0,8.226009160E-1,-4.715867132E-1,-1.606628920E0,1.865562323E0
4.905898583E0,1.053824966E0,-1.549041447E-1,-2.125141293E0,2.377134381E0
4.915884583E0,1.302785375E0,2.993256935E-1,-3.261906089E0,3.525177576E0
4.925870583E0,1.616911249E0,8.072546062E-1,-3.983851866E0,4.374601430E0
4.935857583E0,1.911527302E0,1.178030059E0,-5.073636623E0,5.548286225E0
4.945843583E0,2.343188058E0,1.523411347E0,-5.911178929E0,6.538604495E0
4.955829583E0,2.970416542E0,1.453692656E0,-6.020862755E0,6.869307467E0
4.965815583E0,3.477790554E0,1.230795625E0,-5.600627459E0,6.706482904E0
4.975801583E0,3.597324891E0,4.911319086E-1,-5.177217709E0,6.323412064E0
4.985787583E0,3.223204538E0,-4.630790144E-1,-4.674583451E0,5.696948315E0
4.995773583E0,3.230338141E0,-6.607605118E-1,-4.087483823E0,5.251591469E0
5.005759583E0,4.068447627E0,-4.716598034E-2,-4.080537331E0,5.762401898E0
5.015745583E0,5.099574287E0,4.438562930E-1,-4.721725457E0,6.964004424E0
5.025731583E0,6.035619957E0,1.611422467E-1,-5.313690553E0,8.043008292E0
5.035717583E0,6.351532740E0,-9.616254848E-1,-5.720224653E0,8.601608094E0
5.045703583E0,5.740619742E0,-2.758445619E0,-5.229866039E0,8.241070078E0
5.055689583E0,5.068754198E0,-4.213047516E0,-3.736262044E0,7.576390470E0
5.065675583E0,4.006313944E0,-4.878799796E0,-1.550219661E0,6.500493817E0
5.075661583E0,2.935339387E0,-5.056235894E0,3.221900609E-1,5.855385997E0
5.085647583E0,2.612833577E0,-4.443260583E0,4.300358140E-1,5.172465051E0
5.095633583E0,2.256511272E0,-3.679811270E0,-9.554324064E-1,4.421052497E0
5.105619583E0,2.217439007E0,-3.635553694E0,-2.090574893E0,4.743921352E0
5.115605583E0,2.066161013E0,-3.599697399E0,-2.005338861E0,4.609579877E0
5.125591583E0,1.292405544E0,-3.427835451E0,-1.471565547E0,3.947894772E0
5.135577583E0,5.460882805E-1,-3.517004321E0,-1.283968304E0,3.783663094E0
5.145563583E0,4.402153049E-1,-3.674628882E0,-5.772066506E-1,3.745644732E0
5.155549583E0,3.593073088E-1,-3.640468864E0,4.227911869E-1,3.682508341E0
5.165535583E0,-1.130847122E-1,-3.796724592E0,1.375921179E0,4.039933771E0
5.175521583E0,-1.133468867E0,-4.015488811E0,2.165378907E0,4.700826297E0
5.185507583E0,-1.620938080E0,-4.040657566E0,3.218089394E0,5.413912926E0
5.195493583E0,-1.587578399E0,-3.798898587E0,3.341712981E0,5.302742809E0
5.205479583E0,-1.055289109E0,-3.622198654E0,2.292165838E0,4.414519501E0
5.215465583E0,-7.326993906E-1,-3.726320023E0,1.677714105E0,4.151750707E0
5.225452583E0,-6.029657552E-1,-3.688062860E0,2.048093702E0,4.261462563E0
5.235438583E0,-1.044656532E0,-3.917325754E0,2.310529750E0,4.666400761E0
5.245424583E0,-1.520808751E0,-4.197912583E0,2.427811740E0,5.082282869E0
5.255410583E0,-1.635734020E0,-4.455694102E0,3.200193406E0,5.724515137E0
5.265396583E0,-1.679338169E0,-4.674394585E0,4.640466117E0,6.797357369E0
5.275382583E0,-2.197413463E0,-5.217660561E0,6.195412082E0,8.392600224E0
5.285368583E0,-2.390638797E0,-5.925989342E0,7.586106836E0,9.918745912E0
5.295354583E0,-1.810950515E0,-6.331515382E0,8.105598618E0,1.044357974E1
5.305340583E0,-9.969681028E-1,-6.691771109E0,7.641022716E0,1.020583040E1
5.315326583E0,-5.330228233E-1,-7.231900638E0,7.179006726E0,1.020405007E1
5.325312292E0,-4.554115605E-1,-7.869758776E0,6.514006982E0,1.022608380E1
5.335298292E0,1.971650420E-1,-7.764058658E0,5.057699452E0,9.268214750E0
5.345284292E0,2.902310805E-1,-7.225582722E0,3.583157380E0,8.070458262E0
5.355270292E0,9.829790778E-2,-7.178310322E0,2.943116477E0,7.758848894E0
5.365256292E0,2.131156981E-1,-6.675919892E0,1.775723380E0,6.911332594E0
5.375242292E0,-1.625517546E-1,-6.363371013E0,7.817259550E-2,6.365926851E0
5.385228292E0,-6.057373354E-1,-7.112059030E0,-9.958181747E-1,7.206937991E0
5.395214292E0,-5.491662548E-1,-8.113835590E0,-4.228742905E-1,8.143385919E0
5.405200292E0,4.564548500E-1,-8.751727642E0,1.075037495E0,8.829314433E0
5.415186292E0,2.052194939E0,-8.848517772E0,1.631482949E0,9.228732710E0
5.425172292E0,3.232742224E0,-6.989707212E0,-8.141794637E-2,7.701510117E0
5.435158292E0,4.229379959E0,-4.965974180E0,-3.670181490E0,7.484569899E0
5.445144292E0,5.131876645E0,-3.356602916E0,-6.133867214E0,8.673365439E0
5.455130292E0,5.457444350E0,-2.050292255E0,-6.751225598E0,8.920002480E0
5.465116292E0,5.289489512E0,-2.103704231E0,-6.673537152E0,8.771565933E0
5.475102292E0,5.050407389E0,-2.898561278E0,-5.487033015E0,8.000987664E0
5.485088292E0,4.365248201E0,-4.102217052E0,-4.278294257E0,7.361207669E0
5.495074292E0,3.272580766E0,-5.692807059E0,-3.765903919E0,7.569667721E0
5.505061292E0,2.760361751E0,-6.588791701E0,-3.555042797E0,7.979354759E0
5.515047292E0,3.035807124E0,-6.984786780E0,-3.831329584E0,8.525400732E0
5.525033292E0,3.615350395E0,-6.556977586E0,-5.067088326E0,9.041023042E0
5.535019292E0,5.448133829E0,-4.596206203E0,-6.986271973E0,9.980744949E0
5.545005292E0,7.280189869E0,-1.077038997E0,-1.008514892E1,1.248484707E1
5.554991292E0,8.071142730E0,3.751690507E-1,-1.181321632E1,1.431209896E1
5.564977292E0,7.336993230E0,-5.874185935E-1,-1.105539028E1,1.328149782E1
5.574963292E0,5.585336405E0,-2.248058244E0,-8.365344801E0,1.030673286E1
5.584949292E0,3.570384137E0,-4.745129815E0,-6.603174098E0,8.880642320E0
5.594935292E0,1.811849232E0,-6.580706756E0,-5.806533065E0,8.961268062E0
5.604921292E0,8.222483289E-1,-7.864202752E0,-5.498059695E0,9.630702863E0
5.614907292E0,4.698682165E-1,-8.671492149E0,-4.971264156E0,1.000644890E1
5.624893292E0,9.430804557E-1,-8.746128933E0,-4.588945130E0,9.921823898E0
5.634879292E0,2.090816383E0,-8.333669264E0,-4.916421951E0,9.899129323E0
5.644865292E0,3.685227545E0,-7.162193642E0,-5.818651419E0,9.936529785E0
5.654851292E0,5.004799107E0,-5.628564286E0,-6.412760689E0,9.892029604E0
5.664837292E0,5.920156159E0,-5.161527876E0,-6.735614702E0,1.034688960E1
5.674823292E0,6.774745438E0,-5.564602178E0,-6.501862900E0,1.091495279E1
5.684809292E0,7.434958066E0,-5.638135593E0,-5.828772950E0,1.100189840E1
5.694795292E0,8.142985130E0,-5.996067052E0,-5.289460276E0,1.141224855E1
5.704781292E0,9.398592830E0,-6.235145082E0,-5.128877608E0,1.239015605E1
5.714767292E0,1.090631551E1,-5.888505181E0,-4.154629739E0,1.307222856E1
5.724753292E0,1.202976444E1,-5.244748957E0,-2.910580230E0,1.344225061E1
5.734739292E0,1.302457931E1,-4.231115120E0,-2.622701923E0,1.394347757E1
5.744725292E0,1.386163630E1,-3.928602402E0,-3.017879561E0,1.472027427E1
5.754711292E0,1.427471402E1,-3.738617887E0,-2.743925228E0,1.500912555E1
5.764697292E0,1.558863717E1,-4.262759374E0,-4.442094648E-1,1.616706678E1
5.774684292E0,1.608403901E1,-5.744430372E0,3.172266519E0,1.737118493E1
5.784670292E0,1.429572891E1,-6.981198928E0,6.812588618E0,1.730654117E1
5.794656292E0,1.140095137E1,-6.428361645E0,9.676027426E0,1.627670213E1
5.804642292E0,9.533034936E0,-5.113181342E0,1.125968848E1,1.561422311E1
5.814628292E0,8.905362064E0,-3.822151210E0,1.139099239E1,1.495556822E1
5.824614292E0,7.240423540E0,-2.160001223E0,1.112609598E1,1.344913938E1
5.834600292E0,6.217519820E0,-1.173529165E0,1.093436110E1,1.263309052E1
5.844586292E0,4.514438739E0,-6.098903203E-1,9.315256559E0,1.036948061E1
5.854572292E0,3.058195528E0,-6.819373727E-2,7.404552544E0,8.011529732E0
5.864558292E0,1.932960271E0,4.582737726E-1,5.967856575E0,6.289806226E0
5.874544292E0,8.059954083E-1,7.407182622E-1,4.342640526E0,4.478483994E0
5.884530292E0,-2.734906483E-1,5.326731598E-1,3.240250926E0,3.295112122E0
5.894516292E0,-9.373495996E-1,1.733430469E-1,2.770540000E0,2.929942657E0
5.904502292E0,-1.437225727E0,-2.621900269E-1,2.080873777E0,2.542517862E0
5.914488292E0,-2.276625109E0,-6.406265017E-1,1.314813682E0,2.705948858E0
5.924474292E0,-2.820343659E0,-1.227341090E0,2.421115655E-1,3.085339935E0
5.934460292E0,-2.987553561E0,-1.331613610E0,2.462028623E-1,3.280135201E0
5.944446292E0,-2.700816631E0,-1.376502977E0,6.609756893E-1,3.102589206E0
5.954432292E0,-2.275022972E0,-1.132005163E0,1.182726250E0,2.802856863E0
5.964418292E0,-1.779280826E0,-8.963340130E-1,1.434827784E0,2.455195652E0
5.974404292E0,-1.358116992E0,-7.203480247E-1,1.392859393E0,2.074473507E0
5.984390292E0,-9.795963174E-1,-5.563011736E-1,1.161169905E0,1.617836670E0
5.994376292E0,-5.985443830E-1,-3.909395760E-1,7.214932019E-1,1.015697578E0
6.004362292E0,-3.889006519E-1,-4.154309312E-1,1.691634572E-1,5.936689741E-1
6.014348292E0,-3.537887067E-1,-6.028391629E-1,-3.795351666E-1,7.953794365E-1
6.024334292E0,-3.842111850E-1,-8.268375161E-1,-7.907704282E-1,1.206895349E0
6.034320292E0,-4.789834410E-1,-1.048379454E0,-1.017005049E0,1.537147971E0
6.044307292E0,-6.000669980E-1,-1.165157414E0,-1.291810736E0,1.840230197E0
6.054293292E0,-5.815313244E-1,-1.108687636E0,-1.716276492E0,2.124375662E0
6.064279292E0,-3.845029610E-1,-8.431760985E-1,-2.175475295E0,2.364631307E0
6.074265292E0,1.300321358E-1,-4.600235519E-1,-2.490556018E0,2.536020368E0
6.084251292E0,5.762770164E-1,1.914641529E-2,-2.715072142E0,2.775622187E0
6.094237292E0,9.636532992E-1,3.376544845E-1,-2.975177345E0,3.145523560E0
6.104223292E0,1.301480861E0,5.218318373E-1,-3.151611230E0,3.449465791E0
6.114209292E0,1.350880478E0,5.128256634E-1,-3.171823885E0,3.485446167E0
6.124195292E0,1.469000081E0,4.395530346E-1,-3.322956868E0,3.659673545E0
6.134181292E0,1.695288497E0,3.514325711E-1,-3.620549739E0,4.013214217E0
6.144167292E0,1.949902579E0,1.466019756E-1,-3.218744867E0,3.766155961E0
6.154153292E0,1.993704656E0,-3.402845621E-2,-3.314128742E0,3.867746826E0
6.164139292E0,2.056576257E0,1.893796206E-2,-3.595520148E0,4.142176925E0
6.174125292E0,2.586950877E0,2.164121756E-1,-3.830328541E0,4.627155260E0
6.184111292E0,3.207987159E0,7.586771080E-1,-4.192036716E0,5.332911438E0
6.194097292E0,3.785379825E0,1.214900554E0,-4.555445847E0,6.046252611E0
6.204083292E0,4.330380669E0,1.299506257E0,-5.064014445E0,6.788604831E0
6.214069292E0,4.855402163E0,1.231472148E0,-5.490124438E0,7.431885371E0
6.224055292E0,5.401939071E0,1.214173746E0,-5.691628845E0,7.940390577E0
6.234041292E0,6.081245781E0,1.000815278E0,-5.891774944E0,8.526206276E0
6.244027292E0,6.631880418E0,3.494003713E-1,-5.994055610E0,8.946095302E0
6.254013292E0,6.938114889E0,-6.441327846E-1,-5.554339730E0,8.910838069E0
6.263999292E0,7.155007998E0,-1.212064070E0,-5.003963540E0,8.814924270E0
6.273985292E0,7.681332836E0,-1.530755450E0,-4.457236598E0,9.011828032E0
6.283971292E0,8.304305132E0,-2.376304348E0,-3.625021105E0,9.367448110E0
6.293958292E0,8.331416917E0,-3.169424188E0,-2.653656790E0,9.300518904E0
6.303944292E0,8.846742557E0,-3.793224449E0,-1.536838600E0,9.747578083E0
6.313930292E0,9.110999867E0,-4.272830619E0,-7.688989180E-1,1.009250245E1
6.323916333E0,7.957679849E0,-5.053677152E0,-8.296742928E-1,9.463227820E0
6.333902333E0,6.415266221E0,-5.552722975E0,-7.283595872E-1,8.515801830E0
6.343888333E0,4.817085359E0,-5.588772814E0,-6.427259445E-3,7.378260921E0
6.353874333E0,3.471760320E0,-5.233635739E0,6.323274024E-1,6.312202525E0
6.363860333E0,2.463906164E0,-5.303415241E0,1.044533740E0,5.940378569E0
6.373846333E0,3.176356646E-1,-5.476557144E0,2.044394753E0,5.854324937E0
6.383832333E0,-1.847626883E0,-5.407786286E0,3.314988867E0,6.606589802E0
6.393818333E0,-2.892381356E0,-5.420703955E0,3.824202413E0,7.237017713E0
6.403804333E0,-2.820624033E0,-5.298692445E0,4.240742853E0,7.349555191E0
6.413790333E0,-1.999722610E0,-4.815808327E0,4.573335988E0,6.935870703E0
6.423776333E0,-8.922327760E-1,-4.664863624E0,4.062802141E0,6.250071455E0
6.433762333E0,1.642693377E-1,-4.794694616E0,3.281031747E0,5.812163986E0
6.443748333E0,8.242246878E-1,-4.683785214E0,2.849182711E0,5.543918505E0
6.453734333E0,1.080199417E0,-4.790723771E0,2.640567505E0,5.575882153E0
6.463720333E0,9.674803019E-2,-5.161573484E0,2.145862656E0,5.590700095E0
6.473706333E0,-1.022885009E0,-5.595270824E0,2.938723463E0,6.402299972E0
6.483692333E0,-2.310225549E0,-6.162415659E0,4.189263967E0,7.801438420E0
6.493678333E0,-3.419589123E0,-6.740510575E0,5.057115900E0,9.094091148E0
6.503664333E0,-3.396587931E0,-6.923861132E0,5.396002393E0,9.412412250E0
6.513650333E0,-2.627858582E0,-7.125297126E0,5.662747693E0,9.473236580E0
6.523637333E0,-2.074252098E0,-7.631940821E0,5.729459746E0,9.766050964E0
6.533623333E0,-3.787571946E-1,-7.699886636E0,5.810808549E0,9.653870064E0
6.543609333E0,2.863690238E0,-6.982137991E0,6.161544424E0,9.742463877E0
6.553595333E0,4.335919444E0,-4.971269419E0,5.352359945E0,8.494790994E0
6.563581333E0,2.042627432E0,-4.110923556E0,2.189675989E0,5.085931601E0
6.573567333E0,-1.394000039E0,-5.681827158E0,-7.636158125E-1,5.899958056E0
6.583553333E0,-2.762563813E0,-7.364374571E0,-9.284852207E-1,7.920091947E0
6.593539333E0,-2.323707328E0,-8.433468956E0,1.266740507E0,8.838984438E0
6.603525333E0,-1.089072274E0,-9.944404099E0,2.889482306E0,1.041279786E1
6.613511333E0,-3.018334913E-1,-1.107832422E1,2.192399476E0,1.129721145E1
6.623497333E0,1.008355263E0,-1.209626015E1,1.832163629E0,1.227571234E1
6.633483333E0,3.252727715E0,-1.130094176E1,3.308253167E0,1.221622123E1
6.643469333E0,5.486673412E0,-7.573083333E0,2.374701626E0,9.648543108E0
6.653455333E0,4.424084639E0,-4.750206075E0,-4.073666560E0,7.663663738E0
6.663441333E0,4.057696352E0,-4.187253109E0,-1.036993288E1,1.189678512E1
6.673427333E0,4.623106903E0,-3.811173647E0,-8.296685625E0,1.023392175E1
6.683413333E0,4.485587407E0,-4.527675666E0,-4.278827523E0,7.676503520E0
6.693399333E0,3.503008425E0,-6.899737859E0,-2.289017551E0,8.069513734E0
6.703385333E0,2.660095451E0,-8.627975416E0,-3.433119580E-1,9.035260410E0
6.713371333E0,2.399897279E0,-1.031013107E1,5.900879936E-1,1.060219380E1
6.723357333E0,3.283827301E0,-9.741927300E0,9.047184817E-2,1.028089755E1
6.733343333E0,5.304480019E0,-5.231804391E0,-3.894960154E0,8.407139827E0
6.743329333E0,7.250498292E0,-2.524860463E0,-9.371381643E0,1.211476123E1
6.753316333E0,8.189416115E0,-7.192718446E-1,-1.239435822E1,1.487292856E1
6.763302333E0,7.993283545E0,-6.971755090E-1,-1.304798688E1,1.531759110E1
6.773288333E0,6.587741541E0,-2.228401659E0,-1.086394308E1,1.289920043E1
6.783274333E0,4.996967347E0,-4.421075369E0,-8.077512102E0,1.047672620E1
6.793260333E0,4.288345621E0,-5.826872020E0,-5.115551219E0,8.860655166E0
6.803246333E0,4.173374158E0,-6.540610644E0,-3.473185287E0,8.500567951E0
6.813232333E0,4.177934986E0,-7.083697695E0,-3.679693741E0,9.009664800E0
6.823218333E0,4.059802519E0,-7.487600548E0,-4.303281748E0,9.542766489E0
6.833204333E0,4.269925137E0,-7.328804204E0,-4.907488575E0,9.799340583E0
6.843190333E0,4.999695073E0,-6.288061799E0,-5.949484624E0,9.996651404E0
6.853176333E0,7.047699897E0,-4.594445898E0,-8.031774012E0,1.163135421E1
6.863162333E0,8.947490083E0,-3.053089447E0,-9.907153827E0,1.369418237E1
6.873148333E0,1.053730475E1,-2.452639456E0,-1.140705937E1,1.572168042E1
6.883134333E0,1.138640349E1,-2.808934572E0,-1.230407604E1,1.699795826E1
6.893120333E0,1.141622780E1,-4.542850360E0,-1.220000613E1,1.731496163E1
6.903106333E0,1.172251665E1,-7.728157339E0,-9.670262656E0,1.704863022E1
6.913092333E0,1.131656669E1,-9.385709075E0,-3.635642572E0,1.514510196E1
6.923078333E0,9.706711274E0,-9.199758847E0,1.257402796E-1,1.337428941E1
6.933064333E0,1.016462778E1,-9.392626331E0,8.052036953E-1,1.386324061E1
6.943050333E0,1.158574560E1,-7.670569282E0,1.086110952E0,1.393724403E1
6.953036333E0,1.387300328E1,-5.647203455E0,9.738479197E-1,1.500998024E1
6.963022333E0,1.535318500E1,-5.121582037E0,1.576747309E0,1.626151974E1
6.973008333E0,1.470226593E1,-2.790208279E0,4.729874137E0,1.569438101E1
6.982995333E0,1.551711637E1,-2.844388287E0,9.015075710E0,1.816983861E1
6.992981333E0,1.339710425E1,-2.173674791E0,1.322670352E1,1.895133110E1
7.002967333E0,1.035000089E1,-2.690816723E0,1.541670681E1,1.876267204E1
7.012953333E0,8.182226964E0,-3.005828449E0,1.524309479E1,1.755949263E1
7.022939333E0,6.079490447E0,-2.103805534E0,1.350253657E1,1.495676086E1
7.032925333E0,4.413017614E0,-1.611853407E0,9.433210101E0,1.053841775E1
7.042911333E0,2.848230200E0,-5.618998826E-1,5.236690325E0,5.987576497E0
7.052897333E0,1.689444205E0,6.184930363E-1,1.274359136E0,2.204710086E0
7.062883333E0,9.957597756E-1,1.704185620E0,3.339683998E-1,2.001829426E0
7.072869333E0,2.317105383E-1,1.756384299E0,3.657877779E-1,1.808971055E0
7.082855333E0,-7.312691617E-1,1.074945547E0,7.628780401E-1,1.507396902E0
7.092841333E0,-1.339144531E0,1.722291523E-1,1.250090268E0,1.840026259E0
7.102827333E0,-1.710230471E0,-4.272168714E-1,1.934258938E0,2.617013596E0
7.112813333E0,-1.763278166E0,-7.576928754E-1,2.896113049E0,3.474294054E0
7.122799333E0,-1.739232661E0,-9.935276011E-1,3.293924857E0,3.855122347E0
7.132785333E0,-1.883085276E0,-1.344660649E0,2.284737536E0,3.251791510E0
7.142771333E0,-1.874355968E0,-1.572784066E0,6.926073718E-1,2.542944157E0
7.152757333E0,-1.655702262E0,-1.538680912E0,1.343304241E-1,2.264273303E0
7.162743333E0,-1.250255159E0,-1.414983065E0,-6.869876128E-1,2.009295154E0
7.172729333E0,-1.010301801E0,-1.121353875E0,-1.467898466E0,2.105438232E0
7.182715333E0,-7.273667300E-1,-9.247295541E-1,-1.820184438E0,2.167315966E0
7.192702333E0,-2.479722297E-1,-7.073185278E-1,-1.923162677E0,2.064060175E0
7.202688333E0,1.441192478E-1,-5.691448751E-1,-1.961675947E0,2.047649572E0
7.212674333E0,3.226195389E-1,-7.330011070E-1,-1.778947535E0,1.950904488E0
7.222660333E0,4.337499654E-1,-8.148637341E-1,-1.362531640E0,1.645792942E0
7.232646333E0,5.651643831E-1,-7.287624604E-1,-1.244757607E0,1.549169779E0
7.242632333E0,7.209230983E-1,-7.303216204E-1,-1.766549098E0,2.042986907E0
7.252618333E0,1.045976833E0,-5.339389358E-1,-2.383205817E0,2.656845552E0
7.262604333E0,1.460046240E0,-2.409789598E-1,-2.912931980E0,3.267258576E0
7.272590333E0,1.802957371E0,-1.785944313E-2,-3.098857650E0,3.585232626E0
7.282576333E0,2.042330686E0,2.074862547E-1,-3.145924228E0,3.756461689E0
7.292562333E0,2.255446494E0,3.656630860E-1,-3.362572923E0,4.065420648E0
7.302548333E0,2.361689233E0,3.117964889E-1,-3.313206051E0,4.080701829E0
7.312534333E0,2.061047038E0,-1.055858043E-1,-3.198924560E0,3.806859808E0
7.322520333E0,1.716101076E0,-6.384533840E-1,-3.228466448E0,3.711552402E0
7.332506417E0,1.638176402E0,-7.855789778E-1,-3.253806526E0,3.726662470E0
7.342492417E0,1.722868059E0,-6.764623323E-1,-3.514951363E0,3.972500311E0
7.352478417E0,1.878632621E0,-5.011157370E-1,-3.770667645E0,4.242441750E0
7.362464417E0,2.363921700E0,-2.376401997E-1,-4.709548046E0,5.274887815E0
7.372450417E0,2.803769726E0,2.359924543E-1,-5.380215495E0,6.071534888E0
7.382436417E0,3.088125086E0,3.138694730E-1,-5.613139331E0,6.414231344E0
7.392422417E0,3.567476317E0,4.375030008E-1,-5.452408728E0,6.530471429E0
7.402408417E0,3.998989722E0,5.213351163E-1,-5.636688992E0,6.930798792E0
7.412395417E0,4.228963637E0,-4.614037871E-3,-6.164964461E0,7.476024447E0
7.422381417E0,4.160274056E0,-4.349223322E-1,-6.732066026E0,7.925764988E0
7.432367417E0,4.742288945E0,-5.268744761E-1,-7.589878290E0,8.965107563E0
7.442353417E0,6.149907880E0,-1.132319158E0,-8.257557228E0,1.035812555E1
7.452339417E0,7.330155496E0,-2.617232437E0,-7.471967432E0,1.078941067E1
7.462325417E0,7.982897136E0,-4.017934116E0,-6.108977956E0,1.082543546E1
7.472311417E0,8.461485890E0,-5.910201275E0,-4.311616954E0,1.118558283E1
7.482297417E0,8.056311852E0,-6.690795209E0,-2.266136958E0,1.071476915E1
7.492283417E0,8.565692044E0,-6.542615654E0,-8.139938146E-2,1.077884621E1
7.502269417E0,8.871372784E0,-6.486123365E0,2.725099533E0,1.132242107E1
7.512255417E0,7.972208426E0,-5.880724291E0,4.990156510E0,1.109237068E1
7.522241417E0,6.020556945E0,-5.329231868E0,5.458890367E0,9.718400191E0
7.532227417E0,4.076776401E0,-5.218618920E0,4.914830339E0,8.246796137E0
7.542213417E0,3.028539327E0,-4.195745605E0,4.234229932E0,6.686182375E0
7.552199417E0,3.192883801E0,-3.167049049E0,2.829586645E0,5.313310383E0
7.562185417E0,3.230731367E0,-2.750893355E0,1.896152633E0,4.647626730E0
7.572171417E0,2.966957914E0,-2.845748641E0,1.106244085E0,4.257334914E0
7.582157417E0,1.868757843E0,-2.947840442E0,8.431497860E-1,3.590671345E0
7.592143417E0,7.137821862E-1,-3.046627396E0,1.449850889E0,3.448694115E0
7.602129417E0,3.070016259E-1,-3.065638449E0,1.971130310E0,3.657559814E0
7.612115417E0,4.474613938E-1,-2.935069538E0,1.543172743E0,3.346077854E0
7.622102417E0,1.794422776E-1,-3.054196617E0,1.049171752E0,3.234358958E0
7.632088417E0,-3.261758155E-1,-3.143235093E0,1.525770113E0,3.509172545E0
7.642074417E0,-7.481325316E-1,-3.328600016E0,2.065185113E0,3.988015785E0
7.652060417E0,-1.006463689E0,-3.010797413E0,2.331407672E0,3.938696733E0
7.662046417E0,-1.759818953E-1,-2.566655191E0,1.570751574E0,3.014290796E0
7.672032417E0,7.273217064E-1,-2.703892851E0,9.738596141E-1,2.964529636E0
7.682018417E0,7.496574855E-1,-2.710123059E0,1.344060870E0,3.116609209E0
7.692004417E0,3.482765365E-1,-2.648824943E0,1.834020120E0,3.240555497E0
7.701990417E0,-5.121628815E-1,-3.168884490E0,2.171413819E0,3.875458385E0
7.711976417E0,-1.511206453E0,-3.646854023E0,3.079967051E0,5.006943803E0
7.721962417E0,-2.370942451E0,-4.027056357E0,3.835358316E0,6.045537563E0
7.731948417E0,-3.039895497E0,-4.574963853E0,4.308479923E0,6.980992632E0
7.741934417E0,-2.645013436E0,-4.900654934E0,4.382972281E0,7.086815990E0
7.751920417E0,-8.982513151E-1,-4.934250112E0,3.927665970E0,6.370262127E0
7.761906417E0,1.918900056E0,-3.868198618E0,3.206148795E0,5.378152849E0
7.771892417E0,3.072936943E0,-3.805231707E0,2.962179569E0,5.718149840E0
7.781878417E0,1.459776683E0,-4.616410671E0,3.589758886E0,6.027318169E0
7.791864417E0,-5.403944081E-1,-5.323229701E0,3.765795161E0,6.542936172E0
7.801850417E0,-2.177544917E0,-6.530853395E0,3.579967139E0,7.759504665E0
7.811837417E0,-2.934114103E0,-7.565453886E0,3.192444091E0,8.719909251E0
7.821823417E0,-2.575702588E0,-8.308525068E0,2.388915915E0,9.020684667E0
7.831809417E0,-1.653431496E0,-9.597512768E0,2.140626182E0,9.971377412E0
7.841795417E0,-5.569697296E-1,-1.060201238E1,2.848970165E0,1.099224785E1
7.851781417E0,3.578908208E-1,-1.151121465E1,4.044121456E0,1.220618970E1
7.861767417E0,1.166449210E0,-1.194898048E1,5.291713793E0,1.312025050E1
7.871753417E0,2.370317384E0,-9.381356408E0,4.757744598E0,1.078259645E1
7.881739417E0,1.786902671E0,-6.704639077E0,7.348882958E-1,6.977482864E0
7.891725417E0,6.140608469E-1,-4.820148715E0,-5.656302892E0,7.456853677E0
7.901711417E0,9.162037289E-1,-4.024337402E0,-1.009815430E1,1.090905317E1
7.911697417E0,1.056332252E0,-5.152304478E0,-8.481061199E0,9.979502909E0
7.921683417E0,1.655233900E0,-6.341708833E0,-2.579830137E0,7.043620782E0
7.931669417E0,2.602750053E0,-6.902094871E0,1.595608088E0,7.547131019E0
7.941655417E0,3.088302256E0,-7.389742132E0,2.029868077E0,8.262340105E0
7.951641417E0,3.588690015E0,-7.120994160E0,8.238915427E-1,8.016610950E0
7.961627417E0,4.344583556E0,-6.107966972E0,-1.305802392E0,7.608402375E0
7.971613417E0,5.199175174E0,-4.190399496E0,-4.718292557E0,8.176377870E0
7.981599417E0,5.928180878E0,-2.432622390E0,-8.286003932E0,1.047467619E1
7.991585417E0,6.351298267E0,-2.204924212E0,-1.134143373E1,1.318441502E1
8.001571417E0,6.158303897E0,-2.729385249E0,-1.225490330E1,1.398416624E1
8.011558417E0,5.863275615E0,-4.391352510E0,-1.191412757E1,1.398600778E1
8.021544417E0,4.630212439E0,-6.803958127E0,-1.028813969E1,1.317492056E1
8.031530417E0,3.310091239E0,-9.100968969E0,-8.142452449E0,1.265242554E1
8.041516417E0,3.023911548E0,-1.031745997E1,-6.474483898E0,1.255041684E1
8.051502417E0,3.532643284E0,-1.060196326E1,-5.860689976E0,1.261859265E1
8.061488417E0,5.079827070E0,-1.024826285E1,-6.764499947E0,1.328871679E1
8.071474417E0,6.904220919E0,-9.111895661E0,-7.829227631E0,1.385610747E1
8.081460417E0,8.976437894E0,-7.314338193E0,-8.341682289E0,1.427093704E1
8.091446417E0,1.105341041E1,-5.751002643E0,-8.624011588E0,1.515339859E1
8.101432417E0,1.231591665E1,-4.001813050E0,-8.239667087E0,1.534889001E1
8.111418417E0,1.290063237E1,-3.020838252E0,-8.198540695E0,1.558100924E1
8.121404417E0,1.304866750E1,-3.307783636E0,-7.578545217E0,1.544809062E1
8.131390417E0,1.196463114E1,-4.432573627E0,-5.778491573E0,1.400682234E1
8.141376417E0,1.009088387E1,-6.449368352E0,-3.644760720E0,1.251816960E1
8.151362417E0,8.054360052E0,-8.073685099E0,-1.178653080E0,1.146500458E1
8.161348417E0,6.479115477E0,-9.551117451E0,1.160896255E0,1.159958887E1
8.171334417E0,6.094830033E0,-9.803989647E0,2.982620850E0,1.192313689E1
8.181320417E0,7.718671401E0,-8.371353400E0,4.569070444E0,1.226922372E1
8.191306417E0,1.052968583E1,-5.895708951E0,5.711679533E0,1.335129023E1
8.201292417E0,1.405654037E1,-2.791598747E0,5.683773696E0,1.541702416E1
8.211279417E0,1.633826425E1,-1.986735506E-1,5.306470996E0,1.717955134E1
8.221265417E0,1.665530379E1,8.931959586E-1,6.444553170E0,1.788097338E1
8.231251417E0,1.413604730E1,-5.205287853E-1,9.590281516E0,1.709012238E1
8.241237417E0,9.544201364E0,-8.401947494E-1,1.222559705E1,1.553264080E1
8.251223417E0,6.063059186E0,-2.019530492E0,1.243437306E1,1.398044432E1
8.261209417E0,2.916589413E0,-2.369629167E0,1.084002680E1,1.147291668E1
8.271195417E0,5.444377577E-1,-2.316858338E0,6.957963263E0,7.353740395E0
8.281181417E0,-8.418610597E-1,-1.880824450E0,2.694426209E0,3.392073591E0
8.291167417E0,-1.668290733E0,-8.938064079E-1,5.906927419E-1,1.982675409E0
8.301153417E0,-1.725895747E0,-2.489481300E-2,-3.102918541E-1,1.753743686E0
8.311139417E0,-1.205833862E0,5.223440534E-1,-4.431008327E-1,1.386800981E0
8.321125417E0,-9.436546522E-1,6.420279332E-1,-1.528514796E-1,1.151541378E0
8.331111708E0,-7.773534071E-1,5.109156704E-1,3.978211641E-1,1.011718746E0
8.341097708E0,-7.539370626E-1,-1.339940630E-1,1.244461738E0,1.461184629E0
8.351083708E0,-9.889290583E-1,-8.588611083E-1,2.288889059E0,2.637164426E0
8.361069708E0,-1.234448966E0,-1.305373353E0,2.651853801E0,3.203153512E0
8.371055708E0,-1.249707275E0,-1.468052394E0,2.337185306E0,3.029749372E0
8.381041708E0,-9.484587246E-1,-1.259356058E0,1.861107931E0,2.439113438E0
8.391028708E0,-6.085910690E-1,-1.037865429E0,8.298228121E-1,1.461558633E0
8.401014708E0,-3.980421889E-1,-8.064440359E-1,-8.226769298E-1,1.218846544E0
8.411000708E0,-3.278989899E-1,-6.018581463E-1,-1.867419416E0,1.989222524E0
8.420986708E0,-4.258521312E-1,-6.523251723E-1,-2.532252513E0,2.649373692E0
8.430972708E0,-5.872803068E-1,-9.034641078E-1,-2.658106813E0,2.868218504E0
8.440958708E0,-7.199928063E-1,-1.054716666E0,-2.041565870E0,2.408071446E0
8.450944708E0,-6.146669108E-1,-1.134450176E0,-1.363695821E0,1.877354230E0
8.460930708E0,-4.059563953E-1,-1.257302223E0,-7.300997186E-1,1.509521472E0
8.470916708E0,-2.454146576E-1,-1.300156467E0,-3.775973994E-1,1.375941492E0
8.480902708E0,8.622713506E-2,-1.067504673E0,-5.846578306E-1,1.220174629E0
8.490888708E0,7.400236130E-1,-6.745450303E-1,-8.485204536E-1,1.312491107E0
8.500874708E0,1.273489071E0,-2.435431100E-1,-1.115969759E0,1.710694643E0
8.510860708E0,1.597708408E0,-3.182361737E-2,-1.827696356E0,2.427788885E0
8.520846708E0,1.823520859E0,-1.484856561E-2,-2.853039535E0,3.386042438E0
8.530832708E0,1.917037134E0,3.708713472E-2,-3.644981745E0,4.118531140E0
8.540818708E0,1.939162998E0,-8.254543573E-2,-4.040727147E0,4.482704849E0
8.550804708E0,1.759135998E0,-4.364665818E-1,-4.368631985E0,4.729694277E0
8.560790708E0,1.751860308E0,-6.988024968E-1,-4.489354768E0,4.869460515E0
8.570776708E0,1.953369393E0,-6.128001872E-1,-4.940145859E0,5.347543096E0
8.580763708E0,2.711239293E0,-1.881859115E-1,-4.971002786E0,5.665430357E0
8.590749708E0,3.995439293E0,5.327968284E-1,-5.112431729E0,6.510327625E0
8.600735708E0,5.478880827E0,1.356498190E0,-5.589191474E0,7.943379872E0
8.610721708E0,7.129631082E0,2.358851579E0,-6.658399295E0,1.003643868E1
8.620707708E0,9.017371327E0,3.303089491E0,-8.217237752E0,1.263908154E1
8.630693708E0,1.045157053E1,2.474467989E0,-9.747767499E0,1.450438864E1
8.640679708E0,9.797440181E0,-3.007784343E-1,-9.805329829E0,1.386451567E1
8.650665708E0,8.826793612E0,-2.884564798E0,-8.445977320E0,1.255259067E1
8.660651708E0,7.990927702E0,-4.853194254E0,-5.775080892E0,1.098908455E1
8.670637708E0,6.803172846E0,-5.655196014E0,-2.688538647E0,9.246223164E0
8.680623708E0,6.393764255E0,-5.077632025E0,-5.565105039E-1,8.183658856E0
8.690609708E0,6.931133898E0,-4.101669168E0,-1.871986091E-1,8.056013307E0
8.700595708E0,6.923474046E0,-4.111665568E0,-3.112551829E-1,8.058360031E0
8.710581708E0,6.397484254E0,-3.925829360E0,-9.626352990E-1,7.567470361E0
8.720567708E0,6.176492831E0,-4.098835022E0,-2.063813064E0,7.694727844E0
8.730553708E0,4.923685362E0,-5.522001704E0,-1.890282321E0,7.635990284E0
8.740539708E0,2.890873066E0,-5.960876169E0,4.831773564E-2,6.625068029E0
8.750526708E0,1.997746397E0,-5.126038785E0,1.594628094E0,5.728010392E0
8.760512708E0,1.609635850E0,-5.120005628E0,2.094560355E0,5.761299183E0
8.770498708E0,9.112729181E-1,-5.366483894E0,2.968492223E0,6.200122079E0
8.780484708E0,4.337492345E-1,-4.956958943E0,3.202917624E0,5.917622974E0
8.790470708E0,5.621296781E-1,-4.791442394E0,2.449699184E0,5.410631764E0
8.800456708E0,6.196136552E-1,-4.801662742E0,1.856320231E0,5.185152936E0
8.810442708E0,-3.744469196E-1,-4.858425173E0,1.739692252E0,5.174073327E0
8.820428708E0,-1.215231214E0,-5.131241637E0,1.738494158E0,5.552367926E0
8.830414708E0,-1.424554811E0,-5.159969008E0,2.010154043E0,5.717985296E0
8.840400708E0,-1.276832801E0,-5.180504429E0,2.353868582E0,5.831691474E0
8.850386708E0,-1.118841911E0,-5.388679925E0,2.527587020E0,6.056267390E0
8.860372708E0,-9.629554340E-1,-5.472519642E0,3.200852972E0,6.412582486E0
8.870358708E0,-6.894697559E-1,-5.456311744E0,3.683421341E0,6.619237053E0
8.880344708E0,-8.295164180E-1,-5.729067398E0,4.065482504E0,7.073786732E0
8.890330708E0,-1.207834779E0,-5.919180259E0,4.486872625E0,7.525130281E0
8.900316708E0,-7.928713328E-1,-5.659915302E0,3.982267855E0,6.965755052E0
8.910302708E0,-1.156117326E-1,-5.557585520E0,2.972033297E0,6.303420087E0
8.920289708E0,-9.767802984E-2,-5.894193937E0,3.432298046E0,6.821417231E0
8.930275708E0,-7.566346756E-1,-6.306955907E0,3.713261436E0,7.357886880E0
8.940261708E0,-8.929677710E-1,-6.627627738E0,3.128349252E0,7.383048823E0
8.950247708E0,-4.976264110E-1,-6.638954380E0,2.025969007E0,6.959015571E0
8.960233708E0,-3.336500189E-1,-6.809757396E0,1.697204337E0,7.025996064E0
8.970219708E0,-7.147715351E-1,-7.292982407E0,1.865930715E0,7.561758272E0
8.980205708E0,-1.854007365E0,-8.229393529E0,2.580242074E0,8.821446045E0
8.990191708E0,-2.117194488E0,-8.584317180E0,2.501931192E0,9.188725354E0
9.000177708E0,-1.234104857E0,-8.368353193E0,1.904368118E0,8.670580597E0
9.010163708E0,3.168805698E-1,-7.364600859E0,1.782895721E0,7.583961778E0
9.020149708E0,1.446250904E0,-6.755344961E0,2.511803046E-1,6.912989134E0
9.030135708E0,1.271337003E0,-7.330232095E0,-1.356196474E0,7.562266143E0
9.040121708E0,1.361011218E0,-8.064431296E0,-1.349641453E0,8.289085336E0
9.050107708E0,3.346678729E0,-7.253278643E0,-1.806529436E0,8.189863137E0
9.060093708E0,4.283169373E0,-6.540893649E0,-2.137921260E0,8.105525086E0
9.070079708E0,4.036475052E0,-6.731128133E0,-2.564134457E0,8.256876062E0
9.080065708E0,3.126014166E0,-6.863804964E0,-3.919354446E0,8.499713079E0
9.090052708E0,2.531524242E0,-6.261082746E0,-4.987610632E0,8.395595986E0
9.100038708E0,3.617582277E0,-4.994147235E0,-5.150184862E0,8.034476476E0
9.110024708E0,4.292348624E0,-3.294541154E0,-6.932593948E0,8.794266142E0
9.120010708E0,4.413948491E0,-3.630374815E0,-8.581768963E0,1.031064116E1
9.129996708E0,3.495956683E0,-6.207493014E0,-6.630360142E0,9.732232954E0
9.139982708E0,2.324982752E0,-7.089555436E0,-5.213668667E0,9.102180071E0
9.149968708E0,2.262339191E0,-8.072779950E0,-3.167732588E0,8.962281210E0
9.159954708E0,3.319526306E0,-7.514506511E0,-2.916689401E0,8.717461790E0
9.169940708E0,4.307160791E0,-6.434747390E0,-5.124293976E0,9.285256959E0
9.179926708E0,4.592883815E0,-5.800973532E0,-6.555368432E0,9.885278495E0
9.189912708E0,5.428553842E0,-4.876869923E0,-7.680076854E0,1.059417942E1
9.199898708E0,6.146282022E0,-2.375768743E0,-9.779096296E0,1.179202206E1
9.209884708E0,6.165029365E0,-2.065471627E0,-1.032378198E1,1.220058336E1
9.219870708E0,5.445090353E0,-3.863311515E0,-9.491126772E0,1.160412307E1
9.229856708E0,4.889685557E0,-5.823542615E0,-7.345246575E0,1.057238482E1
9.239842708E0,4.899831061E0,-7.201688660E0,-5.085020567E0,1.008613395E1
9.249828708E0,5.349786000E0,-7.517323700E0,-5.239856007E0,1.061067655E1
9.259815708E0,6.766219613E0,-6.853386980E0,-6.270225452E0,1.149201323E1
9.269801708E0,8.077593378E0,-6.553262265E0,-7.557964772E0,1.285751114E1
9.279787708E0,8.819605045E0,-5.707525671E0,-9.412916754E0,1.410547001E1
9.289773708E0,1.013445030E1,-4.487847356E0,-1.095749034E1,1.558571306E1
9.299759708E0,1.141735514E1,-4.381714837E0,-1.202614736E1,1.715178252E1
9.309745708E0,1.216546896E1,-5.505953436E0,-1.193707672E1,1.791111272E1
9.319731708E0,1.311089591E1,-7.363382299E0,-8.403117229E0,1.722577631E1
9.329716833E0,1.370559984E1,-8.717152471E0,-2.429997575E0,1.642367506E1
9.339702833E0,1.262759079E1,-1.051025085E1,1.616831142E0,1.650865122E1
9.349688833E0,1.106998142E1,-1.138095272E1,3.213039739E0,1.619858629E1
9.359674833E0,1.131604161E1,-9.421873519E0,2.995578865E0,1.502657616E1
9.369660833E0,1.296918513E1,-5.193000514E0,2.438752611E0,1.418148552E1
9.379646833E0,1.614090318E1,-3.494122119E0,1.216251261E0,1.655949613E1
9.389632833E0,1.757829731E1,-1.574202893E0,2.338628399E0,1.780291644E1
9.399618833E0,1.728084243E1,-1.700053393E0,6.533413306E0,1.855271371E1
9.409604833E0,1.399325712E1,-1.856259274E0,1.032550924E1,1.748922767E1
9.419591833E0,1.030312493E1,-2.265191171E0,1.199567752E1,1.597440933E1
9.429577833E0,7.845810919E0,-2.178391886E0,1.308692115E1,1.541329444E1
9.439563833E0,6.352572960E0,-7.415430120E-1,1.341033650E1,1.485739527E1
9.449549833E0,4.749133988E0,4.518324798E-1,1.100558603E1,1.199505524E1
9.459535833E0,2.687872065E0,3.757923639E-1,5.952559090E0,6.542081920E0
9.469521833E0,5.145327580E-1,-1.627698192E-1,6.603681636E-1,8.528329758E-1
9.479507833E0,-1.256066999E0,4.405403370E-1,-1.201122175E0,1.792895584E0
9.489493833E0,-1.769294951E0,5.231594476E-1,-1.130996518E0,2.164082613E0
9.499479833E0,-2.285110003E0,3.815208811E-1,-5.081359041E-1,2.371811124E0
9.509465833E0,-2.525148731E0,-5.352161139E-2,6.738992053E-1,2.614073605E0
9.519451833E0,-2.154048173E0,-6.464386341E-1,2.158570994E0,3.117248013E0
9.529437833E0,-1.866540287E0,-1.175615744E0,3.798822573E0,4.392846226E0
9.539423833E0,-1.441638036E0,-1.247841721E0,5.036862314E0,5.385667197E0
9.549409833E0,-1.056611164E0,-1.119831845E0,4.721008589E0,4.965719747E0
9.559395833E0,-1.034616863E0,-1.323954635E0,2.376209038E0,2.910267569E0
9.569381833E0,-5.834047723E-1,-1.018103741E0,6.809661502E-1,1.356691289E0
9.579367833E0,-5.743369102E-2,-4.624062923E-1,-2.214948678E-1,5.159245918E-1
9.589354833E0,-6.009358943E-2,-3.007579690E-1,-1.199749249E0,1.238331481E0
9.599340833E0,-4.850312161E-1,-6.613136584E-1,-1.920866475E0,2.088616540E0
9.609326833E0,-1.045959291E0,-1.232567332E0,-2.274808964E0,2.790700430E0
9.619312833E0,-1.263383328E0,-1.484468890E0,-1.735059503E0,2.609639209E0
9.629298833E0,-9.600315338E-1,-1.454697792E0,-1.007380532E0,2.013112453E0
9.639284833E0,-5.278316653E-1,-1.253300974E0,-4.971109790E-1,1.447925731E0
9.649270833E0,-3.668344295E-1,-1.147166701E0,-3.308763921E-1,1.249014862E0
9.659256833E0,-5.469245785E-1,-1.066155574E0,-1.185862112E0,1.685847903E0
9.669242833E0,-2.527955979E-1,-8.214452139E-1,-2.148180492E0,2.313732327E0
9.679228833E0,3.044107246E-1,-3.217445031E-1,-2.530145177E0,2.568622205E0
9.689214833E0,5.832235086E-1,-6.688191444E-2,-2.792233754E0,2.853277447E0
9.699200833E0,5.071208274E-1,-2.305548361E-1,-2.947809452E0,2.999984605E0
9.709186833E0,2.566518366E-1,-6.362296879E-1,-3.033791589E0,3.110393831E0
9.719172833E0,1.609264845E-1,-9.019838852E-1,-2.881267553E0,3.023437609E0
9.729158833E0,3.043797344E-1,-9.243000761E-1,-2.697349232E0,2.867519927E0
9.739145833E0,7.899336916E-1,-7.600316155E-1,-2.336303546E0,2.580689356E0
9.749131833E0,1.316185439E0,-4.044571692E-1,-2.701189098E0,3.031889222E0
9.759117833E0,1.663864975E0,-1.876833433E-1,-3.677494603E0,4.040747239E0
9.769103833E0,2.023218477E0,-1.500228891E-1,-4.618632029E0,5.044569525E0
9.779089833E0,2.458518539E0,-9.616243154E-2,-4.743487625E0,5.343616328E0
9.789075833E0,2.874287147E0,-5.113360852E-2,-4.778896024E0,5.576915676E0
9.799061833E0,3.183571526E0,-1.985249582E-1,-4.862777256E0,5.815594764E0
9.809047833E0,3.370981804E0,-1.520580125E-1,-4.920428463E0,5.966343623E0
9.819033833E0,3.642889026E0,-1.961828560E-2,-5.125935289E0,6.288579961E0
9.829019833E0,4.148241656E0,3.430178431E-1,-5.624950122E0,6.997544851E0
9.839005833E0,4.845012830E0,1.053776142E0,-6.159003809E0,7.906827518E0
9.848991833E0,5.686977970E0,1.709406599E0,-6.711715962E0,8.961636039E0
9.858977833E0,6.440522684E0,1.453859886E0,-7.535710854E0,1.001903085E1
9.868963833E0,6.600617695E0,2.981004095E-1,-7.687412771E0,1.013673187E1
9.878949833E0,6.188760874E0,-1.290586329E0,-6.745966027E0,9.245238335E0
9.888935833E0,5.387250280E0,-2.788267588E0,-5.552608954E0,8.223646875E0
9.898922833E0,4.889269528E0,-3.743065864E0,-4.260667825E0,7.487909514E0
9.908908833E0,5.169545578E0,-4.422292467E0,-2.298952702E0,7.180950889E0
9.918894833E0,4.897521996E0,-4.382326748E0,2.812984353E-1,6.577966117E0
9.928880833E0,4.546897802E0,-4.254468607E0,2.187827538E0,6.600103945E0
9.938866833E0,4.218383685E0,-4.015763045E0,2.874480982E0,6.494902206E0
9.948852833E0,3.411195153E0,-4.074807059E0,1.945665978E0,5.659144904E0
9.958838833E0,3.040508285E0,-4.275862985E0,4.455008224E-1,5.265564156E0
9.968824833E0,3.501901547E0,-4.486405433E0,-8.735482907E-1,5.757971411E0
9.978810833E0,3.589865305E0,-4.699711860E0,-8.762413721E-1,5.978480026E0
9.988796833E0,2.994583961E0,-5.719593154E0,3.086546338E-1,6.463477905E0
9.998782833E0,1.037081245E0,-6.763673735E0,1.844776658E0,7.087031877E0
1.000876883E1,-4.541271465E-1,-6.556666514E0,3.218129740E0,7.317955060E0
1.001875483E1,-1.158551230E0,-6.211375566E0,4.669304000E0,7.856578594E0
1.002874083E1,-1.608409105E0,-6.030425876E0,5.289276089E0,8.181042576E0
1.003872683E1,-2.182201785E0,-5.780392503E0,5.392060785E0,8.200564714E0
1.004871383E1,-2.425673559E0,-5.600377783E0,5.761929919E0,8.393328298E0
1.005869983E1,-2.101650689E0,-5.291837170E0,5.654405470E0,8.024511042E0
1.006868583E1,-1.217465143E0,-4.973296648E0,4.847927667E0,7.051120733E0
1.007867183E1,-4.060727549E-1,-4.673369569E0,3.795376809E0,6.034083471E0
1.008865783E1,-6.595074534E-3,-4.618553091E0,2.403184145E0,5.206377837E0
1.009864383E1,4.185817033E-2,-4.930523096E0,2.498863742E0,5.527759954E0
1.010862983E1,-2.888366657E-1,-4.950620561E0,3.327099035E0,5.971738319E0
1.011861583E1,-4.338104841E-1,-5.424446758E0,4.291585563E0,6.930405530E0
1.012860183E1,-8.779880816E-1,-5.921802151E0,4.348670760E0,7.399293288E0
1.013858783E1,-1.113867100E0,-6.293112039E0,4.076236703E0,7.580215347E0
1.014857383E1,-6.367559373E-1,-6.736448514E0,3.867752475E0,7.793889011E0
1.015855983E1,7.700826868E-2,-7.210069474E0,3.647004297E0,8.080326258E0
1.016854583E1,4.057692844E-1,-7.983568397E0,3.707988417E0,8.811991328E0
1.017853183E1,5.624457201E-1,-8.123085886E0,3.809532334E0,8.989627695E0
1.018851783E1,7.337151982E-1,-7.655578775E0,2.803791361E0,8.185809084E0
1.019850483E1,3.265124324E-1,-6.885383529E0,-5.923206067E-1,6.918522994E0
1.020849083E1,1.956820968E-1,-5.800951898E0,-4.293170743E0,7.219463237E0
1.021847683E1,4.780272385E-1,-5.988099636E0,-5.165931998E0,7.922922485E0
1.022846283E1,9.031643649E-1,-7.197521349E0,-3.794501481E0,8.186468160E0
1.023844883E1,1.440668421E0,-8.411717899E0,-1.640548325E0,8.690450064E0
1.024843483E1,1.564476342E0,-1.017033233E1,-6.133997460E-1,1.030822512E1
1.025842083E1,3.048320750E0,-1.109251425E1,-1.524756499E-1,1.150475469E1
1.026840683E1,4.289298132E0,-9.271580197E0,-1.100174821E0,1.027475851E1
1.027839283E1,4.848247217E0,-7.167519286E0,-4.012899663E0,9.538458864E0
1.028837883E1,6.539197372E0,-3.756249581E0,-8.958452443E0,1.171001210E1
1.029836483E1,6.823803577E0,-5.715185523E-2,-1.372090902E1,1.532419348E1
1.030835083E1,5.891072109E0,-1.008413150E0,-1.383948471E1,1.507491176E1
1.031833683E1,4.528803594E0,-3.288853567E0,-9.523150803E0,1.104613149E1
1.032832317E1,3.583191878E0,-5.505294455E0,-5.084041743E0,8.306323586E0
1.033830917E1,2.368261503E0,-7.825292455E0,-3.643971931E0,8.951111438E0
1.034829617E1,1.324124789E0,-9.618727636E0,-3.449810457E0,1.030409724E1
1.035828217E1,1.526098142E0,-9.818598915E0,-3.723739647E0,1.061131929E1
1.036826817E1,2.946114929E0,-9.884647894E0,-4.526699181E0,1.126396301E1
1.037825417E1,4.962937721E0,-8.548160337E0,-5.008826669E0,1.108107127E1
1.038824017E1,7.205327382E0,-5.245376363E0,-6.918546013E0,1.128259699E1
1.039822617E1,8.235272904E0,-3.953787529E0,-9.327189556E0,1.305559729E1
1.040821217E1,7.993856573E0,-4.748040267E0,-1.028422205E1,1.386401286E1
1.041819817E1,6.975109638E0,-6.298461657E0,-9.413241860E0,1.330157494E1
1.042818417E1,6.408993328E0,-7.684241826E0,-7.915841267E0,1.275865631E1
1.043817017E1,6.392225853E0,-9.186870999E0,-7.025551229E0,1.321429227E1
1.044815617E1,6.526437578E0,-1.015509916E1,-6.944140445E0,1.392628856E1
1.045814217E1,7.669439015E0,-1.071948996E1,-6.853322661E0,1.485583358E1
1.046812817E1,9.092460685E0,-1.000349372E1,-6.473236687E0,1.498817938E1
1.047811417E1,1.089037834E1,-8.072243176E0,-6.272035165E0,1.493652823E1
1.048810017E1,1.315179601E1,-5.488974291E0,-6.820767118E0,1.579941268E1
1.049808617E1,1.581916014E1,-2.538918924E0,-7.260623331E0,1.759001387E1
1.050807317E1,1.718281971E1,-7.023407932E-1,-6.465123090E0,1.837227237E1
1.051805917E1,1.687103447E1,-1.149760160E0,-5.407796811E0,1.775381702E1
1.052804517E1,1.521188001E1,-3.855546997E0,-3.838963709E0,1.615562374E1
1.053803117E1,1.281347962E1,-7.740810714E0,-1.182314022E0,1.501676653E1
1.054801717E1,9.981926851E0,-1.040650370E1,3.371902156E0,1.480891310E1
1.055800317E1,8.452827333E0,-9.884122814E0,7.347717608E0,1.493770825E1
1.056798917E1,8.656774707E0,-7.941826878E0,8.228368512E0,1.434288712E1
1.057797517E1,9.830703821E0,-4.905671260E0,7.274054385E0,1.317650239E1
1.058796117E1,1.079714566E1,-2.312509910E0,7.369177474E0,1.327519616E1
1.059794717E1,1.147575480E1,3.787395068E-1,7.928659533E0,1.395349539E1
1.060793317E1,1.126474048E1,1.102832819E0,8.982224883E0,1.444960145E1
1.061791917E1,9.287940706E0,9.824874732E-1,1.099848166E1,1.442905829E1
1.062790517E1,6.877082237E0,3.199165173E-1,1.226226611E1,1.406270873E1
1.063789117E1,4.469014059E0,-4.585480070E-1,1.258771863E1,1.336536618E1
1.064787817E1,2.441428882E0,-1.291886165E0,1.131475288E1,1.164702441E1
1.065786417E1,7.906967533E-1,-2.016428690E0,8.200038752E0,8.481262969E0
1.066785017E1,-7.633469868E-1,-2.380177836E0,5.118222812E0,5.695976642E0
1.067783617E1,-2.252776070E0,-2.171825463E0,1.788170933E0,3.604078405E0
1.068782217E1,-3.554697227E0,-1.621846006E0,-6.289528280E-1,3.957504075E0
1.069780817E1,-4.048835481E0,-1.112125214E0,-1.248156593E0,4.380386527E0
1.070779417E1,-3.909703909E0,-7.938767615E-1,-1.075512289E0,4.131918640E0
1.071778017E1,-3.319285401E0,-4.349968842E-1,-8.494203401E-1,3.453750538E0
1.072776617E1,-2.506405481E0,-2.964316142E-1,-6.015252936E-1,2.594566017E0
1.073775217E1,-2.129535475E0,-3.085964540E-1,-3.148971212E-1,2.174698441E0
1.074773817E1,-1.967690978E0,-7.087731689E-1,-5.667858160E-1,2.166890249E0
1.075772417E1,-1.862950389E0,-1.301800996E0,-1.150826765E0,2.547483509E0
1.076771017E1,-1.853824055E0,-1.715278957E0,-1.185955667E0,2.790221563E0
1.077769617E1,-1.708069925E0,-1.772776676E0,-9.047496182E-1,2.622748917E0
1.078768217E1,-1.529443919E0,-1.815701086E0,-1.015522780E0,2.582102951E0
1.079766917E1,-1.149651475E0,-1.794198827E0,-1.607303104E0,2.669133045E0
1.080765517E1,-7.820428741E-1,-1.351757268E0,-2.106869329E0,2.622544020E0
1.081764117E1,-4.389744526E-1,-1.073007634E0,-2.514909087E0,2.769261936E0
1.082762717E1,-1.291614854E-1,-8.290936643E-1,-2.525054591E0,2.660823121E0
1.083761317E1,1.550681591E-1,-6.400727704E-1,-2.329124334E0,2.420446126E0
1.084759917E1,3.129388887E-1,-5.923267463E-1,-2.374437332E0,2.467130796E0
1.085758517E1,5.298746824E-1,-6.811953610E-1,-2.517749079E0,2.661551188E0
1.086757117E1,7.745362186E-1,-6.684960857E-1,-2.237994309E0,2.460774654E0
1.087755717E1,9.116054785E-1,-6.545016521E-1,-1.974807624E0,2.271400914E0
1.088754317E1,1.126273137E0,-6.905941755E-1,-1.801236536E0,2.233800473E0
1.089752917E1,1.183769978E0,-7.497373000E-1,-1.626492496E0,2.146833766E0
1.090751517E1,1.075738576E0,-8.332317388E-1,-1.572320382E0,2.079346051E0
1.091750117E1,1.124361098E0,-7.467204291E-1,-1.436356831E0,1.971015023E0
1.092748717E1,1.177203555E0,-6.457208884E-1,-1.227255721E0,1.819043782E0
1.093747317E1,1.297800039E0,-5.728353453E-1,-1.298014047E0,1.922827538E0
1.094746017E1,1.475975225E0,-5.609611121E-1,-1.773317251E0,2.374412413E0
1.095744617E1,1.650361415E0,-4.643127769E-1,-2.177417740E0,2.771358362E0
1.096743217E1,1.867440466E0,-3.734300888E-1,-2.225064361E0,2.928770277E0
1.097741817E1,2.162716670E0,-2.585407797E-1,-2.207630303E0,3.101260757E0
1.098740417E1,2.528969302E0,-1.078510156E-1,-2.479622895E0,3.543423100E0
1.099739017E1,2.910082632E0,-1.801506677E-1,-2.808133503E0,4.048042608E0
1.100737617E1,3.145287466E0,-3.288251889E-1,-2.855033435E0,4.260536957E0
1.101736217E1,3.158926097E0,-1.868764275E-1,-3.470012587E0,4.696245760E0
1.102734817E1,3.361430377E0,-2.620412153E-1,-4.243048995E0,5.419533611E0
1.103733417E1,3.510614483E0,-3.985848105E-1,-5.042458100E0,6.157082717E0
1.104732017E1,3.495953175E0,-5.424649072E-1,-5.493779533E0,6.534337788E0
1.105730617E1,3.889589487E0,-4.184869784E-1,-5.943768386E0,7.115646165E0
1.106729217E1,4.478422814E0,1.087795535E-1,-6.145066971E0,7.604600710E0
1.107727917E1,5.377215289E0,5.135539341E-1,-6.428810127E0,8.396891184E0
1.108726517E1,6.156177850E0,7.119593167E-1,-6.648608717E0,9.088971870E0
1.109725117E1,6.977505827E0,6.800224096E-1,-6.608858176E0,9.634574429E0
1.110723717E1,7.526934768E0,2.070037133E-1,-6.184632740E0,9.744089473E0
1.111722317E1,7.540271682E0,-8.714988416E-1,-5.523993266E0,9.387742480E0
1.112720917E1,7.375676655E0,-1.984426294E0,-4.678843147E0,8.957127164E0
1.113719517E1,7.489514927E0,-2.424259118E0,-4.208339923E0,8.926364938E0
1.114718117E1,8.390787790E0,-2.880473501E0,-3.659341629E0,9.596521687E0
1.115716717E1,9.349912421E0,-3.945664870E0,-2.006097537E0,1.034473590E1
1.116715317E1,8.812473781E0,-5.251217147E0,-1.597269282E-1,1.025965342E1
1.117713917E1,8.099738538E0,-6.604597310E0,4.338742188E-1,1.046014899E1
1.118712517E1,6.758331134E0,-7.676898893E0,7.489034870E-1,1.025527536E1
1.119711117E1,4.847452288E0,-7.904350904E0,2.785043433E-2,9.272396267E0
1.120709717E1,3.888636391E0,-7.632017419E0,-5.313942276E-2,8.565746124E0
1.121708417E1,3.085741761E0,-7.269044491E0,-3.190008799E-2,7.896950528E0
1.122707017E1,1.834006525E0,-7.348290051E0,-2.640245543E-1,7.578301628E0
1.123705617E1,6.609251109E-1,-7.366322864E0,1.770232844E-1,7.398031615E0
1.124704217E1,-7.038957140E-1,-7.249525316E0,6.397894728E-1,7.311663084E0
1.125702817E1,-1.750497614E0,-7.219086465E0,1.617781314E0,7.602411964E0
1.126701417E1,-3.048970083E0,-7.399074873E0,3.099787942E0,8.582028480E0
1.127700017E1,-4.438981006E0,-7.532016583E0,4.057067192E0,9.638237410E0
1.128698617E1,-5.165917965E0,-7.324980125E0,5.036701516E0,1.028155652E1
1.129697217E1,-4.812775083E0,-7.012560470E0,5.799988861E0,1.029459466E1
1.130695817E1,-4.120991000E0,-7.269940869E0,6.182530666E0,1.039510907E1
1.131694417E1,-2.762214442E0,-7.199028177E0,6.646065179E0,1.017968652E1
1.132693054E1,-1.059482732E0,-6.956198573E0,6.852130998E0,9.821552905E0
1.133691654E1,3.208261979E-1,-6.794694968E0,5.996300941E0,9.067879252E0
1.134690254E1,1.462754086E0,-6.654244264E0,4.928609887E0,8.408912632E0
1.135688954E1,1.406730158E0,-6.679252220E0,4.238386425E0,8.034626280E0
1.136687554E1,-4.000314116E-2,-7.222952644E0,4.170581528E0,8.340647183E0
1.137686154E1,-1.333608680E0,-7.930385047E0,4.354503942E0,9.145010863E0
1.138684754E1,-2.782993400E0,-8.967579947E0,3.796452697E0,1.012796107E1
1.139683354E1,-3.693678819E0,-9.469945818E0,3.244389585E0,1.067001410E1
1.140681954E1,-3.109647517E0,-1.048909446E1,3.236692311E0,1.140908354E1
1.141680554E1,-2.137432140E0,-1.168628613E1,3.446244825E0,1.236990312E1
1.142679154E1,-8.964078341E-1,-1.291812958E1,4.308525531E0,1.364716128E1
1.143677754E1,9.692540547E-1,-1.369516607E1,5.094163274E0,1.464402699E1
1.144676354E1,3.547888144E0,-1.205610030E1,3.865590760E0,1.314837848E1
1.145674954E1,5.764775759E0,-8.073343622E0,6.851146035E-1,9.943887510E0
1.146673554E1,3.697848468E0,-5.820930664E0,-4.547131691E0,8.260370676E0
1.147672154E1,1.309321539E0,-7.035786195E0,-9.582806436E0,1.196021695E1
1.148670754E1,1.962004268E0,-7.930325990E0,-9.985265611E0,1.290135886E1
1.149669454E1,3.001314691E0,-8.967001072E0,-7.387020253E0,1.199929441E1
1.150668054E1,3.754405077E0,-1.071972384E1,-4.626211774E0,1.226417026E1
1.151666654E1,3.857743211E0,-1.255033036E1,-1.994446814E0,1.328046659E1
1.152665254E1,4.089489418E0,-1.291817168E1,-1.126979627E0,1.359680721E1
1.153663854E1,5.857998503E0,-1.289038571E1,-2.891530001E0,1.445126763E1
1.154662454E1,7.209050889E0,-8.433281261E0,-7.187556524E0,1.321936520E1
1.155661054E1,9.230533327E0,-4.664649616E0,-1.254473341E1,1.625829135E1
1.156659654E1,1.004129480E1,-3.603444879E0,-1.585775410E1,1.911232015E1
1.157658254E1,9.341128734E0,-2.862705567E0,-1.543029457E1,1.826323519E1
1.158656854E1,8.199300833E0,-3.953545162E0,-1.230333578E1,1.530461123E1
1.159655454E1,7.196809743E0,-6.943870304E0,-9.186100920E0,1.357924355E1
1.160654054E1,5.346675866E0,-8.798482563E0,-5.884821435E0,1.185880945E1
1.161652654E1,3.677077112E0,-1.032757448E1,-4.057925563E0,1.168958727E1
1.162651354E1,2.387991178E0,-1.133370020E1,-3.633094940E0,1.213897199E1
1.163649954E1,2.184987545E0,-1.122707388E1,-4.351746980E0,1.223760844E1
1.164648554E1,3.285659818E0,-1.034878818E1,-5.435485132E0,1.214238345E1
1.165647154E1,5.088396165E0,-8.122004735E0,-6.751585786E0,1.172359361E1
1.166645754E1,7.043081181E0,-6.183268000E0,-8.566471478E0,1.269733158E1
1.167644354E1,8.247736829E0,-5.546774603E0,-9.765522569E0,1.393403396E1
1.168642954E1,9.003271936E0,-6.231722707E0,-9.014095716E0,1.418263710E1
1.169641554E1,9.069812080E0,-6.810357320E0,-7.150920210E0,1.340813626E1
1.170640154E1,9.384318607E0,-7.453094959E0,-5.265805950E0,1.308979650E1
1.171638754E1,1.024731560E1,-7.657623546E0,-3.723496403E0,1.332332919E1
1.172637354E1,1.060419573E1,-7.786330118E0,-2.279769157E0,1.335190066E1
1.173635954E1,1.095298097E1,-7.566094156E0,-1.550941792E0,1.340220106E1
1.174634554E1,1.197466730E1,-7.105551664E0,-7.812798125E-1,1.394603598E1
1.175633154E1,1.302866534E1,-6.245200539E0,9.346663123E-1,1.447833732E1
1.176631854E1,1.362619114E1,-4.936742780E0,2.437856233E0,1.469651855E1
1.177630454E1,1.420544556E1,-4.007243067E0,3.427998004E0,1.515268461E1
1.178629054E1,1.444479549E1,-3.970395668E0,4.609494585E0,1.567365939E1
1.179627654E1,1.363932282E1,-4.792763865E0,6.284382146E0,1.576372962E1
1.180626254E1,1.184034974E1,-4.748080612E0,7.792481389E0,1.494860922E1
1.181624854E1,9.958893499E0,-4.309608728E0,8.223773770E0,1.361553312E1
1.182623454E1,8.168774275E0,-3.529593668E0,7.405248363E0,1.157689975E1
1.183622054E1,6.668585730E0,-2.240890435E0,6.952614815E0,9.890929094E0
1.184620654E1,5.647346127E0,-1.411764903E0,6.766513728E0,8.925878469E0
1.185619254E1,4.439075146E0,-4.259570157E-1,5.878431598E0,7.378535463E0
1.186617854E1,3.621767714E0,2.926982401E-1,4.638349425E0,5.892126867E0
1.187616454E1,2.937915963E0,9.066472589E-1,3.734723641E0,4.837511771E0
1.188615054E1,2.132097725E0,1.232731931E0,2.964861687E0,3.854331790E0
1.189613754E1,1.299149576E0,1.094927530E0,1.914491256E0,2.559674332E0
1.190612354E1,2.949078298E-1,3.791014494E-1,7.897459960E-1,9.243307174E-1
1.191610954E1,-9.405030030E-1,-8.288314167E-1,8.357016027E-2,1.256380272E0
1.192609554E1,-2.168506583E0,-1.564200792E0,2.155774856E-1,2.682465018E0
1.193608154E1,-2.853519006E0,-1.752154277E0,5.200367421E-1,3.388665452E0
1.194606754E1,-2.921475931E0,-1.664681685E0,5.733218336E-1,3.410994672E0
1.195605354E1,-2.573125135E0,-1.435449050E0,6.147908717E-1,3.009892814E0
1.196603954E1,-2.141118810E0,-1.321632121E0,4.536170501E-1,2.556730265E0
1.197602554E1,-1.583510783E0,-8.498121035E-1,6.179004210E-1,1.900391523E0
1.198601154E1,-9.440528476E-1,-3.661228234E-1,7.693865758E-1,1.271706493E0
1.199599754E1,-5.811875081E-1,-1.184805228E-1,6.516944039E-1,8.812049421E-1
1.200598354E1,-5.036955285E-1,-1.382676467E-1,7.226398408E-2,5.273037180E-1
1.201596954E1,-4.510296571E-1,-4.131942250E-1,-4.238652474E-1,7.441901418E-1
1.202595654E1,-4.884839970E-1,-6.227302212E-1,-7.479454207E-1,1.088959088E0
1.203594254E1,-6.031806403E-1,-9.396675821E-1,-1.170937679E0,1.617991686E0
1.204592854E1,-9.047928876E-1,-1.441033287E0,-1.515090759E0,2.278316728E0
1.205591454E1,-1.547731086E0,-1.931099249E0,-1.554752423E0,2.922647929E0
1.206590054E1,-1.845667189E0,-1.983606076E0,-1.383622547E0,3.042300410E0
1.207588654E1,-1.619377019E0,-1.687173877E0,-1.275142663E0,2.663630311E0
1.208587254E1,-8.598166895E-1,-1.176067733E0,-1.378858235E0,2.005908793E0
1.209585854E1,-7.886373639E-2,-4.814454111E-1,-1.613731533E0,1.685864358E0
1.210584454E1,2.787467104E-1,-2.567746282E-2,-2.002145696E0,2.021619759E0
1.211583054E1,5.163260990E-1,-1.327547456E-1,-2.870817994E0,2.919899385E0
1.212581654E1,7.777475095E-1,-9.456716493E-2,-2.855986531E0,2.961501849E0
1.213580254E1,9.044210047E-1,-1.667548428E-1,-2.499547282E0,2.663366506E0
1.214578854E1,8.815747637E-1,-5.342264727E-1,-2.090663186E0,2.330975020E0
1.215577454E1,6.443865538E-1,-1.049816553E0,-1.874731359E0,2.243204515E0
1.216576154E1,5.510141212E-1,-1.421812759E0,-1.789326927E0,2.350927250E0
1.217574754E1,6.800300109E-1,-1.393136551E0,-2.053039861E0,2.572594593E0
1.218573354E1,8.636454463E-1,-1.168888668E0,-2.462168371E0,2.859100779E0
1.219571954E1,1.196303485E0,-9.017825948E-1,-2.873275579E0,3.240380599E0
1.220570554E1,1.710949094E0,-4.027062204E-1,-3.233872783E0,3.680686387E0
1.221569154E1,2.155429870E0,1.739722073E-2,-3.605972046E0,4.201096878E0
1.222567754E1,2.513040901E0,8.426013172E-2,-4.145895753E0,4.848806651E0
1.223566354E1,2.849888470E0,6.476668417E-2,-4.510567297E0,5.335848232E0
1.224564954E1,3.063727579E0,-2.335983118E-1,-4.739344288E0,5.648219111E0
1.225563554E1,3.323791265E0,-6.830316791E-1,-4.800403252E0,5.878604599E0
1.226562154E1,3.213371276E0,-1.278827578E0,-4.699141756E0,5.834645506E0
1.227560754E1,3.092197672E0,-1.508678410E0,-4.467663937E0,5.638955403E0
1.228559354E1,3.535814229E0,-1.052702301E0,-4.134724647E0,5.541309620E0
1.229558054E1,4.513652873E0,-1.477141160E-1,-4.593386675E0,6.441590088E0
1.230556654E1,5.755105634E0,5.533027214E-1,-5.452001762E0,7.946804890E0
1.231555254E1,6.746188806E0,7.835140336E-1,-5.954524339E0,9.032237694E0
1.232553854E1,7.511859477E0,4.749014997E-1,-6.049631640E0,9.656687176E0
1.233552446E1,7.954903591E0,-7.291004294E-1,-5.826825827E0,9.887566829E0
1.234551046E1,7.094648945E0,-2.610591754E0,-4.662801311E0,8.882057703E0
1.235549646E1,6.377349951E0,-4.160125537E0,-3.063280267E0,8.207370034E0
1.236548246E1,5.850189546E0,-4.302154405E0,-1.880858949E0,7.501391913E0
1.237546846E1,5.782312728E0,-3.658022205E0,-1.150725608E0,6.938330950E0
1.238545446E1,5.721563666E0,-3.314459109E0,-9.411102363E-1,6.678893505E0
1.239544046E1,5.964058224E0,-3.243674471E0,-9.435707447E-1,6.854322747E0
1.240542646E1,5.460300130E0,-3.762195615E0,-5.526177201E-1,6.653899586E0
1.241541246E1,4.280698632E0,-4.656946494E0,-1.295089562E-1,6.326792552E0
1.242539946E1,3.567492397E0,-5.391324036E0,8.451004902E-1,6.519783102E0
1.243538546E1,1.848068202E0,-6.374935636E0,1.729264913E0,6.858973508E0
1.244537146E1,-5.388364540E-1,-7.491868431E0,3.259594685E0,8.188003103E0
1.245535746E1,-2.457266943E0,-7.754325968E0,4.790845394E0,9.440335356E0
1.246534346E1,-2.694456030E0,-7.589687671E0,5.764407384E0,9.904132710E0
1.247532946E1,-2.366149196E0,-7.130466065E0,6.450549490E0,9.902110737E0
1.248531546E1,-1.506686410E0,-6.272397108E0,6.194253749E0,8.943257176E0
1.249530146E1,-1.897482875E-1,-5.591275422E0,4.646144933E0,7.272209292E0
1.250528746E1,3.359114295E-1,-5.163690176E0,3.524384676E0,6.260816246E0
1.251527346E1,7.212319775E-1,-5.053948463E0,3.053830581E0,5.948819366E0
1.252525946E1,2.203675246E-1,-5.663452867E0,3.134518649E0,6.476763651E0
1.253524546E1,-5.517213419E-1,-6.402690030E0,4.219802220E0,7.688014492E0
1.254523146E1,-1.395975375E0,-6.992467682E0,4.705722213E0,8.543253074E0
1.255521846E1,-2.231814679E0,-7.694639930E0,3.560145662E0,8.767161316E0
1.256520446E1,-3.187804033E0,-8.191481937E0,2.507457395E0,9.140558706E0
1.257519046E1,-2.724004349E0,-8.405130426E0,2.844265788E0,9.282039918E0
1.258517646E1,-1.353794438E0,-8.437158549E0,3.375089473E0,9.187471509E0
1.259516246E1,-1.144137843E-1,-8.241427099E0,3.045368491E0,8.786835629E0
1.260514846E1,9.045259622E-1,-7.749645272E0,1.750244722E0,7.996156930E0
1.261513446E1,1.395497365E0,-7.402063385E0,-9.373905301E-2,7.533043359E0
1.262512046E1,1.448842390E0,-6.621695738E0,-2.054302275E0,7.082807110E0
1.263510646E1,1.122128631E0,-5.903815531E0,-3.768279058E0,7.093245910E0
1.264509246E1,7.266846523E-1,-6.192248154E0,-4.157922306E0,7.494019328E0
1.265507846E1,2.888077951E-1,-7.553835468E0,-2.979158714E0,8.125221650E0
1.266506446E1,-2.165519240E-1,-9.293314882E0,-1.376797092E0,9.397242492E0
1.267505146E1,-3.197200508E-1,-1.096257976E1,1.345256480E-1,1.096806606E1
1.268503746E1,1.937176698E-1,-1.269179556E1,1.155714964E0,1.274577883E1
1.269502346E1,1.281701485E0,-1.378949569E1,1.405047330E0,1.392002543E1
1.270500946E1,3.185531512E0,-1.140632730E1,-4.528832245E-1,1.185145631E1
1.271499546E1,4.941951479E0,-6.272618133E0,-4.650924447E0,9.241196939E0
1.272498146E1,6.366251936E0,-4.510335163E0,-9.863788537E0,1.257643079E1
1.273496746E1,7.002361171E0,-3.720947016E0,-1.167517759E1,1.411340783E1
1.274495346E1,6.771708979E0,-3.670704231E0,-9.670843284E0,1.236346723E1
1.275493946E1,5.446810604E0,-4.760633415E0,-6.628208367E0,9.811448538E0
1.276492546E1,3.908033359E0,-7.060005947E0,-4.994882230E0,9.490271713E0
1.277491146E1,3.367790979E0,-8.972993883E0,-3.652005420E0,1.025640185E1
1.278489746E1,3.346210075E0,-9.675189520E0,-2.697576689E0,1.058694168E1
1.279488346E1,3.400733607E0,-1.030950658E1,-2.874294748E0,1.122998154E1
1.280487046E1,4.017618951E0,-9.723194575E0,-3.383766741E0,1.105131902E1
1.281485646E1,5.669999410E0,-7.785614419E0,-3.872955328E0,1.038096663E1
1.282484246E1,7.697634873E0,-5.217448892E0,-6.340463961E0,1.125508058E1
1.283482846E1,9.325119057E0,-2.494083644E0,-8.975278975E0,1.318081679E1
1.284481446E1,9.898977081E0,-1.324438053E0,-1.063922640E1,1.459236176E1
1.285480046E1,8.944547179E0,-2.123787078E0,-1.033068754E1,1.382890092E1
1.286478646E1,7.156301402E0,-4.274332768E0,-8.583974533E0,1.196524923E1
1.287477246E1,5.577464299E0,-6.826423715E0,-7.383348202E0,1.149878252E1
1.288475846E1,4.926149964E0,-8.875178736E0,-6.399331974E0,1.199946669E1
1.289474446E1,5.001658568E0,-9.954868276E0,-5.843214988E0,1.258010939E1
1.290473046E1,6.170077266E0,-9.552537155E0,-5.974724715E0,1.284593924E1
1.291471646E1,8.603256896E0,-8.472914858E0,-6.291554925E0,1.361579887E1
1.292470246E1,1.033147340E1,-6.960460024E0,-6.616891665E0,1.410569395E1
1.293468946E1,1.205381287E1,-5.518287553E0,-7.332021927E0,1.514940421E1
1.294467546E1,1.384953022E1,-4.353236558E0,-6.549998934E0,1.592679007E1
1.295466146E1,1.481776832E1,-3.493528627E0,-5.390880817E0,1.615031258E1
1.296464746E1,1.596590069E1,-4.331657116E0,-4.802129350E0,1.722595961E1
1.297463346E1,1.597409030E1,-7.062125562E0,-2.226506869E0,1.760688818E1
1.298461946E1,1.493675916E1,-9.493965595E0,2.514579889E0,1.787638859E1
1.299460546E1,1.352604003E1,-1.012859958E1,7.065803461E0,1.831578191E1
1.300459146E1,1.144107847E1,-9.589628967E0,1.058237041E1,1.829879296E1
1.301457746E1,9.950396326E0,-7.855950576E0,1.184305700E1,1.734890042E1
1.302456346E1,9.793161773E0,-5.456944998E0,1.104992547E1,1.574119179E1
1.303454946E1,9.780552837E0,-2.280326542E0,1.140882990E1,1.519935863E1
1.304453546E1,1.036252680E1,-2.096979348E0,1.194858053E1,1.595455611E1
1.305452246E1,8.804513966E0,-6.233471024E-1,1.316975398E1,1.585403569E1
1.306450846E1,6.597680638E0,-3.032366037E-2,1.211584481E1,1.379579664E1
1.307449446E1,4.085456008E0,-5.288407485E-1,7.943900886E0,8.948529746E0
1.308448046E1,2.263571200E0,-7.935099949E-1,3.857409920E0,4.542358856E0
1.309446646E1,6.372658145E-1,-5.824968459E-1,9.026808733E-1,1.249096895E0
1.310445246E1,-8.611457616E-1,-3.859726587E-1,-4.203054625E-1,1.033055467E0
1.311443846E1,-2.263022146E0,-5.754554826E-1,1.867197222E-1,2.342494931E0
1.312442446E1,-3.314325208E0,-1.224411928E0,3.461569208E-1,3.550177568E0
1.313441046E1,-3.889768996E0,-1.471538650E0,6.746920878E-1,4.213186236E0
1.314439646E1,-3.702234757E0,-1.308076228E0,8.344222319E-1,4.014208026E0
1.315438246E1,-3.105718773E0,-1.020100565E0,1.493227435E0,3.593858989E0
1.316436846E1,-2.641441664E0,-7.868326208E-1,1.788218295E0,3.285429090E0
1.317435546E1,-2.210815866E0,-6.351856676E-1,1.133896737E0,2.564544684E0
1.318434146E1,-1.661809679E0,-4.331570578E-1,1.897403938E-1,1.727784090E0
1.319432746E1,-9.933115464E-1,-2.262295045E-1,-5.927527159E-1,1.178644730E0
1.320431346E1,-7.324304187E-1,-3.577165738E-1,-1.175792037E0,1.430699962E0
1.321429946E1,-9.097530806E-1,-8.180026656E-1,-1.556290240E0,1.979600551E0
1.322428546E1,-1.110767491E0,-1.340834377E0,-1.480946528E0,2.285791737E0
1.323427146E1,-1.383386904E0,-1.954265186E0,-1.187342627E0,2.672581946E0
1.324425746E1,-1.878210452E0,-2.379405711E0,-6.937043095E-1,3.109738206E0
1.325424346E1,-1.932611192E0,-2.348829597E0,-4.798681247E-1,3.079327835E0
1.326422946E1,-1.454714749E0,-2.001928326E0,-4.964911741E-1,2.523968207E0
1.327421546E1,-9.166194659E-1,-1.482359215E0,-7.925625998E-1,1.914611073E0
1.328420146E1,-4.010885882E-1,-1.076866504E0,-1.527918380E0,1.911818009E0
1.329418746E1,1.099054348E-1,-7.034263287E-1,-2.302169840E0,2.409745583E0
1.330417446E1,6.447186756E-1,-2.236969292E-1,-2.709737728E0,2.794348053E0
1.331416046E1,1.153726400E0,1.103531854E-1,-2.832228125E0,3.060192573E0
1.332414646E1,1.392798582E0,6.722880051E-2,-2.852202213E0,3.174817328E0
1.333413279E1,1.401315052E0,-2.388646066E-1,-2.870047331E0,3.202797505E0
1.334411879E1,1.007377024E0,-7.614675455E-1,-2.770549355E0,3.044763541E0
1.335410479E1,4.656102741E-1,-1.348104366E0,-2.539042885E0,2.912201415E0
1.336409079E1,1.301672065E-1,-1.664929314E0,-2.203130286E0,2.764546288E0
1.337407679E1,1.707819664E-1,-1.581839649E0,-2.031230916E0,2.580170962E0
1.338406279E1,5.304576498E-1,-1.398048213E0,-2.097784510E0,2.576164586E0
1.339404879E1,9.776187891E-1,-1.106977910E0,-2.524010278E0,2.924340349E0
1.340403479E1,1.778712476E0,-6.203428030E-1,-3.236061396E0,3.744427410E0
1.341402079E1,2.567963213E0,-3.751748979E-2,-4.052002333E0,4.797349845E0
1.342400779E1,3.302158906E0,3.417709243E-1,-4.869864081E0,5.893779515E0
1.343399379E1,3.720150041E0,4.932719895E-1,-5.376021287E0,6.556251861E0
1.344397979E1,3.755342678E0,3.801131639E-1,-5.471228576E0,6.646911071E0
1.345396579E1,3.510163078E0,-2.733479762E-1,-5.686452305E0,6.688176416E0
1.346395179E1,3.148133891E0,-8.183929673E-1,-5.597291622E0,6.473807809E0
1.347393779E1,3.036642106E0,-1.027624762E0,-5.406758346E0,6.285717441E0
1.348392379E1,3.213332684E0,-1.079424076E0,-5.271449098E0,6.267283213E0
1.349390979E1,3.361342669E0,-7.662308335E-1,-5.371048815E0,6.382311463E0
1.350389579E1,3.950028647E0,-4.808335000E-1,-5.508662451E0,6.795534502E0
1.351388179E1,4.762070076E0,-7.520513356E-2,-5.702087760E0,7.429453011E0
1.352386779E1,5.765169861E0,3.672402263E-2,-5.946472138E0,8.282455136E0
1.353385379E1,6.659087512E0,-3.505247909E-1,-5.956344577E0,8.941160710E0
1.354384079E1,7.112266021E0,-1.273503104E0,-5.614742637E0,9.150490315E0
1.355382679E1,7.157997680E0,-2.274945204E0,-5.199268144E0,9.134806823E0
1.356381279E1,7.218667805E0,-3.557182294E0,-4.073979386E0,9.019978868E0
1.357379879E1,6.369974858E0,-5.139024282E0,-2.083834515E0,8.445621146E0
1.358378479E1,4.555005259E0,-5.975658515E0,-7.423674694E-1,7.550342844E0
1.359377079E1,3.173641492E0,-5.965703630E0,-1.124666615E-1,6.758274105E0
1.360375679E1,2.606160734E0,-5.923211914E0,3.740276742E-1,6.482006623E0
1.361374279E1,2.136387974E0,-5.698143228E0,7.356698493E-1,6.129779764E0
1.362372879E1,2.194332857E0,-4.952689306E0,8.422668564E-1,5.482120166E0
1.363371479E1,2.378716032E0,-4.447645410E0,1.332580447E0,5.216858279E0
1.364370079E1,2.330769741E0,-4.085013959E0,1.611537073E0,4.971607222E0
1.365368679E1,1.692480517E0,-4.383062913E0,1.251482344E0,4.862297693E0
1.366367279E1,1.102926228E0,-4.922840440E0,1.185931694E0,5.182396959E0
1.367365979E1,1.302902173E-1,-5.422296737E0,2.520204033E0,5.980778027E0
1.368364579E1,-9.950091393E-1,-5.936505559E0,4.719440950E0,7.648873402E0
1.369363179E1,-2.276959131E0,-6.116910288E0,6.590351738E0,9.275444485E0
1.370361779E1,-3.001737737E0,-6.051410948E0,8.007560107E0,1.047621223E1
1.371360379E1,-2.289364437E0,-5.840295473E0,8.219836839E0,1.034001733E1
1.372358979E1,-7.192086947E-1,-5.458062986E0,6.767524127E0,8.723938073E0
1.373357579E1,6.235421070E-1,-4.783560932E0,4.686951189E0,6.725977356E0
1.374356179E1,1.906796028E0,-4.182167786E0,2.109656989E0,5.057375909E0
1.375354779E1,2.086902841E0,-4.118957630E0,3.071369889E-1,4.627667724E0
1.376353379E1,1.033989164E0,-4.286500824E0,5.057935095E-1,4.438361182E0
1.377351979E1,1.575111258E-1,-4.693012120E0,2.275567347E0,5.217986131E0
1.378350579E1,-8.703653589E-1,-5.684412212E0,4.311605260E0,7.187490380E0
1.379349279E1,-1.873763937E0,-6.413168240E0,5.415139160E0,8.600200596E0
1.380347879E1,-1.819584222E0,-6.818330584E0,4.739172964E0,8.500604630E0
1.381346479E1,-1.661406513E0,-7.461253579E0,3.351593606E0,8.346481671E0
1.382345079E1,-1.404899395E0,-7.955247408E0,2.421430966E0,8.433447192E0
1.383343679E1,-7.811853799E-1,-8.378394032E0,2.742414308E0,8.850343123E0
1.384342279E1,1.113293196E0,-8.227492599E0,3.485247508E0,9.004332646E0
1.385340879E1,2.972149072E0,-7.469989904E0,3.390015076E0,8.725057105E0
1.386339479E1,3.296002958E0,-6.406707652E0,2.613881983E0,7.664327593E0
1.387338079E1,2.491479294E0,-5.415447893E0,2.019791826E-1,5.964506731E0
1.388336679E1,1.105398358E0,-5.664390176E0,-2.762329924E0,6.398256654E0
1.389335279E1,2.428293477E-1,-6.744707122E0,-3.703591311E0,7.698482243E0
1.390333979E1,1.524402011E-1,-7.948274018E0,-3.229303769E0,8.580600254E0
1.391332579E1,4.348739465E-1,-9.095856748E0,-1.419823244E0,9.216269493E0
1.392331179E1,1.533094190E0,-1.113734017E1,8.257168972E-1,1.127264531E1
1.393329779E1,2.369629167E0,-1.265182633E1,2.721321062E0,1.315634600E1
1.394328379E1,4.313732184E0,-1.198011457E1,2.082906854E0,1.290232271E1
1.395326979E1,5.170019202E0,-8.645724054E0,-1.426275061E0,1.017407998E1
1.396325579E1,5.448668849E0,-5.403909582E0,-6.736199423E0,1.021110247E1
1.397324179E1,6.909431958E0,-4.013615947E0,-1.109278790E1,1.367111211E1
1.398322779E1,7.417852621E0,-2.409024782E0,-1.267333473E1,1.488090558E1
1.399321379E1,6.350041700E0,-2.985656140E0,-1.156132997E1,1.352410894E1
1.400319979E1,4.996291993E0,-5.663842292E0,-8.628448455E0,1.146700335E1
1.401318579E1,3.456103815E0,-7.693879207E0,-5.728745216E0,1.019602631E1
1.402317279E1,2.210275583E0,-9.609386709E0,-4.350022051E0,1.077721313E1
1.403315879E1,1.833994392E0,-1.110768426E1,-3.846085618E0,1.189691387E1
1.404314479E1,2.624424512E0,-1.170567082E1,-3.854429594E0,1.260027622E1
1.405313079E1,4.029817412E0,-1.069553274E1,-4.628356533E0,1.233107997E1
1.406311679E1,5.747277966E0,-8.832781745E0,-6.788274726E0,1.253514703E1
1.407310279E1,7.914014012E0,-5.416317959E0,-8.917345932E0,1.309531124E1
1.408308879E1,1.022415828E1,-2.566199401E0,-1.023227656E1,1.469075477E1
1.409307479E1,1.053545937E1,-1.922174059E0,-1.086490787E1,1.525571631E1
1.410306079E1,9.330376289E0,-2.550237379E0,-1.030766237E1,1.413532935E1
1.411304679E1,7.688284006E0,-4.139726940E0,-9.008390003E0,1.254584156E1
1.412303279E1,6.319449652E0,-6.399943593E0,-7.996182010E0,1.203468523E1
1.413301879E1,5.175484010E0,-8.528808392E0,-7.291826413E0,1.235706032E1
1.414300579E1,4.503788036E0,-9.542285231E0,-6.984101486E0,1.265373414E1
1.415299179E1,5.682330603E0,-9.880026255E0,-6.903622749E0,1.332530701E1
1.416297779E1,7.170048206E0,-9.251921858E0,-6.971844553E0,1.362403266E1
1.417296379E1,8.710153939E0,-8.134820663E0,-7.649440368E0,1.416178050E1
1.418294979E1,1.038302012E1,-6.746360130E0,-8.812523482E0,1.519806079E1
1.419293579E1,1.202713905E1,-5.841584199E0,-9.471560819E0,1.638556206E1
1.420292179E1,1.347815718E1,-5.782775243E0,-8.765402525E0,1.708606134E1
1.421290779E1,1.528221500E1,-6.450127321E0,-5.579997312E0,1.750104591E1
1.422289379E1,1.581591142E1,-7.454221718E0,-4.091518986E-1,1.748930762E1
1.423287979E1,1.506320403E1,-8.309152474E0,4.201241988E0,1.770854496E1
1.424286579E1,1.361189236E1,-8.476402137E0,8.417375080E0,1.811036195E1
1.425285179E1,1.181440331E1,-7.982009529E0,1.203444923E1,1.865798944E1
1.426283879E1,1.039956423E1,-7.168915016E0,1.399770334E1,1.885417666E1
1.427282479E1,9.120705076E0,-4.757578830E0,1.415083958E1,1.749480147E1
1.428281079E1,9.962025268E0,-4.033403802E0,1.292949072E1,1.681315033E1
1.429279679E1,1.029167024E1,-2.921418629E0,1.266839734E1,1.658135864E1
1.430278279E1,9.420203555E0,-1.800528000E0,1.140298035E1,1.490000325E1
1.431276879E1,7.660186381E0,-1.367189532E0,8.357701905E0,1.141923131E1
1.432275479E1,5.556117284E0,-1.017323722E0,4.686523465E0,7.339542834E0
1.433274058E1,3.735923490E0,-4.168213990E-1,2.206703519E0,4.358945380E0
1.434272658E1,2.047706616E0,-8.644932926E-2,1.453893215E0,2.512843280E0
1.435271258E1,4.724725664E-1,-1.330837977E-1,1.594132251E0,1.667992583E0
1.436269858E1,-9.265971547E-1,-4.695042273E-1,1.884356461E0,2.151700671E0
1.437268458E1,-2.046659964E0,-1.164030655E0,1.946799461E0,3.055128887E0
1.438267158E1,-2.867228973E0,-1.716491378E0,1.747418763E0,3.771049849E0
1.439265758E1,-3.106773611E0,-1.647200410E0,1.686452769E0,3.899927487E0
1.440264358E1,-2.531691180E0,-1.173254346E0,1.673961362E0,3.253941093E0
1.441262958E1,-1.831282454E0,-5.139076906E-1,1.116859705E0,2.205690853E0
1.442261558E1,-1.359558331E0,1.517475253E-1,5.618764937E-2,1.369154198E0
1.443260158E1,-1.136368355E0,1.479328018E-1,-1.238040910E0,1.686998058E0
1.444258758E1,-1.141929057E0,-1.885537013E-1,-1.843238840E0,2.176484296E0
1.445257358E1,-1.468457460E0,-6.103788552E-1,-2.092564116E0,2.628260686E0
1.446255958E1,-1.841250202E0,-1.177651744E0,-2.076601802E0,3.014853393E0
1.447254558E1,-2.131525283E0,-1.697759822E0,-1.908002016E0,3.326598885E0
1.448253158E1,-2.100584157E0,-1.861942036E0,-1.606793811E0,3.234357478E0
1.449251758E1,-1.619385790E0,-1.733966951E0,-1.199208966E0,2.658411908E0
1.450250358E1,-8.626677918E-1,-1.312299672E0,-1.208949258E0,1.981889113E0
1.451249058E1,4.381318688E-3,-9.044999421E-1,-1.078967409E0,1.407945315E0
1.452247658E1,5.126745129E-1,-5.427619457E-1,-9.354627031E-1,1.196877669E0
1.453246258E1,7.861259848E-1,-4.319282654E-1,-1.433584081E0,1.691070492E0
1.454244858E1,9.875613946E-1,-4.710739124E-1,-2.348836468E0,2.591181370E0
1.455243458E1,1.089093617E0,-4.018460950E-1,-3.005658880E0,3.222047562E0
1.456242058E1,1.171618295E0,-1.981407961E-1,-3.180733872E0,3.395440644E0
1.457240658E1,1.160032037E0,-1.790563613E-1,-3.029666963E0,3.249094860E0
1.458239258E1,1.045242423E0,-2.940053120E-1,-2.790614076E0,2.994411088E0
1.459237858E1,8.514317822E-1,-6.171513927E-1,-2.614811690E0,2.818342083E0
1.460236458E1,5.530524606E-1,-1.003096277E0,-2.429124001E0,2.685649377E0
1.461235058E1,3.977662003E-1,-1.206354264E0,-2.131501894E0,2.481291777E0
1.462233758E1,6.610353309E-1,-1.216188696E0,-1.912211426E0,2.360642962E0
1.463232358E1,1.214735078E0,-9.868471572E-1,-1.978231754E0,2.522468928E0
1.464230958E1,1.701238623E0,-5.996208555E-1,-2.545426290E0,3.119768104E0
1.465229558E1,2.199903792E0,-2.715429407E-1,-3.282792928E0,3.961065724E0
1.466228158E1,2.688804111E0,-1.104714453E-2,-3.618130161E0,4.507843769E0
1.467226758E1,3.039937597E0,5.721003503E-2,-3.818606628E0,4.881214004E0
1.468225358E1,3.085685043E0,-9.446966261E-2,-3.864902542E0,4.946498596E0
1.469223958E1,3.205247739E0,-2.098407823E-1,-3.809286751E0,4.982801598E0
1.470222558E1,3.445656595E0,-4.916426629E-2,-3.916931652E0,5.217022145E0
1.471221158E1,3.684079737E0,3.143638551E-2,-4.169309174E0,5.563862933E0
1.472219758E1,3.836241830E0,-2.813937449E-1,-4.350443051E0,5.807089508E0
1.473218358E1,3.811339708E0,-6.533351326E-1,-4.224502797E0,5.727091849E0
1.474217058E1,3.794194502E0,-9.223269331E-1,-4.205454322E0,5.738679722E0
1.475215658E1,3.899722711E0,-8.752936846E-1,-4.225017352E0,5.815904735E0
1.476214258E1,3.999055796E0,-5.796385807E-1,-4.351509583E0,5.938355310E0
1.477212858E1,4.272000899E0,-3.486835027E-1,-4.823487475E0,6.452720611E0
1.478211458E1,5.222507318E0,-3.326223707E-1,-5.020100101E0,7.251663627E0
1.479210058E1,6.215840499E0,-5.796672320E-1,-4.362478667E0,7.616029631E0
1.480208658E1,6.651218330E0,-9.483792025E-1,-2.825663163E0,7.288518416E0
1.481207258E1,6.534127252E0,-1.648666892E0,-1.954843183E0,7.016718131E0
1.482205858E1,5.997144109E0,-3.075797986E0,-2.411412493E0,7.158294554E0
1.483204458E1,4.979684731E0,-4.244414905E0,-2.368312081E0,6.958535767E0
1.484203058E1,4.007012102E0,-4.841885739E0,-2.179560159E0,6.652103876E0
1.485201758E1,3.182121416E0,-5.327167216E0,-2.018088130E0,6.525127352E0
1.486200358E1,2.566883233E0,-5.200844554E0,-1.504526010E0,5.991767028E0
1.487198958E1,2.313873334E0,-4.403127049E0,-8.325862062E-1,5.043286369E0
1.488197558E1,2.436587680E0,-3.997557739E0,-5.745205494E-1,4.716725693E0
1.489196158E1,3.161714634E0,-3.712216539E0,-6.806469653E-1,4.923441007E0
1.490194758E1,3.458666358E0,-3.407339206E0,-8.266359334E-1,4.925003595E0
1.491193358E1,2.323100679E0,-4.543709900E0,-3.808355874E-1,5.117336433E0
1.492191958E1,5.579571050E-1,-5.640733511E0,1.221805531E0,5.798448019E0
1.493190558E1,-1.028585460E0,-5.843269951E0,2.377252620E0,6.391644686E0
1.494189158E1,-1.938730304E0,-6.207125224E0,3.145019079E0,7.223449574E0
1.495187758E1,-2.984904480E0,-6.057648758E0,3.981004564E0,7.839206629E0
1.496186358E1,-2.794657718E0,-5.760276911E0,3.592276405E0,7.341345355E0
1.497185058E1,-1.766793804E0,-5.252171413E0,3.287386793E0,6.443118564E0
1.498183658E1,-9.888366723E-1,-4.652226622E0,3.217196232E0,5.742069496E0
1.499182258E1,5.411492836E-1,-4.034793393E0,2.990336836E0,5.051189431E0
1.500180858E1,6.782106498E-1,-4.380593634E0,2.514007446E0,5.096057663E0
1.501179458E1,-7.667366177E-1,-5.178981814E0,3.284630123E0,6.180496155E0
1.502178058E1,-1.903077199E0,-5.740701018E0,3.828604197E0,7.157902004E0
1.503176658E1,-3.034812512E0,-6.736702868E0,3.812680182E0,8.314432193E0
1.504175258E1,-3.717483126E0,-7.649933873E0,3.880602901E0,9.348809974E0
1.505173858E1,-3.653444712E0,-8.314961683E0,3.629141053E0,9.780435104E0
1.506172458E1,-2.844180418E0,-9.040067879E0,3.447997236E0,1.008468514E1
1.507171058E1,-1.276687790E0,-9.299390139E0,4.708018414E0,1.050114404E1
1.508169758E1,-1.132421485E-1,-9.785892515E0,6.228035452E0,1.160021300E1
1.509168358E1,-2.413517198E-1,-1.039732007E1,5.742791398E0,1.188032694E1
1.510166958E1,-9.753642489E-1,-1.057073562E1,3.356817509E0,1.113373301E1
1.511165558E1,-1.590197367E0,-1.077656814E1,6.629912245E-1,1.091341861E1
1.512164158E1,-2.774283387E0,-1.224432218E1,-5.703840463E-1,1.256763350E1
1.513162758E1,-4.290348584E0,-1.448033486E1,-1.925406253E-1,1.510378299E1
1.514161358E1,-2.390625349E0,-1.642012410E1,1.187523891E0,1.663567786E1
1.515159958E1,-1.871739046E-1,-1.713538826E1,1.874501417E0,1.723862873E1
1.516158558E1,2.440652079E0,-1.580714996E1,-3.056396632E-1,1.599738066E1
1.517157158E1,4.004593109E0,-1.299130047E1,-4.015318072E0,1.417509905E1
1.518155758E1,6.475284966E0,-1.013592731E1,-7.536242366E0,1.419370589E1
1.519154358E1,8.377435089E0,-7.265560135E0,-9.915763267E0,1.487589137E1
1.520153058E1,8.344807041E0,-5.355961829E0,-1.019856151E1,1.422437305E1
1.521151658E1,8.211218628E0,-5.646364964E0,-1.047117976E1,1.445514283E1
1.522150258E1,7.979615094E0,-5.973323137E0,-9.391517115E0,1.369508817E1
1.523148858E1,7.536718914E0,-7.037434525E0,-8.382058482E0,1.328858612E1
1.524147458E1,6.599239506E0,-8.834109063E0,-7.276423092E0,1.321127466E1
1.525146058E1,6.411053302E0,-1.035201467E1,-4.970444961E0,1.315184912E1
1.526144658E1,6.698032892E0,-1.015821573E1,-3.495311151E0,1.265978639E1
1.527143258E1,7.191923225E0,-9.532885247E0,-4.311647360E0,1.269606095E1
1.528141858E1,8.060949279E0,-8.629437804E0,-6.144237835E0,1.331156485E1
1.529140458E1,9.087528559E0,-7.358803929E0,-8.044464224E0,1.419325809E1
1.530139058E1,9.793676328E0,-5.616480430E0,-9.615649661E0,1.482975613E1
1.531137758E1,1.077013620E1,-4.070514033E0,-1.122402164E1,1.607929041E1
1.532136358E1,1.036417220E1,-4.828706700E0,-1.132211686E1,1.609107840E1
1.533134917E1,9.254537902E0,-7.491812298E0,-1.026125419E1,1.571836699E1
1.534133517E1,8.117427535E0,-1.007431520E1,-8.827095913E0,1.566212242E1
1.535132117E1,7.400635495E0,-1.151254314E1,-7.135510458E0,1.543449269E1
1.536130717E1,8.117263813E0,-1.158399494E1,-5.800844893E0,1.528818865E1
1.537129317E1,9.514534931E0,-9.904018550E0,-5.803469709E0,1.490960157E1
1.538127917E1,1.127901704E1,-7.507037863E0,-6.973885816E0,1.523833738E1
1.539126517E1,1.383463152E1,-5.179713301E0,-8.465614609E0,1.702624709E1
1.540125117E1,1.580325571E1,-3.069340906E0,-8.679752510E0,1.828939169E1
1.541123717E1,1.593796153E1,-2.069641422E0,-7.130473081E0,1.758253905E1
1.542122417E1,1.613248904E1,-3.179261836E0,-5.369843704E0,1.729740240E1
1.543121017E1,1.615758762E1,-6.046433798E0,-2.297366352E0,1.740416305E1
1.544119617E1,1.500486987E1,-9.589395078E0,2.522294120E0,1.798512122E1
1.545118217E1,1.289887119E1,-1.104589908E1,7.786710187E0,1.868222738E1
1.546116817E1,1.059800236E1,-8.938228093E0,1.117062837E1,1.780428357E1
1.547115417E1,1.037352073E1,-6.718905113E0,1.273889605E1,1.774917155E1
1.548114017E1,1.113269281E1,-5.252731576E0,1.342454523E1,1.821390823E1
1.549112617E1,1.133345812E1,-2.189617955E0,1.464856043E1,1.864998720E1
1.550111217E1,1.113819270E1,-1.745817795E-2,1.485439294E1,1.856643830E1
1.551109817E1,1.051093498E1,1.606972444E0,1.375436562E1,1.738518588E1
1.552108417E1,8.737787295E0,2.815416210E0,1.050994212E1,1.395472603E1
1.553107017E1,6.484175658E0,2.498769017E0,4.984803384E0,8.551996570E0
1.554105717E1,4.365410169E0,1.928321090E0,1.845646139E0,5.116799570E0
1.555104317E1,2.110606284E0,9.088523170E-1,3.630179518E-1,2.326468021E0
1.556102917E1,-5.105917346E-1,1.771606940E-1,1.192519752E0,1.309272007E0
1.557101517E1,-2.478910704E0,-1.266929664E0,1.957347838E0,3.403133793E0
1.558100117E1,-4.126874760E0,-2.578817400E0,1.977792043E0,5.252909273E0
1.559098717E1,-4.930895564E0,-2.905421816E0,2.043674376E0,6.077154922E0
1.560097317E1,-4.479772351E0,-2.802213782E0,1.902824306E0,5.616182221E0
1.561095917E1,-3.651707797E0,-1.972062649E0,1.472693183E0,4.403728663E0
1.562094517E1,-2.763191804E0,-1.197670564E0,-9.278244853E-2,3.013013825E0
1.563093117E1,-1.589951491E0,-5.992486802E-1,-1.752787676E0,2.441169671E0
1.564091717E1,-9.092624992E-1,-1.247971237E-2,-2.417383377E0,2.582761396E0
1.565090417E1,-6.048751634E-1,5.056321263E-2,-2.349259806E0,2.426407270E0
1.566089017E1,-6.743739992E-1,-4.449865597E-1,-1.872498892E0,2.039373784E0
1.567087617E1,-1.261508126E0,-1.362053045E0,-1.366867935E0,2.305410853E0
1.568086217E1,-1.860782241E0,-2.125862839E0,-1.071682363E0,3.021639695E0
1.569084817E1,-2.069140754E0,-2.329697362E0,-1.028723454E0,3.281326744E0
1.570083417E1,-1.773817188E0,-2.148566408E0,-1.006102331E0,2.962263818E0
1.571082017E1,-1.425329567E0,-1.905312589E0,-1.064907779E0,2.606877253E0
1.572080617E1,-1.059066995E0,-1.644196257E0,-1.554371184E0,2.498214164E0
1.573079217E1,-7.007215530E-1,-1.482774952E0,-2.410238079E0,2.915283837E0
1.574077817E1,-2.096285284E-1,-1.429871684E0,-3.336308400E0,3.635853530E0
1.575076417E1,2.626844090E-1,-1.147417692E0,-3.812971666E0,3.990529211E0
1.576075017E1,6.515868151E-1,-7.765755813E-1,-4.070556133E0,4.194885248E0
1.577073717E1,9.326016605E-1,-6.836202013E-1,-4.385274330E0,4.535164097E0
1.578072317E1,9.127246356E-1,-9.015096760E-1,-4.572439610E0,4.748998836E0
1.579070917E1,8.294006431E-1,-1.174793625E0,-4.538195391E0,4.760594805E0
1.580069517E1,8.894018465E-1,-1.433384106E0,-4.300920058E0,4.619906816E0
1.581068117E1,1.378910276E0,-1.475877869E0,-4.046220022E0,4.522334076E0
1.582066717E1,2.366595631E0,-1.048481488E0,-3.867209269E0,4.653535843E0
1.583065317E1,3.407950825E0,-4.097067994E-1,-4.245108969E0,5.459206778E0
1.584063917E1,4.216172268E0,-1.806158137E-1,-5.264686793E0,6.747270389E0
1.585062517E1,4.726093912E0,-2.537796843E-1,-6.529006845E0,8.064012536E0
1.586061117E1,4.765246283E0,-2.739093089E-1,-6.417559499E0,7.997979018E0
1.587059717E1,4.577731925E0,-4.685832909E-1,-6.874267387E0,8.272288195E0
1.588058417E1,4.407895453E0,-4.028810522E-1,-7.246844367E0,8.491678795E0
1.589057017E1,4.621104816E0,-5.340273750E-1,-7.033532678E0,8.432696893E0
1.590055617E1,5.176205556E0,-7.186301127E-1,-6.097326794E0,8.030375286E0
1.591054217E1,5.721015782E0,-7.692430267E-1,-5.018640636E0,7.649085582E0
1.592052817E1,6.169117153E0,-6.677958816E-1,-4.233095280E0,7.511528036E0
1.593051417E1,6.592473693E0,-6.537187099E-2,-4.468414135E0,7.964402536E0
1.594050017E1,7.051873055E0,5.110139036E-1,-5.568323931E0,8.999793341E0
1.595048617E1,8.056433474E0,2.540258521E-1,-6.190845991E0,1.016352417E1
1.596047217E1,8.809238516E0,-8.407448262E-1,-5.980287756E0,1.068051388E1
1.597045817E1,8.977565821E0,-2.860812823E0,-4.392936814E0,1.039609696E1
1.598044417E1,8.563959514E0,-4.655264835E0,-1.935174319E0,9.937695552E0
1.599043117E1,7.671910048E0,-6.057977956E0,-4.903426807E-1,9.787631820E0
1.600041717E1,6.943630568E0,-6.761036056E0,1.035590132E-1,9.692076067E0
1.601040317E1,6.684538688E0,-6.928449442E0,3.240982997E-1,9.632834933E0
1.602038917E1,6.616474174E0,-6.447167460E0,4.445029950E-1,9.248852992E0
1.603037517E1,6.529181092E0,-6.159265180E0,9.340950394E-1,9.024371824E0
1.604036117E1,6.080531251E0,-5.900918235E0,1.237267324E0,8.562974177E0
1.605034717E1,5.332646057E0,-5.650855041E0,5.817593658E-1,7.791515939E0
1.606033317E1,4.376480117E0,-6.125737830E0,-2.767346835E-1,7.533579777E0
1.607031917E1,2.804459698E0,-6.852011715E0,-5.678196037E-1,7.425461457E0
1.608030517E1,5.935318574E-1,-7.385390049E0,-1.258779815E-1,7.410270677E0
1.609029117E1,-1.253105677E0,-7.784212257E0,1.521737727E0,8.029938979E0
1.610027817E1,-2.882700706E0,-8.109467136E0,3.338026020E0,9.231242511E0
1.611026417E1,-4.606984960E0,-8.097572145E0,4.536631261E0,1.036223954E1
1.612025017E1,-5.304163685E0,-7.719478902E0,5.380993175E0,1.080183292E1
1.613023617E1,-4.119226310E0,-7.142566878E0,5.610919728E0,9.973299714E0
1.614022217E1,-2.172304934E0,-6.681833181E0,4.866011643E0,8.546570815E0
1.615020817E1,-1.048102588E0,-6.695100514E0,4.715402571E0,8.255780480E0
1.616019417E1,-9.532657206E-2,-6.234867339E0,4.409016949E0,7.636889966E0
1.617018017E1,9.907036883E-1,-6.086773154E0,3.351202135E0,7.018607909E0
1.618016617E1,1.402279842E0,-6.407883527E0,3.105518798E0,7.257520724E0
1.619015217E1,9.691268778E-1,-6.406852663E0,3.900798014E0,7.563279255E0
1.620013817E1,1.009808296E-1,-7.157751512E0,4.561855565E0,8.488470417E0
1.621012517E1,-1.318212669E0,-7.970806848E0,4.508882130E0,9.252105950E0
1.622011117E1,-2.126770327E0,-8.489859504E0,4.121971285E0,9.674270706E0
1.623009717E1,-1.955976959E0,-8.818834966E0,3.493982663E0,9.685329673E0
1.624008317E1,-1.406628709E0,-8.913365148E0,2.533106791E0,9.372476332E0
1.625006917E1,-4.796105549E-1,-9.065856439E0,1.751318271E0,9.245912337E0
1.626005517E1,1.036032766E0,-8.417786724E0,6.274015617E-1,8.504477053E0
1.627004117E1,2.461892675E0,-7.084980574E0,-2.169200063E-2,7.500555701E0
1.628002717E1,2.090585710E0,-6.926801696E0,-2.098027754E-1,7.238449251E0
1.629001317E1,4.062990421E-1,-7.580598174E0,1.537011532E-1,7.593034416E0
1.629999917E1,-1.319505050E0,-8.854666704E0,-7.253237128E-2,8.952735725E0
1.630998517E1,-1.986151515E0,-1.001254053E1,-3.524596345E-1,1.021371595E1
1.631997217E1,-1.154354683E0,-1.080071012E1,-1.340033601E0,1.094456778E1
1.632995817E1,6.895532249E-1,-1.071659675E1,-2.068090010E0,1.093608366E1
1.633994467E1,2.731036795E0,-1.037711677E1,-2.174673349E0,1.094862177E1
1.634993067E1,5.056067494E0,-9.611389965E0,-1.840980353E0,1.101507350E1
1.635991667E1,6.226074881E0,-6.993569298E0,-1.890836345E0,9.552449007E0
1.636990267E1,5.828257810E0,-4.386102296E0,-3.800711224E0,8.225076793E0
1.637988867E1,4.132812023E0,-4.134134663E0,-6.927554233E0,9.064337388E0
1.638987467E1,2.823718087E0,-4.934090483E0,-8.504219681E0,1.022938831E1
1.639986067E1,2.343559940E0,-6.069829677E0,-7.225244168E0,9.723130092E0
1.640984667E1,2.062940952E0,-8.035668842E0,-5.454816027E0,9.928882968E0
1.641983267E1,2.214983761E0,-8.979082004E0,-3.825603698E0,1.000826210E1
1.642981867E1,4.008150555E0,-9.065634829E0,-2.487190069E0,1.021944813E1
1.643980567E1,4.816259147E0,-9.858852317E0,-1.970257029E0,1.114788024E1
1.644979167E1,4.624452347E0,-9.971214752E0,-1.640616738E0,1.111315916E1
1.645977767E1,5.371209614E0,-9.695251901E0,-1.774790164E0,1.122486892E1
1.646976367E1,6.427655302E0,-7.838617090E0,-4.102077888E0,1.093552530E1
1.647974967E1,7.447278149E0,-3.794793549E0,-8.470053231E0,1.189975679E1
1.648973567E1,8.242380779E0,-2.670596466E0,-1.274554433E1,1.541161337E1
1.649972167E1,7.902295607E0,-3.262289082E0,-1.324662499E1,1.576584534E1
1.650970767E1,6.942756409E0,-4.583977043E0,-1.116224697E1,1.392158287E1
1.651969367E1,6.488471607E0,-6.559367927E0,-9.245493429E0,1.306157418E1
