"Time (s)","Linear Acceleration x (m/s^2)","Linear Acceleration y (m/s^2)","Linear Acceleration z (m/s^2)","Absolute acceleration (m/s^2)"
-2.000416687E-3,4.894400167E-1,-3.016756164E-1,-8.979282564E-1,1.066224583E0
7.985583332E-3,4.381248522E-1,-4.571406918E-1,-6.805901742E-1,9.295880719E-1
1.797158335E-2,5.636581403E-1,-6.401198405E-1,-7.396678099E-1,1.128969609E0
2.795758331E-2,8.355758876E-1,-6.187796961E-1,-7.008835208E-1,1.253919091E0
3.794258332E-2,1.020549631E0,-5.161161840E-1,-5.545932019E-1,1.271011835E0
4.792858334E-2,1.185755108E0,-3.732422835E-1,-3.926311755E-1,1.303642673E0
5.791458330E-2,1.291524222E0,-1.757382492E-1,-2.183286005E-1,1.321584703E0
6.790058332E-2,1.385466759E0,-1.507373092E-1,1.503114492E-1,1.401725154E0
7.788658334E-2,9.166223896E-1,-2.787027832E-1,4.103751361E-1,1.042247379E0
8.787258330E-2,6.039787853E-1,-4.143813559E-1,1.134968532E0,1.350798227E0
9.785858332E-2,8.613621086E-1,-5.826429532E-1,1.775626316E0,2.057733294E0
1.078445833E-1,1.807974867E0,-7.487425424E-1,2.255624541E0,2.986173235E0
1.178305833E-1,1.355109769E0,-6.669653577E-1,1.252942247E0,1.962404023E0
1.278165833E-1,1.030422070E0,-5.660576914E-1,6.699634445E-1,1.353159994E0
1.378025833E-1,5.747707736E-1,-5.030039491E-1,2.334208488E-2,7.641461038E-1
1.477885833E-1,1.405121005E-1,-4.110186222E-1,-4.778753936E-1,6.457900975E-1
1.577745833E-1,-2.145290798E-1,-3.010177316E-1,-8.154760838E-1,8.953410769E-1
1.677605833E-1,-4.114141864E-1,-2.182610286E-1,-1.066250299E0,1.163524478E0
1.777465833E-1,-3.134633839E-1,-1.306901303E-1,-1.223864336E0,1.270111458E0
1.877325833E-1,-1.672952718E-1,3.158249281E-2,-1.211609157E0,1.223512121E0
1.977185833E-1,-1.128921926E-1,1.569079490E-1,-1.038212900E0,1.056054344E0
2.077045833E-1,-1.943263650E-2,5.227893189E-2,-7.458673203E-1,7.479497133E-1
2.176905833E-1,2.976057351E-2,6.467119183E-2,-3.439384872E-1,3.512288965E-1
2.276765833E-1,-3.035523534E-2,1.335266877E-1,2.629030949E-1,2.964268104E-1
2.376625833E-1,-1.457073516E-1,6.156825721E-2,7.235987842E-1,7.406864945E-1
2.476485833E-1,-5.084212482E-2,-8.954886518E-2,9.542077070E-1,9.597480238E-1
2.576345833E-1,2.398475236E-1,-6.319137119E-2,9.936267114E-1,1.024116217E0
2.676205833E-1,4.536533028E-1,9.799728781E-2,8.857297951E-1,9.999610280E-1
2.776065833E-1,4.039315045E-1,1.870008270E-1,6.452443403E-1,7.838815142E-1
2.875925833E-1,2.379495174E-1,2.341559169E-1,5.176119018E-1,6.159310409E-1
2.975785834E-1,3.943537652E-2,2.229637615E-1,7.164464700E-1,7.513744288E-1
3.075645833E-1,3.212869585E-2,6.587034613E-2,1.087747003E0,1.090213143E0
3.175495833E-1,2.015026528E-1,-8.577251405E-2,1.550531318E0,1.565920691E0
3.275355833E-1,3.653211701E-1,-1.322732274E-1,2.102251782E0,2.137853671E0
3.375215833E-1,5.082727289E-1,-1.124575252E-1,2.507385474E0,2.560853330E0
3.475075833E-1,5.498458475E-1,-9.532262519E-2,2.775487329E0,2.831032810E0
3.574935833E-1,5.653854078E-1,-1.122519225E-1,3.139861250E0,3.192332975E0
3.674795833E-1,5.406475925E-1,-2.830173706E-1,3.661682562E0,3.712185049E0
3.774655833E-1,5.753607577E-1,-5.113033408E-1,4.360206732E0,4.427626209E0
3.874515833E-1,4.561442167E-1,-6.032969999E-1,5.134154136E0,5.189563903E0
3.974375833E-1,-1.105123758E-4,-6.526124167E-1,5.618097185E0,5.655874730E0
4.074235833E-1,-5.374187601E-1,-7.232881509E-1,5.688674247E0,5.759598889E0
4.174095833E-1,-9.556993318E-1,-7.508892015E-1,5.427742249E0,5.562156212E0
4.273955833E-1,-1.309014414E0,-7.435513844E-1,5.006463810E0,5.227912325E0
4.373815833E-1,-1.434401522E0,-6.915197897E-1,4.494610831E0,4.768357565E0
4.473675833E-1,-1.433951286E0,-6.063264424E-1,3.956880414E0,4.252146594E0
4.573535833E-1,-1.416014952E0,-5.915587145E-1,3.609584455E0,3.922262102E0
4.673395833E-1,-1.621440502E0,-6.955982226E-1,3.470882653E0,3.893578377E0
4.773260833E-1,-2.027151899E0,-9.162177622E-1,3.315652526E0,3.992787433E0
4.873120833E-1,-2.421252480E0,-1.159207579E0,3.119963760E0,4.115871675E0
4.972980833E-1,-2.930071338E0,-1.404044240E0,2.888514007E0,4.347432742E0
5.072840833E-1,-3.413692206E0,-1.647133167E0,2.594093835E0,4.593001739E0
5.172700833E-1,-3.728036181E0,-1.876880795E0,2.038261608E0,4.644937639E0
5.272560833E-1,-3.755610480E0,-2.109548523E0,1.264940441E0,4.489418600E0
5.372420833E-1,-3.437752329E0,-2.345698852E0,4.250349829E-1,4.183431476E0
5.472280833E-1,-3.018025156E0,-2.435988048E0,-3.830493432E-1,3.897337606E0
5.572140833E-1,-2.661461946E0,-2.303536919E0,-1.176555684E0,3.711326623E0
5.672000833E-1,-2.453451342E0,-2.066685801E0,-1.804633768E0,3.680667973E0
5.771860833E-1,-2.357255874E0,-1.909341321E0,-2.066892792E0,3.670733625E0
5.871720833E-1,-2.073048449E0,-2.099655034E0,-2.071495720E0,3.605159588E0
5.971580833E-1,-1.386239761E0,-2.403070855E0,-1.863269939E0,3.341883462E0
6.071430834E-1,-9.584007454E-1,-2.422026943E0,-1.573437200E0,3.043098935E0
6.171290833E-1,-8.787464654E-1,-2.463674029E0,-1.355977788E0,2.946279151E0
6.271150833E-1,-1.121138113E0,-2.473461976E0,-1.218060682E0,2.976346189E0
6.371010834E-1,-1.692174270E0,-2.479264753E0,-1.189137138E0,3.228661426E0
6.470870833E-1,-2.500878108E0,-2.598775993E0,-1.042159771E0,3.754214294E0
6.570730833E-1,-3.276055766E0,-2.864791853E0,-1.086317651E0,4.485494375E0
6.670590834E-1,-3.670655115E0,-3.024126141E0,-1.416542079E0,4.962422730E0
6.770450833E-1,-3.613254168E0,-3.231966006E0,-2.180681948E0,5.315692213E0
6.870310833E-1,-3.195436111E0,-3.144589016E0,-2.978930088E0,5.382683019E0
6.970170834E-1,-2.584973348E0,-2.841578992E0,-3.792961324E0,5.398445516E0
7.070030833E-1,-2.250587457E0,-2.418684675E0,-4.336253028E0,5.451446577E0
7.169890833E-1,-2.307318313E0,-2.184813883E0,-4.505977818E0,5.513707065E0
7.269750834E-1,-2.588145463E0,-1.986477936E0,-4.200319297E0,5.318578168E0
7.369610833E-1,-2.996748893E0,-2.231277759E0,-3.930376155E0,5.422818555E0
7.469470833E-1,-2.844161122E0,-2.505973664E0,-3.945072547E0,5.471083430E0
7.569330834E-1,-2.234829211E0,-2.353417030E0,-4.064226815E0,5.201054982E0
7.669190833E-1,-1.268978528E0,-2.047835255E0,-4.198904856E0,4.840943888E0
7.769050833E-1,-1.730787528E-1,-1.573782624E0,-4.093744729E0,4.389247533E0
7.868910833E-1,5.960259873E-1,-1.241728457E0,-3.780451207E0,4.023549163E0
7.968770833E-1,1.033480164E0,-1.202974720E0,-3.185294700E0,3.558276514E0
8.068630833E-1,8.909104282E-1,-1.303345246E0,-2.343915451E0,2.826016607E0
8.168490833E-1,3.335269350E-1,-1.488539430E0,-1.470861250E0,2.119061742E0
8.268350833E-1,-2.215626955E-2,-1.455089555E0,-7.870428282E-1,1.654452456E0
8.368210833E-1,-5.070103151E-1,-1.962693217E0,-6.160638106E-1,2.118669097E0
8.468070833E-1,-4.764580286E-1,-2.206568156E0,-9.715318376E-1,2.457606436E0
8.567930833E-1,-3.783908665E-1,-1.905427341E0,-1.835748703E0,2.672789984E0
8.667790833E-1,-1.659773093E-1,-1.556155316E0,-2.721476598E0,3.139363424E0
8.767650833E-1,-8.496413648E-2,-1.386682833E0,-3.402162374E0,3.674890067E0
8.867500833E-1,1.736903715E-1,-1.508843009E0,-3.665533538E0,3.967733823E0
8.967360833E-1,4.480119091E-1,-1.688698100E0,-3.497747101E0,3.909814666E0
9.067220833E-1,1.274797677E0,-2.124630831E0,-3.616674204E0,4.384004743E0
9.167080833E-1,2.580225409E0,-2.327011151E0,-3.531984887E0,4.954539464E0
9.266940833E-1,3.395875155E0,-2.247288166E0,-3.391797599E0,5.299675757E0
9.366800833E-1,3.881601021E0,-2.444372663E0,-3.116734927E0,5.545793073E0
9.466660833E-1,4.577355364E0,-2.849013142E0,-2.475837699E0,5.932860215E0
9.566520833E-1,4.731819506E0,-2.998378512E0,-1.496142418E0,5.798174857E0
9.666380833E-1,4.014014727E0,-3.235604436E0,-7.793601716E-1,5.214293104E0
9.766240833E-1,3.136452908E0,-3.445413643E0,-4.608905478E-1,4.681947470E0
9.866100833E-1,2.462243215E0,-3.431756887E0,-4.926396132E-1,4.252327688E0
9.965960833E-1,2.002217617E0,-3.311888089E0,-9.444985516E-1,3.983661081E0
1.006582083E0,1.686101351E0,-3.099477163E0,-1.893974546E0,4.004601856E0
1.016568083E0,1.989989335E0,-3.141432104E0,-2.911106479E0,4.722625769E0
1.026554083E0,3.029262920E0,-3.338234765E0,-3.400592104E0,5.646615964E0
1.036540083E0,3.950319838E0,-3.408954500E0,-3.486421921E0,6.275439061E0
1.046526083E0,4.172584199E0,-3.467208847E0,-3.535955731E0,6.475722278E0
1.056512083E0,3.334403962E0,-3.601525238E0,-3.424445820E0,5.984652287E0
1.066498083E0,1.627991138E0,-3.702801937E0,-2.900514248E0,4.977356751E0
1.076484083E0,-3.892257571E-2,-4.102804697E0,-1.609060777E0,4.407221112E0
1.086470083E0,-5.527981067E-1,-4.623192565E0,1.964623529E-1,4.660267449E0
1.096456083E0,-3.955308098E-1,-4.947147315E0,2.333323805E0,5.484077968E0
1.106442083E0,-2.690122658E-1,-5.026181206E0,4.213012433E0,6.563866153E0
1.116428083E0,-3.254390663E-1,-4.981357620E0,5.622116561E0,7.518512416E0
1.126414083E0,-4.490468663E-1,-4.908744557E0,6.419998958E0,8.094059725E0
1.136400083E0,-7.437137908E-1,-4.391849524E0,7.181418117E0,8.450693381E0
1.146386083E0,-1.127777626E0,-3.978325954E0,8.154749143E0,9.143243044E0
1.156372083E0,-1.634053531E0,-3.317451422E0,8.957466018E0,9.690810716E0
1.166358083E0,-2.531396481E0,-2.538693221E0,9.439108188E0,1.009701415E1
1.176343083E0,-3.560676005E0,-1.993361132E0,9.828532165E0,1.064198979E1
1.186329083E0,-3.742111014E0,-1.607145521E0,9.559901138E0,1.039124734E1
1.196315083E0,-3.081528842E0,-1.196570849E0,8.877949147E0,9.473414530E0
1.206301083E0,-2.158779740E0,-5.680049604E-1,7.930530642E0,8.238705958E0
1.216287083E0,-1.148596637E0,-2.726230676E-1,6.502451130E0,6.608741807E0
1.226273083E0,-2.805499917E-1,-9.450766951E-2,4.793434541E0,4.802567510E0
1.236259083E0,1.343497199E-1,1.040570498E-1,3.270817831E0,3.275229305E0
1.246245083E0,1.880604887E-1,1.590180995E-1,2.117407034E0,2.131681508E0
1.256231083E0,-1.044751257E-1,1.428862162E-1,1.157677948E0,1.171131826E0
1.266217083E0,-4.215006334E-1,-4.430186793E-2,3.247379851E-1,5.339290200E-1
1.276203083E0,-8.779968524E-1,-6.835175827E-2,-2.882199307E-1,9.266181328E-1
1.286189083E0,-1.597752262E0,2.866845980E-2,-7.275148107E-1,1.755822306E0
1.296175083E0,-2.004973410E0,1.617202440E-1,-8.906060806E-1,2.199829767E0
1.306161083E0,-2.100329218E0,3.346644377E-1,-8.295025308E-1,2.282861704E0
1.316147083E0,-1.987071574E0,4.620544361E-1,-6.441900873E-1,2.139375753E0
1.326133083E0,-1.610311496E0,2.393302643E-1,-4.640550609E-1,1.692846476E0
1.336119083E0,-1.132071236E0,1.254288422E-1,-3.096686871E-1,1.180344176E0
1.346105083E0,-7.163996923E-1,1.267857617E-1,-2.065663415E-1,7.562888350E-1
1.356091083E0,-3.999793714E-1,2.076485880E-1,-7.921252280E-2,4.575762859E-1
1.366077083E0,-2.459999639E-1,2.694970731E-1,4.633728370E-2,3.678203345E-1
1.376063083E0,-2.505479282E-1,1.570858870E-1,1.690855430E-1,3.406466807E-1
1.386049083E0,-2.664506006E-1,-1.081661075E-1,3.009444952E-1,4.162492265E-1
1.396035083E0,-1.193176979E-1,-3.543971825E-1,2.459134251E-1,4.475572462E-1
1.406021083E0,2.803903627E-1,-3.868608508E-1,3.272072643E-2,4.789057520E-1
1.416007083E0,7.103875852E-1,-3.415901723E-1,-2.290254968E-1,8.208453235E-1
1.425993083E0,9.997931850E-1,-3.230184652E-1,-5.219441038E-1,1.173180715E0
1.435979083E0,1.088123564E0,-4.056127983E-1,-8.491326571E-1,1.438596851E0
1.445965083E0,1.089473101E0,-4.947831293E-1,-1.052809889E0,1.593791280E0
1.455950083E0,1.145729747E0,-5.520258357E-1,-1.199516822E0,1.748219032E0
1.465937083E0,1.273779092E0,-5.400826784E-1,-1.344124020E0,1.928956158E0
1.475921833E0,1.371846254E0,-4.941791119E-1,-1.427069406E0,2.040270136E0
1.485907833E0,1.579456909E0,-5.037458877E-1,-1.408230554E0,2.175214320E0
1.495893833E0,1.967843590E0,-5.592343562E-1,-1.349677121E0,2.450873271E0
1.505879833E0,2.260741732E0,-6.282138131E-1,-1.200902320E0,2.635862697E0
1.515865833E0,2.515948722E0,-6.753032680E-1,-9.714450064E-1,2.780240615E0
1.525851833E0,2.768543175E0,-8.375277612E-1,-7.752612734E-1,2.994547396E0
1.535837833E0,2.861726743E0,-8.543170908E-1,-5.934941429E-1,3.044925769E0
1.545823833E0,2.569523835E0,-8.066142630E-1,-4.012634200E-1,2.722882965E0
1.555809833E0,2.132539775E0,-8.327038814E-1,1.077735400E-1,2.291884984E0
1.565795833E0,2.003758943E0,-8.104658239E-1,7.567098123E-1,2.290090499E0
1.575781833E0,1.890808278E0,-8.175461443E-1,1.208641110E0,2.388378315E0
1.585767833E0,1.861043027E0,-8.189010903E-1,1.691883663E0,2.645099331E0
1.595753833E0,1.721428474E0,-7.500487373E-1,2.296532539E0,2.966471103E0
1.605739833E0,1.415095185E0,-8.445656893E-1,2.897606428E0,3.333452954E0
1.615725833E0,9.954071885E-1,-1.088579135E0,3.384169030E0,3.691671711E0
1.625711833E0,5.536775279E-1,-1.329107201E0,3.803882169E0,4.067260050E0
1.635697833E0,-4.189939320E-2,-1.460101789E0,4.256316912E0,4.499987383E0
1.645683833E0,-8.196153277E-1,-1.469199910E0,4.200921561E0,4.525269011E0
1.655669833E0,-1.496247522E0,-1.316539634E0,3.840020885E0,4.326406552E0
1.665655833E0,-1.940465757E0,-9.680702859E-1,3.531449282E0,4.144116488E0
1.675641833E0,-2.292847039E0,-6.573205948E-1,3.242371711E0,4.025194681E0
1.685627833E0,-2.430354840E0,-3.899987590E-1,3.072847481E0,3.937145580E0
1.695613833E0,-2.381167477E0,-2.869138089E-1,3.001158278E0,3.841774212E0
1.705599833E0,-2.250485131E0,-3.272797698E-1,2.954888676E0,3.728694471E0
1.715585833E0,-2.126004342E0,-3.635012242E-1,2.780288478E0,3.518811109E0
1.725571833E0,-2.079391508E0,-3.928191635E-1,2.586271430E0,3.341702538E0
1.735557833E0,-2.151506973E0,-5.645939872E-1,2.313281304E0,3.209208472E0
1.745543833E0,-2.149270413E0,-8.058138523E-1,1.979716946E0,3.031167838E0
1.755529833E0,-2.234150349E0,-9.776860321E-1,1.755043532E0,3.004575771E0
1.765515833E0,-2.203275004E0,-1.198794691E0,1.721726682E0,3.042346500E0
1.775500833E0,-2.242665357E0,-1.520506742E0,1.783352242E0,3.243737640E0
1.785486833E0,-2.169419333E0,-1.737172687E0,1.770305350E0,3.295167707E0
1.795472833E0,-2.088080763E0,-1.833476621E0,1.417203691E0,3.119324301E0
1.805458833E0,-2.190113214E0,-1.885945149E0,8.816414219E-1,3.021700944E0
1.815444833E0,-2.327808126E0,-2.036466513E0,2.610349095E-1,3.103872703E0
1.825430833E0,-2.305178232E0,-1.945286202E0,-1.041009039E-1,3.018082518E0
1.835416833E0,-2.362378035E0,-1.899072733E0,-3.097919172E-1,3.046847265E0
1.845402833E0,-2.310808224E0,-2.052617692E0,-5.772511625E-1,3.144247596E0
1.855388833E0,-2.548137352E0,-2.221601640E0,-9.830818427E-1,3.520648764E0
1.865374833E0,-2.615786421E0,-2.301658208E0,-1.048957744E0,3.638719755E0
1.875360833E0,-2.613393155E0,-2.474021847E0,-1.402939408E0,3.862492313E0
1.885346833E0,-2.647474821E0,-2.549241598E0,-1.816969639E0,4.099894428E0
1.895332833E0,-2.707875389E0,-2.601297605E0,-2.067605276E0,4.286528891E0
1.905318833E0,-2.764511520E0,-2.630044271E0,-2.224680784E0,4.416883676E0
1.915304833E0,-2.835403163E0,-2.716470796E0,-2.448163705E0,4.627335109E0
1.925290833E0,-2.826696074E0,-2.892394220E0,-2.787620301E0,4.911922430E0
1.935276833E0,-2.793711931E0,-3.032508125E0,-3.187462848E0,5.211607361E0
1.945262833E0,-2.749985867E0,-3.233544170E0,-3.542072504E0,5.528517684E0
1.955248833E0,-2.870043823E0,-3.379414074E0,-3.788937271E0,5.832121112E0
1.965234833E0,-2.909732968E0,-3.417422145E0,-4.268947190E0,6.194290127E0
1.975220833E0,-2.611441355E0,-3.153123904E0,-4.614600374E0,6.168983134E0
1.985206833E0,-1.900310004E0,-2.784923858E0,-4.686099542E0,5.772911563E0
1.995192833E0,-1.029392375E0,-2.450202921E0,-4.508678062E0,5.233671836E0
2.005178833E0,-5.140000767E-1,-2.127264124E0,-4.002155405E0,4.561435807E0
2.015164833E0,-4.257533133E-1,-2.156175098E0,-3.359306084E0,4.014385918E0
2.025150833E0,-7.321585232E-1,-2.206917235E0,-2.363656528E0,3.315631459E0
2.035136833E0,-1.051106595E0,-2.395655124E0,-1.548479822E0,3.040029326E0
2.045122833E0,-1.131378341E0,-2.445026674E0,-9.258843791E-1,2.848760129E0
2.055108833E0,-8.995233768E-1,-2.349935598E0,-6.969255406E-1,2.610947114E0
2.065093833E0,-4.414449012E-1,-2.096362028E0,-6.796002406E-1,2.247546182E0
2.075079833E0,6.522919893E-2,-1.910519535E0,-6.943925267E-1,2.033843829E0
2.085065833E0,6.043839973E-1,-1.742526982E0,-8.331890541E-1,2.023829118E0
2.095051833E0,1.020629153E0,-1.527115850E0,-1.062435868E0,2.121918156E0
2.105037833E0,1.405543174E0,-1.583975783E0,-1.265925989E0,2.467204796E0
2.115023833E0,1.708765159E0,-1.773827859E0,-1.548676873E0,2.909423259E0
2.125009833E0,1.876312446E0,-1.915695344E0,-1.845652571E0,3.255283468E0
2.134995833E0,2.116944081E0,-2.064932806E0,-2.321858877E0,3.759844196E0
2.144981833E0,2.533404415E0,-1.929035912E0,-2.774403547E0,4.223343761E0
2.154967833E0,2.973501533E0,-1.884326640E0,-3.121604781E0,4.704977647E0
2.164953833E0,3.151801264E0,-1.785316468E0,-3.415035312E0,4.978320227E0
2.174939833E0,3.099408458E0,-1.816208332E0,-3.764881241E0,5.203775192E0
2.184925833E0,3.237438415E0,-2.142061088E0,-3.890257823E0,5.495774662E0
2.194911833E0,3.488662282E0,-2.346940947E0,-3.796841244E0,5.665236073E0
2.204897833E0,3.547965328E0,-2.287171439E0,-3.814659465E0,5.689537590E0
2.214883833E0,3.401281491E0,-2.257436155E0,-3.680504165E0,5.496439273E0
2.224869833E0,3.024342488E0,-2.321012931E0,-3.350832591E0,5.075611053E0
2.234855833E0,2.461455595E0,-2.515635311E0,-3.185393518E0,4.746990260E0
2.244841833E0,1.798000102E0,-2.621184863E0,-3.129572489E0,4.460676901E0
2.254827833E0,1.203876214E0,-2.657150501E0,-3.082072341E0,4.243693749E0
2.264813833E0,8.237879008E-1,-2.759406609E0,-3.053189726E0,4.197013086E0
2.274799833E0,6.264624989E-1,-2.927049205E0,-3.094196250E0,4.305127494E0
2.284785833E0,6.617229635E-1,-3.027774511E0,-2.882769410E0,4.232688891E0
2.294771833E0,8.430842972E-1,-2.989281998E0,-2.466521915E0,3.966147798E0
2.304757833E0,8.511265576E-1,-2.962285696E0,-2.099685147E0,3.729374033E0
2.314743833E0,7.406931192E-1,-3.171135083E0,-1.760319767E0,3.701817080E0
2.324729833E0,6.797955376E-1,-3.443291396E0,-1.335549663E0,3.755272363E0
2.334715833E0,8.059942389E-1,-3.661308048E0,-8.113368398E-1,3.835762089E0
2.344701833E0,1.133233663E0,-3.835882811E0,-6.486228615E-2,4.000302812E0
2.354687833E0,1.402966890E0,-3.946719415E0,6.768548267E-1,4.242999257E0
2.364673833E0,1.672158666E0,-3.898484271E0,1.465906173E0,4.488114874E0
2.374658833E0,1.576077218E0,-3.851337294E0,2.517020516E0,4.863353846E0
2.384644833E0,1.319904853E0,-3.882500030E0,3.624420596E0,5.472876754E0
2.394630833E0,1.182596442E0,-3.718466920E0,4.943780488E0,6.298134335E0
2.404616833E0,1.026293936E0,-3.451708463E0,6.269997411E0,7.230521288E0
2.414602833E0,6.313496017E-1,-3.230961162E0,7.277459804E0,7.987435981E0
2.424588833E0,1.773068744E-1,-2.986809211E0,8.016385310E0,8.556570599E0
2.434574833E0,9.364140451E-2,-2.828246756E0,8.557322924E0,9.013075172E0
2.444560833E0,-3.140013278E-2,-2.809217577E0,8.771652029E0,9.210568315E0
2.454546833E0,-7.119546390E-1,-2.703963017E0,8.633088806E0,9.074608407E0
2.464532833E0,-1.482048728E0,-2.584007388E0,8.206179498E0,8.730117099E0
2.474518833E0,-2.094383769E0,-2.347950469E0,7.387554104E0,8.029649457E0
2.484504708E0,-2.456234617E0,-1.801936594E0,6.434580744E0,7.119262134E0
2.494490708E0,-2.449101598E0,-1.253699754E0,5.469214795E0,6.122268549E0
2.504476708E0,-2.189808574E0,-9.167272740E-1,4.437987564E0,5.033029317E0
2.514462708E0,-1.722706091E0,-7.290381566E-1,3.414771017E0,3.893568288E0
2.524448708E0,-1.118636674E0,-4.541633262E-1,2.422631838E0,2.706798359E0
2.534434708E0,-5.240391612E-1,6.983914375E-3,1.500298473E0,1.589201474E0
2.544420708E0,-1.481649363E-1,4.207107476E-1,7.341839987E-1,8.590556009E-1
2.554406708E0,6.207521081E-2,7.643413789E-1,1.792076580E-1,7.875191807E-1
2.564392708E0,1.165695065E-1,9.933131544E-1,-7.289109796E-2,1.002782421E0
2.574378708E0,-1.204058647E-2,1.027124021E0,-4.305246413E-2,1.028096418E0
2.584364708E0,-2.836665577E-1,8.529919656E-1,2.870792851E-2,8.993809840E-1
2.594350708E0,-6.444678301E-1,5.660791799E-1,1.152375108E-1,8.654848964E-1
2.604336708E0,-9.530335861E-1,3.366274942E-1,2.921537912E-1,1.052114501E0
2.614322708E0,-1.228967201E0,1.590028602E-1,4.033654940E-1,1.303206052E0
2.624308708E0,-1.338751599E0,-6.067995552E-2,3.381061819E-1,1.382119275E0
2.634294708E0,-1.244378707E0,-2.397499847E-1,1.541059998E-1,1.276599813E0
2.644280708E0,-1.029392960E0,-1.294178127E-1,-7.418654859E-3,1.037522951E0
2.654266708E0,-7.275181729E-1,1.446911786E-2,-1.699484459E-1,7.472446196E-1
2.664252708E0,-3.534513223E-1,-1.132956505E-2,-3.022960791E-1,4.652301750E-1
2.674238708E0,-2.547631860E-3,-5.653011348E-2,-3.182662868E-1,3.232577509E-1
2.684223708E0,2.280835104E-1,-2.793459769E-2,-2.107444695E-1,3.117942605E-1
2.694209708E0,4.133788508E-1,-1.356252534E-1,-9.354726434E-2,4.450026678E-1
2.704195708E0,5.519023132E-1,-3.496161701E-1,-1.144270867E-2,6.534206649E-1
2.714181708E0,5.511158627E-1,-3.873426613E-1,-3.980433583E-2,6.747943513E-1
2.724167708E0,4.134034091E-1,-3.584775158E-1,-1.520773083E-1,5.679225438E-1
2.734153708E0,1.700382006E-1,-3.778430555E-1,-3.026659155E-1,5.131130681E-1
2.744139708E0,-7.342348695E-3,-4.146207263E-1,-4.604772958E-1,6.196802375E-1
2.754125708E0,2.418642282E-2,-5.001218199E-1,-5.638347262E-1,7.540665861E-1
2.764111708E0,1.755714208E-1,-5.118394574E-1,-7.111459690E-1,8.936070407E-1
2.774097708E0,3.781809515E-1,-4.377265837E-1,-8.236776808E-1,1.006513942E0
2.784083708E0,6.540753901E-1,-3.227747825E-1,-8.439891538E-1,1.115489071E0
2.794069708E0,8.622988325E-1,-2.854979787E-1,-8.561729971E-1,1.248238989E0
2.804055708E0,1.047212934E0,-3.583131725E-1,-9.120931363E-1,1.434209590E0
2.814041708E0,1.250343452E0,-3.254215246E-1,-8.871804893E-1,1.567273791E0
2.824027708E0,1.536957591E0,-3.192948121E-1,-9.468773451E-1,1.833238806E0
2.834013708E0,1.795078833E0,-4.148989076E-1,-9.827453354E-1,2.088118175E0
2.843999708E0,1.981834223E0,-3.825007282E-1,-8.560095674E-1,2.192424702E0
2.853985708E0,2.060026699E0,-3.101074476E-1,-5.796315640E-1,2.162371240E0
2.863971708E0,2.109475433E0,-3.620271412E-1,-2.422352341E-1,2.153979610E0
2.873957708E0,2.209590874E0,-4.212928379E-1,1.354899269E-1,2.253472211E0
2.883943708E0,2.340919338E0,-3.563010360E-1,5.748257375E-1,2.436653115E0
2.893929708E0,2.494996979E0,-5.891012760E-1,1.119709053E0,2.797462886E0
2.903915708E0,2.834790375E0,-9.160362062E-1,1.938423910E0,3.554243387E0
2.913901708E0,3.490838615E0,-1.411010028E0,2.814585321E0,4.700935446E0
2.923887708E0,3.869752223E0,-2.036622926E0,3.636372889E0,5.687356416E0
2.933873708E0,3.722393618E0,-2.801518548E0,4.151937681E0,6.240457269E0
2.943859708E0,2.681156538E0,-3.128958532E0,4.308610316E0,5.961803815E0
2.953845708E0,1.102020641E0,-3.098805902E0,3.926866656E0,5.122238695E0
2.963831708E0,-5.444131994E-1,-2.838937220E0,3.270487463E0,4.364864089E0
2.973817708E0,-2.001501918E0,-2.229242781E0,2.643135602E0,3.995209521E0
2.983803708E0,-3.007391410E0,-1.512488163E0,2.189208650E0,4.015552023E0
2.993788708E0,-3.405605507E0,-9.138747829E-1,1.885180333E0,3.998402290E0
3.003774708E0,-3.475811271E0,-4.778879651E-1,1.666459969E0,3.884163968E0
3.013760708E0,-3.443543411E0,-2.539293730E-1,1.534254423E0,3.778413422E0
3.023746708E0,-3.184773129E0,-1.445843938E-1,1.623037376E0,3.577420139E0
3.033732708E0,-2.798268081E0,-2.150828111E-1,1.938967116E0,3.411181371E0
3.043718708E0,-2.415924497E0,-4.470134971E-1,2.305681093E0,3.369373464E0
3.053704708E0,-2.190944688E0,-6.701651734E-1,2.623326990E0,3.482987867E0
3.063690708E0,-2.108342827E0,-1.013627990E0,2.874711070E0,3.706280469E0
3.073676708E0,-2.163735255E0,-1.288991793E0,3.017550947E0,3.930504270E0
3.083662708E0,-2.512383090E0,-1.596787471E0,2.999708169E0,4.226115014E0
3.093648708E0,-2.828453455E0,-1.925434905E0,2.929418789E0,4.504324917E0
3.103634708E0,-3.021171835E0,-2.258725027E0,2.682924151E0,4.628973969E0
3.113620708E0,-3.087357639E0,-2.501883829E0,2.301127866E0,4.591991871E0
3.123606708E0,-2.863515406E0,-2.686903181E0,1.838432429E0,4.335781704E0
3.133592708E0,-2.547682438E0,-2.697670829E0,1.388903167E0,3.961964880E0
3.143578708E0,-2.228227412E0,-2.644232540E0,9.123387194E-1,3.576216586E0
3.153564708E0,-1.910370138E0,-2.692084399E0,3.494179130E-1,3.319476669E0
3.163550708E0,-1.674208699E0,-2.935504571E0,-3.892690265E-1,3.401719011E0
3.173536708E0,-1.438819678E0,-3.023061363E0,-1.033044546E0,3.503752717E0
3.183522708E0,-1.280388785E0,-3.018788218E0,-1.637769436E0,3.665346706E0
3.193508708E0,-1.249848778E0,-3.002109035E0,-2.260113741E0,3.960163475E0
3.203494708E0,-1.292038777E0,-2.777979997E0,-2.795407623E0,4.147389642E0
3.213480708E0,-1.466985716E0,-2.441963317E0,-3.232633758E0,4.308729853E0
3.223466708E0,-1.760057520E0,-2.238055120E0,-3.678088095E0,4.651346604E0
3.233452708E0,-1.892843694E0,-2.189333196E0,-4.065547116E0,4.990461947E0
3.243438708E0,-2.020231719E0,-2.138807990E0,-4.359691007E0,5.259538145E0
3.253424708E0,-2.216851947E0,-2.175824373E0,-4.551681994E0,5.510576488E0
3.263410708E0,-2.368402421E0,-2.238877823E0,-4.561996483E0,5.606577908E0
3.273396708E0,-2.395834633E0,-2.375442469E0,-4.497085372E0,5.621968281E0
3.283382708E0,-2.361172923E0,-2.450059957E0,-4.281203831E0,5.468696153E0
3.293368708E0,-2.292818388E0,-2.306865154E0,-3.932335849E0,5.103127299E0
3.303354708E0,-2.240382312E0,-2.153985900E0,-3.508159238E0,4.686805884E0
3.313339708E0,-2.095210565E0,-2.249991626E0,-3.241880253E0,4.467902998E0
3.323325708E0,-1.779610609E0,-2.161291411E0,-2.809380130E0,3.966208668E0
3.333311708E0,-1.313170030E0,-2.074275487E0,-2.143573763E0,3.259132216E0
3.343297708E0,-8.350841367E-1,-2.033440579E0,-1.472931165E0,2.646086227E0
3.353283708E0,-4.957585180E-1,-1.910105844E0,-8.209739283E-1,2.137353278E0
3.363269708E0,-4.372389990E-1,-1.675205942E0,-2.424281922E-1,1.748217469E0
3.373255708E0,-6.097447246E-1,-1.594274338E0,-4.494579256E-2,1.707489215E0
3.383241708E0,-8.987696707E-1,-1.608525903E0,-1.066453198E-1,1.845674870E0
3.393227708E0,-1.204323526E0,-1.723313470E0,-5.249317387E-1,2.166969728E0
3.403213708E0,-1.269764979E0,-1.881399085E0,-1.174839233E0,2.555819407E0
3.413199708E0,-9.547181690E-1,-1.979071122E0,-1.692290922E0,2.773455940E0
3.423185708E0,-3.380456632E-1,-1.986815466E0,-2.043648941E0,2.870228486E0
3.433171708E0,4.511448473E-1,-1.957962234E0,-2.305336399E0,3.058058812E0
3.443157708E0,1.339209436E0,-1.883103987E0,-2.369815401E0,3.309922593E0
3.453143708E0,2.092685153E0,-1.772107169E0,-2.353534998E0,3.613699207E0
3.463129708E0,2.543090327E0,-1.624045436E0,-2.323791089E0,3.808521632E0
3.473115708E0,2.736570016E0,-1.552015926E0,-2.197461995E0,3.837500241E0
3.483102208E0,2.659763914E0,-1.444439144E0,-2.174322516E0,3.726717983E0
3.493088208E0,2.393731974E0,-1.381875837E0,-2.155502083E0,3.505099546E0
3.503074208E0,2.172755755E0,-1.511889701E0,-2.014772466E0,3.326557699E0
3.513060208E0,2.018775178E0,-1.758711198E0,-1.842291299E0,3.250008542E0
3.523046208E0,2.046279311E0,-1.563064240E0,-1.493940795E0,2.976959512E0
3.533032208E0,2.047913607E0,-1.650253242E0,-1.329656255E0,2.947078496E0
3.543018208E0,1.997618197E0,-1.781788112E0,-1.289301111E0,2.971118425E0
3.553004208E0,1.943547825E0,-1.857337354E0,-1.477651622E0,3.067659451E0
3.562990208E0,1.888662935E0,-1.759828309E0,-1.616126260E0,3.045637445E0
3.572976208E0,1.842949403E0,-1.764703425E0,-1.588350085E0,3.005577594E0
3.582962208E0,1.890373830E0,-1.901447872E0,-1.335343403E0,2.995356278E0
3.592948208E0,1.923519942E0,-1.995562609E0,-1.325968562E0,3.072522045E0
3.602934208E0,2.206174346E0,-2.066889869E0,-1.590705928E0,3.416077330E0
3.612920208E0,2.436890273E0,-2.093621000E0,-1.912016860E0,3.738648361E0
3.622905208E0,2.610301732E0,-2.258597851E0,-2.068247154E0,4.024001202E0
3.632891208E0,2.807654616E0,-2.301322578E0,-1.933958391E0,4.113296137E0
3.642877208E0,2.740023381E0,-2.204023448E0,-1.704498446E0,3.907782292E0
3.652863208E0,2.540418150E0,-2.294215288E0,-1.783965615E0,3.860010554E0
3.662849208E0,2.198574720E0,-2.356113035E0,-1.716541371E0,3.651234547E0
3.672835208E0,1.886640968E0,-2.399503176E0,-1.291386813E0,3.314318864E0
3.682821208E0,1.432964861E0,-2.441492909E0,-8.419856054E-1,2.953509045E0
3.692807208E0,7.128708977E-1,-2.476740217E0,-3.168845898E-1,2.596698454E0
3.702793208E0,1.344690031E-1,-2.554335985E0,3.008456773E-1,2.575504292E0
3.712779208E0,-9.771048188E-2,-2.857541891E0,9.321373916E-1,3.007319922E0
3.722765208E0,1.911267686E-1,-3.485917306E0,1.833071702E0,3.943133370E0
3.732751208E0,9.849932975E-1,-3.986572867E0,3.218298140E0,5.217319037E0
3.742737208E0,1.438127367E0,-4.040356434E0,4.618052570E0,6.302309099E0
3.752723208E0,1.721388713E0,-4.120132628E0,5.624547833E0,7.181518663E0
3.762709208E0,1.609173043E0,-4.008492325E0,6.371665288E0,7.697763776E0
3.772695208E0,1.254573328E0,-3.859113214E0,6.841576774E0,7.954488154E0
3.782681208E0,7.230240029E-1,-3.805484599E0,7.047867712E0,8.042195970E0
3.792667208E0,7.811880112E-3,-3.644483854E0,6.965972779E0,7.861749191E0
3.802653208E0,-5.753981799E-1,-3.336511298E0,6.656907670E0,7.468454354E0
3.812639208E0,-1.071418068E0,-2.805469512E0,6.285477329E0,6.966047740E0
3.822625208E0,-1.552769047E0,-2.407096663E0,5.840011298E0,6.504685851E0
3.832611208E0,-1.861524253E0,-2.273613062E0,5.237609507E0,6.005592581E0
3.842597208E0,-2.121200854E0,-1.947956041E0,4.579646303E0,5.409915532E0
3.852583208E0,-2.301278724E0,-1.652405309E0,3.974711498E0,4.881050969E0
3.862569208E0,-2.321556283E0,-1.402434063E0,3.524251944E0,4.447111045E0
3.872555208E0,-2.235448431E0,-1.076210300E0,2.987103326E0,3.883071539E0
3.882541208E0,-2.144168133E0,-7.960842316E-1,2.351529111E0,3.280380503E0
3.892527208E0,-1.823209203E0,-7.111085469E-1,1.710966051E0,2.599456095E0
3.902513208E0,-1.477518305E0,-4.353673053E-1,1.114260617E0,1.901100144E0
3.912499208E0,-1.213425302E0,-1.452176473E-1,5.713435744E-1,1.349045073E0
3.922485208E0,-1.006634427E0,5.564451613E-2,9.718891025E-2,1.012844937E0
3.932471208E0,-8.483017677E-1,2.453041452E-1,-3.561818258E-1,9.521845965E-1
3.942456208E0,-6.986270803E-1,4.524119389E-1,-7.466017306E-1,1.118110238E0
3.952442208E0,-6.516967428E-1,6.098349910E-1,-9.774452730E-1,1.323633870E0
3.962428208E0,-7.428460640E-1,6.588725189E-1,-1.122173070E0,1.498401038E0
3.972414208E0,-9.093449450E-1,6.966692863E-1,-1.195636318E0,1.655838920E0
3.982400208E0,-1.031869256E0,5.003801572E-1,-1.278181023E0,1.717230674E0
3.992386208E0,-1.055500778E0,1.851223359E-1,-1.274402406E0,1.665068666E0
4.002372208E0,-1.102666758E0,6.916539833E-2,-1.180419085E0,1.616801487E0
4.012358208E0,-1.151792141E0,3.922772728E-2,-1.142382801E0,1.622714520E0
4.022344208E0,-9.648081243E-1,-1.664369005E-1,-1.062622102E0,1.444895045E0
4.032330208E0,-6.085980856E-1,-3.695503881E-1,-9.104816437E-1,1.155826952E0
4.042316208E0,-2.970139968E-1,-3.409205930E-1,-7.662331724E-1,8.896951385E-1
4.052302208E0,-1.142715508E-1,-2.006057630E-1,-6.376488072E-1,6.781568113E-1
4.062288208E0,-7.426840961E-2,-6.288008004E-2,-4.883185208E-1,4.979203539E-1
4.072274208E0,-5.467438996E-2,-6.810924500E-2,-2.012690565E-1,2.194023502E-1
4.082260208E0,-2.926414490E-2,-2.494309638E-1,1.475258356E-1,2.912663181E-1
4.092246208E0,-5.705537617E-2,-4.014474611E-1,4.213597155E-1,5.847729387E-1
4.102232208E0,-7.973731041E-2,-4.009036700E-1,6.431416816E-1,7.620452833E-1
4.112218208E0,-1.241001356E-1,-4.543074600E-1,6.448756734E-1,7.985366278E-1
4.122204208E0,-2.099179655E-1,-5.618275964E-1,4.385328417E-1,7.429850964E-1
4.132190208E0,-2.353001440E-1,-5.604688496E-1,2.573891705E-1,6.601065628E-1
4.142176208E0,-5.411948919E-2,-6.265263797E-1,1.209195426E-1,6.403793871E-1
4.152162208E0,3.932088804E-1,-7.452369174E-1,-7.189941019E-2,8.456718109E-1
4.162148208E0,7.764669693E-1,-5.701538853E-1,-2.792220891E-1,1.002966292E0
4.172134208E0,9.823684824E-1,-4.119963498E-1,-5.135056946E-1,1.182572165E0
4.182120208E0,1.128242480E0,-3.315102303E-1,-5.131016520E-1,1.283005624E0
4.192106208E0,1.178037368E0,-3.327035008E-1,-3.787770751E-1,1.281380401E0
4.202092208E0,1.133669865E0,-4.174550910E-1,-2.723717836E-1,1.238411282E0
4.212078208E0,1.054866355E0,-5.212895080E-1,-2.675235647E-1,1.206670890E0
4.222064208E0,1.067162465E0,-6.055000481E-1,-3.929486793E-1,1.288361246E0
4.232050208E0,1.208515980E0,-6.699141817E-1,-5.914657438E-1,1.503039457E0
4.242036208E0,1.360678073E0,-6.400770096E-1,-8.336615092E-1,1.719341417E0
4.252021208E0,1.557001262E0,-5.674904420E-1,-8.875997347E-1,1.879928621E0
4.262007208E0,1.734546118E0,-5.063409185E-1,-8.850462556E-1,2.012048269E0
4.271993208E0,1.878289390E0,-4.932604413E-1,-8.998391265E-1,2.140324122E0
4.281979208E0,1.974339847E0,-4.204137821E-1,-8.259244734E-1,2.181035721E0
4.291965208E0,2.070786746E0,-2.753593636E-1,-5.641346884E-1,2.163845760E0
4.301951208E0,1.983017115E0,-1.970007901E-1,-2.554303533E-1,2.009082093E0
4.311937208E0,1.878263662E0,-2.557527176E-1,2.384605640E-1,1.910535861E0
4.321923208E0,1.935043634E0,-4.388663522E-1,1.064233010E0,2.251574880E0
4.331909208E0,1.789696471E0,-7.190544744E-1,1.850083006E0,2.672612940E0
4.341895208E0,1.491782003E0,-8.477192388E-1,2.583891029E0,3.101698615E0
4.351881208E0,1.110432445E0,-1.032958446E0,3.190737873E0,3.532827698E0
4.361867208E0,4.258533007E-1,-1.485272590E0,3.494029441E0,3.820422416E0
4.371853208E0,-3.410026002E-1,-1.734448469E0,3.841077477E0,4.228294036E0
4.381839208E0,-9.338155425E-1,-1.815406678E0,4.332828898E0,4.789688835E0
4.391825208E0,-1.413239864E0,-2.040309303E0,4.786066464E0,5.391339459E0
4.401811208E0,-1.679441957E0,-2.143727106E0,5.181263983E0,5.853339872E0
4.411797208E0,-1.897085849E0,-2.011384297E0,5.440967481E0,6.103173653E0
4.421783208E0,-2.037454108E0,-1.932969481E0,5.330688409E0,6.025265900E0
4.431769208E0,-2.134596241E0,-1.800996069E0,4.922141697E0,5.659290312E0
4.441755208E0,-2.291917917E0,-1.698288411E0,4.233805132E0,5.105112845E0
4.451741208E0,-2.451997724E0,-1.676265165E0,3.418248357E0,4.528419103E0
4.461727208E0,-2.626035128E0,-1.611440301E0,2.556793862E0,4.003747643E0
4.471713208E0,-2.653851502E0,-1.504348839E0,1.794183624E0,3.539080121E0
4.481698458E0,-2.473149150E0,-1.387953872E0,1.066053833E0,3.029744782E0
4.491684458E0,-2.414947427E0,-1.214585974E0,2.491937131E-1,2.714643194E0
4.501670458E0,-2.424760809E0,-9.905554613E-1,-4.219146162E-1,2.653050517E0
4.511656458E0,-2.528953514E0,-8.406691048E-1,-8.502734488E-1,2.797372939E0
4.521642458E0,-2.702264401E0,-8.140087250E-1,-1.117279535E0,3.035318214E0
4.531628458E0,-3.014361291E0,-8.297394893E-1,-1.171228870E0,3.338655220E0
4.541614458E0,-3.344561745E0,-8.890597844E-1,-1.143117796E0,3.644617794E0
4.551600458E0,-3.615043124E0,-1.075387451E0,-1.290204506E0,3.986178950E0
4.561586458E0,-3.776033050E0,-1.327806196E0,-1.452306865E0,4.258014810E0
4.571571458E0,-3.741368417E0,-1.554749499E0,-1.530063139E0,4.330840201E0
4.581557458E0,-3.596184976E0,-1.723825248E0,-1.559091057E0,4.281925360E0
4.591543458E0,-3.422021857E0,-1.859982342E0,-1.623530881E0,4.219670654E0
4.601529458E0,-3.235539824E0,-1.948802717E0,-1.774666203E0,4.173246952E0
4.611515458E0,-2.996224397E0,-1.980796635E0,-2.048927515E0,4.135096118E0
4.621501458E0,-2.867715461E0,-2.009238661E0,-2.395658632E0,4.242642130E0
4.631487458E0,-2.830911916E0,-2.008587574E0,-2.621729531E0,4.349937017E0
4.641473458E0,-2.721731536E0,-2.094589006E0,-2.818212349E0,4.442684606E0
4.651459458E0,-2.353799000E0,-2.286903637E0,-2.977385253E0,4.431153453E0
4.661445458E0,-1.885572097E0,-2.261130280E0,-2.832915757E0,4.085768466E0
4.671431458E0,-1.468776133E0,-2.086464885E0,-2.583074757E0,3.630828314E0
4.681417458E0,-1.097921158E0,-1.843018692E0,-2.354455642E0,3.185217440E0
4.691403458E0,-8.773729545E-1,-1.689388656E0,-2.311743486E0,2.994657790E0
4.701389458E0,-6.748312515E-1,-1.587775742E0,-2.179115186E0,2.779383389E0
4.711375458E0,-5.897133332E-1,-1.608393025E0,-1.931650495E0,2.581852740E0
4.721361458E0,-7.115155131E-1,-1.746172137E0,-1.686460370E0,2.529727265E0
4.731347458E0,-8.997683752E-1,-1.849650604E0,-1.484082974E0,2.536393653E0
4.741333458E0,-9.845003772E-1,-1.976117985E0,-1.376300079E0,2.601631256E0
4.751319458E0,-9.536504674E-1,-1.990598761E0,-1.405173630E0,2.616571339E0
4.761305458E0,-6.539420736E-1,-1.984351303E0,-1.568769953E0,2.612724535E0
4.771291458E0,-8.902678192E-2,-1.833840464E0,-1.798565528E0,2.570162363E0
4.781277458E0,3.191386914E-1,-1.600821465E0,-1.916069419E0,2.517101684E0
4.791263458E0,6.859818918E-1,-1.270164198E0,-1.828164426E0,2.329393357E0
4.801249458E0,9.110295278E-1,-1.132307025E0,-1.647660294E0,2.197015804E0
4.811235458E0,7.090661144E-1,-1.150896932E0,-1.338085016E0,1.902054156E0
4.821221458E0,3.812975174E-1,-1.271040841E0,-1.266580878E0,1.834437172E0
4.831207458E0,3.045650911E-1,-1.405137669E0,-1.235266407E0,1.895535507E0
4.841193458E0,3.874195522E-1,-1.479179792E0,-1.233280692E0,1.964445986E0
4.851179458E0,6.068684793E-1,-1.494300399E0,-1.320662360E0,2.084555613E0
4.861165458E0,8.466990459E-1,-1.315951989E0,-1.486970037E0,2.158635866E0
4.871151458E0,9.916369039E-1,-1.062589065E0,-1.733732770E0,2.262359076E0
4.881137458E0,1.147647049E0,-9.920744218E-1,-2.066848938E0,2.563819405E0
4.891122458E0,1.261875331E0,-8.405273098E-1,-2.280269094E0,2.738328440E0
4.901108458E0,1.339062670E0,-7.434177755E-1,-2.239588260E0,2.713211086E0
4.911094458E0,1.264862673E0,-7.041198085E-1,-1.968438252E0,2.443442539E0
4.921080458E0,1.334746256E0,-8.577485293E-1,-1.398730875E0,2.115118949E0
4.931066458E0,1.648621868E0,-1.030900226E0,-6.599068183E-1,2.053335421E0
4.941052458E0,1.884716649E0,-1.049994747E0,-1.115540573E-1,2.160344909E0
4.951038458E0,2.004256541E0,-1.083844863E0,5.130463958E-2,2.279121791E0
4.961024458E0,2.046091615E0,-1.211924322E0,-6.989644647E-2,2.379104237E0
4.971010458E0,1.981637757E0,-1.274676640E0,-2.571804249E-1,2.370196301E0
4.980996458E0,1.899134713E0,-1.152457846E0,-3.216965559E-1,2.244629239E0
4.990982458E0,1.807717590E0,-1.026339252E0,-3.801081938E-1,2.113219672E0
5.000968458E0,1.762304020E0,-1.109660613E0,-3.720086306E-1,2.115526543E0
5.010954458E0,1.808807511E0,-1.249397957E0,-4.438847981E-1,2.242724589E0
5.020940458E0,1.807353308E0,-1.318678984E0,-6.060364205E-1,2.317912938E0
5.030926458E0,1.729917462E0,-1.314826254E0,-7.514351852E-1,2.299138391E0
5.040912458E0,1.577387579E0,-1.223017074E0,-8.071038942E-1,2.152983752E0
5.050898458E0,1.332428420E0,-1.147404390E0,-8.938654648E-1,1.972535880E0
5.060884458E0,1.086635447E0,-1.120803067E0,-9.705775720E-1,1.838204813E0
5.070870458E0,7.972216612E-1,-1.152349673E0,-1.068057089E0,1.761879136E0
5.080856458E0,5.519906062E-1,-1.147608750E0,-1.151870055E0,1.717120874E0
5.090842458E0,5.957283640E-1,-1.098627209E0,-1.044535348E0,1.628781177E0
5.100828458E0,7.735948169E-1,-1.121816682E0,-8.358350654E-1,1.598606226E0
5.110814458E0,1.094285359E0,-1.224740834E0,-7.645678854E-1,1.811633133E0
5.120800458E0,1.500512481E0,-1.358732704E0,-8.038168088E-1,2.178029781E0
5.130786458E0,1.904061577E0,-1.515702378E0,-7.686124045E-1,2.552169512E0
5.140772458E0,2.303197196E0,-1.694952866E0,-6.846932385E-1,2.940474005E0
5.150758458E0,2.578373011E0,-1.770897380E0,-6.266357227E-1,3.190103015E0
5.160744458E0,2.487253511E0,-1.726706463E0,-5.868131874E-1,3.084200862E0
5.170730458E0,2.089302539E0,-1.808167533E0,-6.024101235E-1,2.827994498E0
5.180716458E0,1.619196340E0,-1.911914096E0,-3.308951032E-1,2.527192883E0
5.190702458E0,1.252083583E0,-2.101697466E0,3.701825452E-1,2.474243451E0
5.200688458E0,6.376037836E-1,-2.356775817E0,1.219402472E0,2.729079190E0
5.210674458E0,-1.137148958E-1,-2.546346934E0,2.022586977E0,3.253870291E0
5.220659458E0,-6.392807651E-1,-2.758189803E0,2.928117784E0,4.073102582E0
5.230645458E0,-1.142301525E0,-2.913964306E0,3.914889804E0,5.012225347E0
5.240631458E0,-1.621654510E0,-3.011039780E0,4.813834891E0,5.905008913E0
5.250617458E0,-1.944789189E0,-2.983161133E0,5.461879463E0,6.520244060E0
5.260603458E0,-2.148516122E0,-2.799695971E0,5.862855200E0,6.843061461E0
5.270589458E0,-2.288830002E0,-2.361223356E0,6.174917006E0,6.995978741E0
5.280575458E0,-2.359646215E0,-1.825742071E0,6.383754407E0,7.046529975E0
5.290561458E0,-2.344700148E0,-1.347619632E0,6.369905861E0,6.920216625E0
5.300547458E0,-2.197943805E0,-9.550640318E-1,6.108156422E0,6.561454042E0
5.310533458E0,-1.906067757E0,-8.249279617E-1,5.597246014E0,5.970156060E0
5.320519458E0,-1.756731623E0,-8.130363330E-1,5.033679090E0,5.393056578E0
5.330505458E0,-1.576383027E0,-9.388271910E-1,4.326409825E0,4.699383142E0
5.340491458E0,-1.212138914E0,-1.169686375E0,3.617089064E0,3.990085245E0
5.350477458E0,-9.560507494E-1,-1.053054888E0,2.876740639E0,3.209142305E0
5.360463458E0,-7.645994604E-1,-7.639767319E-1,1.944460575E0,2.224679687E0
5.370449458E0,-5.432975507E-1,-3.644503735E-1,1.061657019E0,1.247041270E0
5.380435458E0,-4.461536640E-1,9.507609196E-2,2.929031119E-1,5.421114167E-1
5.390421458E0,-4.650237983E-1,4.463479377E-1,-3.120553744E-1,7.161369780E-1
5.400407458E0,-5.773903263E-1,6.719022350E-1,-6.906909469E-1,1.123337076E0
5.410393458E0,-7.697508574E-1,6.997469683E-1,-8.785956073E-1,1.361650632E0
5.420379458E0,-1.073603758E0,5.597959813E-1,-9.669996607E-1,1.549543453E0
5.430365458E0,-1.465690557E0,3.259230696E-1,-9.603475758E-1,1.782341753E0
5.440351458E0,-1.760053427E0,8.084572323E-2,-8.427027664E-1,1.953067343E0
5.450337458E0,-1.704330046E0,-2.835746102E-1,-6.850162241E-1,1.858602349E0
5.460323458E0,-1.323687417E0,-5.365514718E-1,-4.879940003E-1,1.509362118E0
5.470309458E0,-8.358477831E-1,-4.919024254E-1,-2.930586478E-1,1.013159851E0
5.480295833E0,-3.951659435E-1,-3.881507465E-1,-1.388395044E-1,5.710459990E-1
5.490281833E0,-5.779504895E-2,-2.957992378E-1,4.416460454E-2,3.046111768E-1
5.500267833E0,9.726024628E-2,-2.764243425E-1,1.824994943E-1,3.452188263E-1
5.510253833E0,5.491704941E-3,-3.153967658E-1,2.403500918E-1,3.965771618E-1
5.520239833E0,-1.106632340E-1,-4.865676451E-1,3.034362862E-1,5.840102777E-1
5.530225833E0,-7.395909190E-2,-7.089072163E-1,4.114665189E-1,8.229970139E-1
5.540211833E0,4.145734370E-2,-7.914704861E-1,4.033029288E-1,8.892679540E-1
5.550196833E0,3.180271357E-1,-8.329808202E-1,3.002805439E-1,9.408329878E-1
5.560182833E0,6.265045989E-1,-7.055172931E-1,1.364652425E-1,9.533548267E-1
5.570168833E0,6.722573072E-1,-5.332884331E-1,-8.407068193E-2,8.622031776E-1
5.580154833E0,5.226136100E-1,-4.460593046E-1,-3.008120558E-1,7.500545190E-1
5.590140833E0,2.843629611E-1,-3.872721293E-1,-4.076740149E-1,6.301111792E-1
5.600126833E0,3.678483367E-2,-3.906292351E-1,-3.906141785E-1,5.536458793E-1
5.610112833E0,-1.269272643E-1,-4.006800871E-1,-3.247046560E-1,5.311197382E-1
5.620098833E0,-8.473551035E-2,-4.431249525E-1,-1.736824778E-1,4.834308982E-1
5.630084833E0,1.944134885E-1,-4.900615027E-1,-1.758199275E-2,5.275092486E-1
5.640070833E0,6.005657655E-1,-5.519454364E-1,6.271080315E-2,8.180804657E-1
5.650056833E0,1.051859132E0,-6.191340373E-1,1.621693102E-1,1.231273111E0
5.660042833E0,1.456035050E0,-5.893546797E-1,2.040286499E-1,1.583983805E0
5.670028833E0,1.676769195E0,-4.572436394E-1,2.273683959E-1,1.752804344E0
5.680014833E0,1.800769928E0,-3.788119391E-1,3.027919230E-1,1.864927282E0
5.690000833E0,2.059174760E0,-3.818107568E-1,4.239260584E-1,2.136748335E0
5.699986833E0,2.348444704E0,-3.827656436E-1,5.900349301E-1,2.451498172E0
5.709972833E0,2.599240555E0,-3.174260054E-1,1.016644861E0,2.808981577E0
5.719958833E0,2.806072360E0,-4.103878904E-1,1.582462670E0,3.247560378E0
5.729944833E0,3.014126818E0,-7.324239868E-1,2.094710044E0,3.742888662E0
5.739930833E0,3.439739213E0,-1.035599268E0,2.698437399E0,4.492865020E0
5.749916833E0,3.848346736E0,-1.127587738E0,3.525533069E0,5.339532763E0
5.759902833E0,4.032750961E0,-1.126716502E0,4.498470578E0,6.145633240E0
5.769888833E0,3.702687916E0,-1.231781174E0,5.278456986E0,6.564243354E0
5.779874833E0,2.888291228E0,-1.482219174E0,5.462403958E0,6.354294367E0
5.789860833E0,1.781603925E0,-1.786418668E0,5.125079257E0,5.712428695E0
5.799846833E0,7.585920310E-1,-2.059051968E0,4.681891301E0,5.170615343E0
5.809832833E0,-7.074370801E-2,-2.215019576E0,4.286219865E0,4.825245810E0
5.819818833E0,-6.640022081E-1,-2.197777014E0,3.916810322E0,4.540101963E0
5.829804833E0,-1.071966537E0,-2.036071095E0,3.444465517E0,4.142347217E0
5.839790833E0,-1.351941163E0,-1.831037894E0,2.874855496E0,3.666774986E0
5.849776833E0,-1.588953372E0,-1.656466785E0,2.264404428E0,3.224311158E0
5.859762833E0,-1.701332763E0,-1.338996889E0,1.748436471E0,2.782889853E0
5.869748833E0,-1.578758751E0,-1.087352023E0,1.450719931E0,2.404038672E0
5.879734833E0,-1.451349676E0,-8.586700505E-1,1.378539562E0,2.178095834E0
5.889719833E0,-1.296845773E0,-7.757012764E-1,1.525949038E0,2.147566506E0
5.899705833E0,-1.129735274E0,-7.649997023E-1,2.137873020E0,2.536144196E0
5.909691833E0,-1.080491193E0,-1.001906369E0,2.962202373E0,3.308461952E0
5.919677833E0,-1.346241882E0,-1.442678548E0,3.602876237E0,4.107846854E0
5.929663833E0,-1.676569805E0,-1.893245690E0,3.841297040E0,4.599002990E0
5.939649833E0,-2.148608508E0,-2.318160220E0,3.851372670E0,4.982314399E0
5.949635833E0,-2.853207934E0,-2.713982221E0,3.610895109E0,5.342757575E0
5.959621833E0,-3.532695324E0,-3.068659413E0,2.939608147E0,5.526111010E0
5.969607833E0,-3.957659263E0,-3.449870391E0,1.854045079E0,5.567957948E0
5.979593833E0,-4.157855063E0,-3.721104014E0,4.672562653E-1,5.599348375E0
5.989579833E0,-4.158109417E0,-3.675032048E0,-9.922590476E-1,5.637402992E0
5.999565833E0,-3.895243744E0,-3.258730759E0,-2.162725148E0,5.519930258E0
6.009551833E0,-3.397144586E0,-2.675380658E0,-3.020212015E0,5.274460505E0
6.019537833E0,-3.007859187E0,-2.029706547E0,-3.657038411E0,5.151781779E0
6.029523833E0,-2.808657998E0,-1.425434232E0,-4.016583702E0,5.104249909E0
6.039509833E0,-2.832316418E0,-1.032306335E0,-3.929713081E0,4.952809057E0
6.049495833E0,-3.001540101E0,-9.726436856E-1,-3.536733411E0,4.739595124E0
6.059481833E0,-3.013087183E0,-1.297216487E0,-3.072361577E0,4.494537868E0
6.069467833E0,-2.853280440E0,-1.559717001E0,-2.471146186E0,4.084175543E0
6.079453833E0,-2.689806908E0,-1.730335245E0,-1.922913001E0,3.731851507E0
6.089439833E0,-2.247039367E0,-1.855591668E0,-1.576211119E0,3.313132634E0
6.099425833E0,-1.782746471E0,-1.932026179E0,-1.444141814E0,2.999409227E0
6.109411833E0,-1.624260614E0,-2.046971036E0,-1.580352702E0,3.053821807E0
6.119397833E0,-1.580477248E0,-2.090143953E0,-1.688031225E0,3.117059430E0
6.129383833E0,-1.449025408E0,-2.009286608E0,-1.769745771E0,3.044488036E0
6.139369833E0,-1.293100632E0,-1.912825969E0,-1.868267554E0,2.970090249E0
6.149355833E0,-1.048823258E0,-1.939872265E0,-2.047780876E0,3.009408770E0
6.159341833E0,-6.742055994E-1,-2.006002081E0,-2.278481307E0,3.109674357E0
6.169327833E0,-3.462674332E-1,-1.717899680E0,-2.332227744E0,2.917253279E0
6.179313833E0,-1.327557689E-1,-1.414468802E0,-2.235483515E0,2.648722830E0
6.189299833E0,7.784398198E-3,-1.242695002E0,-2.071728732E0,2.415866595E0
6.199284833E0,7.175586104E-2,-1.304320415E0,-1.947270454E0,2.344837494E0
6.209270833E0,3.304583162E-1,-1.357528762E0,-1.894724159E0,2.354159442E0
6.219256833E0,7.750203681E-1,-1.356052925E0,-1.904451879E0,2.463021126E0
6.229242833E0,1.401864105E0,-1.298611633E0,-1.788895403E0,2.617587038E0
6.239228833E0,2.318808677E0,-1.253988753E0,-1.598998303E0,3.083205644E0
6.249214833E0,3.091977232E0,-9.292392191E-1,-1.133345929E0,3.421736653E0
6.259200833E0,3.004060251E0,-5.973354347E-1,-4.495608366E-1,3.095689351E0
6.269186833E0,2.197432174E0,-7.528350817E-1,4.160036659E-1,2.359772843E0
6.279172833E0,1.078465133E0,-1.157721656E0,1.147050926E0,1.954260039E0
6.289158833E0,8.522258341E-2,-1.518518981E0,1.484921465E0,2.125595103E0
6.299144833E0,-4.312222141E-1,-1.633065205E0,1.552202452E0,2.293945730E0
6.309130833E0,-5.987437731E-1,-1.381332485E0,1.276943898E0,1.974122402E0
6.319116833E0,-6.520475757E-1,-9.314003500E-1,6.760153127E-1,1.322750678E0
6.329102833E0,-6.663118583E-1,-5.855691557E-1,7.555625886E-3,8.870850106E-1
6.339088833E0,-5.001649797E-1,-4.614101825E-1,-7.649921009E-1,1.023854129E0
6.349074833E0,-1.712813187E-1,-1.224480779E-1,-1.316673097E0,1.333401240E0
6.359060833E0,7.037299454E-2,1.142141384E-1,-1.673075217E0,1.678445087E0
6.369046833E0,2.143624341E-1,6.527517267E-2,-1.937713619E0,1.950627122E0
6.379032833E0,4.165597361E-1,6.755259007E-2,-1.858556206E0,1.905863725E0
6.389018833E0,4.494164103E-1,1.305416476E-1,-1.655984098E0,1.720842690E0
6.399004833E0,1.567925030E-1,4.256085947E-2,-1.533635203E0,1.542216668E0
6.408990833E0,-3.078325152E-2,-2.001870292E-1,-1.606903154E0,1.619617301E0
6.418976833E0,-5.496207297E-2,-3.646204544E-1,-1.740739489E0,1.779365862E0
6.428962833E0,1.095703894E-1,-4.831343794E-1,-1.800172927E0,1.867095891E0
6.438948833E0,2.704769933E-1,-5.514914002E-1,-2.163675613E0,2.249176011E0
6.448934833E0,5.171879786E-1,-6.893203595E-1,-2.914293504E0,3.039038103E0
6.458920833E0,9.014336622E-1,-6.729656973E-1,-3.534381076E0,3.709085476E0
6.468906833E0,1.221420200E0,-6.342578606E-1,-3.598396393E0,3.852610406E0
6.478892958E0,1.153580219E0,-7.564213984E-1,-3.221464114E0,3.504390346E0
6.488878958E0,7.691304678E-1,-1.033348601E0,-2.903931653E0,3.176820746E0
6.498864958E0,3.766735393E-1,-1.243177105E0,-2.754630603E0,3.045547903E0
6.508850958E0,1.671543539E-1,-1.373963677E0,-2.657730837E0,2.996539666E0
6.518836958E0,1.256525713E-1,-1.536990043E0,-2.415027095E0,2.865394010E0
6.528822958E0,3.909296358E-1,-1.721738377E0,-1.724129595E0,2.467758473E0
6.538808958E0,8.263659382E-1,-1.998280102E0,-1.077389976E0,2.415941471E0
6.548793958E0,1.528929364E0,-2.265236194E0,-3.727635062E-1,2.758237236E0
6.558779958E0,2.303757359E0,-2.299472227E0,3.560352069E-1,3.274390258E0
6.568765958E0,2.704599779E0,-2.262350009E0,8.844615340E-1,3.635293624E0
6.578751958E0,2.660928095E0,-2.144354951E0,1.099957159E0,3.590083876E0
6.588737958E0,2.372804205E0,-2.138021539E0,1.226401297E0,3.421314957E0
6.598723958E0,1.934524401E0,-2.092527863E0,1.415571733E0,3.181964935E0
6.608709958E0,1.422291353E0,-2.167916891E0,1.568100739E0,3.030134695E0
6.618695958E0,1.265240988E0,-2.481912079E0,1.924579457E0,3.385960486E0
6.628681958E0,1.200746784E0,-2.600346555E0,2.321673520E0,3.686972061E0
6.638667958E0,9.316403782E-1,-2.457545562E0,2.760766086E0,3.811733643E0
6.648653958E0,4.363432056E-1,-2.482554981E0,3.291456748E0,4.145740241E0
6.658639958E0,-1.354671228E-1,-2.545280987E0,3.907535176E0,4.665365773E0
6.668625958E0,-6.651973790E-1,-2.420015355E0,4.445334882E0,5.104896090E0
6.678611958E0,-1.237291882E0,-2.299036317E0,5.050001593E0,5.684978036E0
6.688597958E0,-1.945152301E0,-2.136147361E0,5.835541686E0,6.511550491E0
6.698583958E0,-2.456079665E0,-2.061733063E0,6.384239141E0,7.144339014E0
6.708569958E0,-2.645663354E0,-1.933354958E0,6.682667579E0,7.442811428E0
6.718555958E0,-2.673011951E0,-1.786322335E0,6.770748281E0,7.495263349E0
6.728541958E0,-2.477047781E0,-1.677912180E0,6.572210752E0,7.221157051E0
6.738527958E0,-1.883443125E0,-1.363099405E0,6.068355010E0,6.498486787E0
6.748513958E0,-1.047331633E0,-8.507869074E-1,5.519880919E0,5.682413859E0
6.758499958E0,-2.095437437E-1,-2.725035652E-1,4.889835539E0,4.901903545E0
6.768485958E0,3.940953183E-1,2.911335251E-1,4.179553203E0,4.208174762E0
6.778471958E0,7.830871868E-1,6.484143352E-1,3.431560420E0,3.579004556E0
6.788457958E0,9.500053132E-1,7.406971391E-1,2.829267972E0,3.075044651E0
6.798443958E0,8.148685580E-1,5.898576498E-1,2.243985074E0,2.459148598E0
6.808429958E0,3.340058219E-1,3.536489582E-1,1.600445489E0,1.672738246E0
6.818415958E0,-1.917378026E-1,7.403072029E-2,1.020721247E0,1.041208815E0
6.828401958E0,-6.124935007E-1,-2.903656030E-2,4.976585707E-1,7.897185975E-1
6.838387958E0,-9.759868312E-1,5.940809475E-2,1.528754532E-3,9.777944331E-1
6.848373958E0,-1.233531538E0,1.265599313E-1,-4.320507646E-1,1.313120457E0
6.858359958E0,-1.375929950E0,1.362492244E-1,-7.462134755E-1,1.571172056E0
6.868344958E0,-1.505410693E0,1.667357115E-1,-9.617313194E-1,1.794154197E0
6.878330958E0,-1.646032137E0,1.568207341E-1,-1.083665646E0,1.976953659E0
6.888316958E0,-1.649362126E0,7.792244431E-2,-1.043518664E0,1.953304516E0
6.898302958E0,-1.522055962E0,-7.494682367E-3,-9.306486905E-1,1.784045265E0
6.908288958E0,-1.284452600E0,-7.463214297E-2,-8.701247460E-1,1.553224231E0
6.918274958E0,-8.579490888E-1,-1.510567956E-1,-8.447215176E-1,1.213445193E0
6.928260958E0,-5.035721523E-1,-1.293470797E-1,-6.717363203E-1,8.494382046E-1
6.938246958E0,-2.484674889E-1,-1.839962536E-1,-4.522686821E-1,5.478482228E-1
6.948232958E0,-8.887183070E-3,-3.573181957E-1,-2.973975742E-1,4.649737542E-1
6.958218958E0,1.839118892E-1,-4.472404056E-1,-8.588361114E-2,4.911451496E-1
6.968204958E0,3.557130253E-1,-4.770453083E-1,7.289255977E-2,5.995142265E-1
6.978190958E0,5.553936857E-1,-5.473547509E-1,4.321033895E-2,7.809779144E-1
6.988176958E0,7.127709103E-1,-6.615462314E-1,-1.462526044E-1,9.834000260E-1
6.998162958E0,8.659866714E-1,-7.066201510E-1,-3.773360288E-1,1.179672595E0
7.008148958E0,1.090998055E0,-6.879320844E-1,-5.708151323E-1,1.410445753E0
7.018134958E0,1.357693654E0,-6.047669169E-1,-7.470010954E-1,1.663455956E0
7.028120958E0,1.751170921E0,-6.333190171E-1,-9.073276556E-1,2.071457469E0
7.038106958E0,2.216830897E0,-8.053944607E-1,-9.690637279E-1,2.549918424E0
7.048092958E0,2.688692429E0,-9.977824006E-1,-9.109564376E-1,3.009066023E0
7.058078958E0,3.138656723E0,-1.237229609E0,-6.215116614E-1,3.430478083E0
7.068064958E0,3.326687976E0,-1.299928864E0,-1.522802067E-1,3.574892614E0
7.078050958E0,3.217564899E0,-1.275006423E0,3.400898498E-1,3.477646670E0
7.088036958E0,2.835121327E0,-1.342761911E0,7.549690962E-1,3.226592758E0
7.098022958E0,2.268122672E0,-1.426971757E0,1.251134580E0,2.957358042E0
7.108008958E0,1.803978295E0,-1.658594880E0,1.671796138E0,2.966509227E0
7.117994958E0,1.488668361E0,-1.856725151E0,1.987563325E0,3.100640215E0
7.127980958E0,1.138769222E0,-1.680241564E0,2.131020083E0,2.943000790E0
7.137966958E0,6.151206547E-1,-1.303277272E0,2.290169599E0,2.705879129E0
7.147952958E0,4.188775724E-1,-1.216647264E0,2.431641812E0,2.751103577E0
7.157938958E0,1.154942036E-1,-1.096962069E0,2.461593005E0,2.697425590E0
7.167924958E0,-3.566269451E-1,-7.783355932E-1,2.571068670E0,2.709867742E0
7.177910958E0,-8.027946424E-1,-5.093465701E-1,2.728883851E0,2.889761277E0
7.187896958E0,-8.887077820E-1,-4.040656981E-1,2.984191412E0,3.139819899E0
7.197881958E0,-9.532166040E-1,-4.477807979E-1,3.151380265E0,3.322698769E0
7.207867958E0,-1.181463836E0,-6.539151764E-1,3.324795232E0,3.588554750E0
7.217853958E0,-1.605282306E0,-7.711746544E-1,3.397239311E0,3.835736769E0
7.227839958E0,-2.031716235E0,-8.293801779E-1,3.262429415E0,3.931817395E0
7.237825958E0,-2.408120803E0,-8.580166242E-1,3.070343703E0,3.995278311E0
7.247811958E0,-2.687230040E0,-7.879368675E-1,2.965350514E0,4.078646034E0
7.257797958E0,-2.815227930E0,-7.187803861E-1,2.898682315E0,4.104206709E0
7.267783958E0,-2.826970893E0,-6.491105193E-1,2.890039546E0,4.094561939E0
7.277769958E0,-2.741903261E0,-5.083870420E-1,2.917115078E0,4.035598005E0
7.287755958E0,-2.519100371E0,-3.232282341E-1,2.994964322E0,3.926850451E0
7.297741958E0,-2.307409530E0,-3.002799591E-1,3.033609155E0,3.823230479E0
7.307727958E0,-2.181714858E0,-5.826525280E-1,2.884326231E0,3.663154583E0
7.317713958E0,-2.293159280E0,-9.539992538E-1,2.654779163E0,3.635456844E0
7.327699958E0,-2.542776917E0,-1.356009948E0,2.331105371E0,3.706552263E0
7.337685958E0,-2.764409779E0,-1.784872811E0,1.984260818E0,3.842528252E0
7.347671958E0,-2.937464558E0,-2.147683186E0,1.735575812E0,4.031558569E0
7.357657958E0,-3.069198818E0,-2.340375254E0,1.598693079E0,4.177697605E0
7.367643958E0,-3.113841140E0,-2.503681848E0,1.589228191E0,4.300008801E0
7.377629958E0,-3.193884845E0,-2.719013166E0,1.678645567E0,4.517940232E0
7.387615958E0,-3.323213561E0,-3.034041265E0,1.777518475E0,4.838256576E0
7.397601958E0,-3.525621362E0,-3.232926704E0,1.732844578E0,5.087688217E0
7.407587958E0,-3.795039425E0,-3.368955744E0,1.648080416E0,5.335574580E0
7.417573958E0,-3.964103479E0,-3.406525859E0,1.520259697E0,5.443319242E0
7.427559958E0,-3.958604173E0,-3.407667820E0,1.246640410E0,5.369996209E0
7.437545958E0,-3.739714240E0,-3.345407837E0,8.745253605E-1,5.093330030E0
7.447531958E0,-3.368630054E0,-3.188260993E0,5.052441636E-1,4.665613386E0
7.457517958E0,-2.901504766E0,-2.993011352E0,-9.967982411E-2,4.169746147E0
7.467503958E0,-2.111992659E0,-2.572768455E0,-7.862233409E-1,3.420204330E0
7.477489958E0,-9.831332982E-1,-1.737895403E0,-1.361683501E0,2.416818874E0
7.487476000E0,1.528427088E-1,-1.047435713E0,-1.963889411E0,2.230996209E0
7.497462000E0,7.008741653E-1,-7.788041013E-1,-2.356724069E0,2.579129458E0
7.507448000E0,1.178681731E-1,-8.649230629E-1,-2.217973735E0,2.383567138E0
7.517433000E0,-1.360927164E0,-1.506798822E0,-1.765239615E0,2.690471396E0
7.527419000E0,-3.036093637E0,-2.294566705E0,-1.170069660E0,3.981452492E0
7.537405000E0,-4.384834034E0,-3.240815767E0,-8.511432222E-1,5.518523456E0
7.547391000E0,-4.836036184E0,-4.162333446E0,-1.033266448E0,6.463737714E0
7.557377000E0,-4.445759098E0,-4.302777426E0,-1.528176974E0,6.372910826E0
7.567363000E0,-3.548292187E0,-3.752671962E0,-2.298853299E0,5.653109833E0
7.577349000E0,-2.539376176E0,-2.829156875E0,-3.054338704E0,4.876632538E0
7.587335000E0,-2.012335054E0,-1.853960002E0,-3.659281695E0,4.569135869E0
7.597321000E0,-1.914981837E0,-1.292509771E0,-3.900022674E0,4.532980675E0
7.607307000E0,-2.160226926E0,-1.163123167E0,-3.695867724E0,4.436087703E0
7.617293000E0,-2.614345667E0,-1.396832284E0,-3.328731578E0,4.457173725E0
7.627279000E0,-3.101875398E0,-1.611327742E0,-2.585597831E0,4.347795329E0
7.637265000E0,-3.327070969E0,-1.945474044E0,-2.254517517E0,4.465100192E0
7.647251000E0,-3.104549915E0,-1.914087213E0,-2.219512576E0,4.269449157E0
7.657237000E0,-2.535600629E0,-1.615284992E0,-2.120624903E0,3.679057778E0
7.667223000E0,-1.822551391E0,-1.549659936E0,-2.043617658E0,3.146349094E0
7.677209000E0,-1.215395229E0,-1.412851608E0,-1.825549697E0,2.608824817E0
7.687195000E0,-7.307750720E-1,-1.289125987E0,-1.467940566E0,2.085839764E0
7.697181000E0,-3.184709394E-1,-1.329766475E0,-1.182331417E0,1.807653229E0
7.707167000E0,-2.007933855E-2,-1.350329232E0,-1.019774290E0,1.692256428E0
7.717153000E0,9.974472821E-2,-1.289931149E0,-8.513684861E-1,1.548773605E0
7.727139000E0,1.219267255E-1,-1.325768149E0,-9.979470728E-1,1.663858669E0
7.737125000E0,2.067271399E-1,-1.365469720E0,-1.318455328E0,1.909337089E0
7.747111000E0,6.143312806E-1,-1.553523192E0,-1.570629952E0,2.292970928E0
7.757097000E0,1.272334245E0,-1.673515366E0,-1.796068767E0,2.765022808E0
7.767083000E0,1.957251359E0,-1.477156070E0,-1.953105683E0,3.134875556E0
7.777069000E0,2.425495804E0,-1.327177035E0,-2.049444408E0,3.441605899E0
7.787055000E0,2.533055921E0,-1.259555156E0,-2.097554714E0,3.521730720E0
7.797041000E0,2.303697717E0,-1.271728474E0,-2.195563550E0,3.427071021E0
7.807027000E0,1.874831931E0,-1.389727917E0,-2.573856622E0,3.474345458E0
7.817013000E0,1.718353423E0,-1.656056018E0,-3.050780674E0,3.873309017E0
7.826999000E0,2.093608428E0,-1.963028701E0,-3.011518375E0,4.160038564E0
7.836985000E0,2.471296459E0,-1.996560436E0,-2.777541456E0,4.219987714E0
7.846971000E0,2.706523513E0,-1.947182162E0,-2.671514479E0,4.272443974E0
7.856956000E0,2.430464768E0,-1.965798527E0,-2.657532617E0,4.102926083E0
7.866942000E0,1.774794842E0,-2.161621194E0,-2.741378181E0,3.916332117E0
7.876928000E0,1.180747553E0,-2.436078387E0,-3.020976246E0,4.056468929E0
7.886914000E0,8.925523263E-1,-2.543619500E0,-3.155318365E0,4.150022144E0
7.896900000E0,8.325780201E-1,-2.445647063E0,-3.075816112E0,4.016842102E0
7.906886000E0,9.980746883E-1,-2.578720921E0,-2.947014815E0,4.041144762E0
7.916872000E0,1.479334450E0,-2.995819770E0,-2.577207661E0,4.219640487E0
7.926858000E0,2.184892820E0,-3.350272136E0,-1.922983167E0,4.438011298E0
7.936844000E0,2.786568387E0,-3.508299571E0,-1.044143146E0,4.600365655E0
7.946830000E0,2.930447314E0,-3.580178223E0,-3.042382683E-1,4.636567534E0
7.956816000E0,2.485819774E0,-3.741683582E0,2.972104267E-1,4.501980677E0
7.966802000E0,1.828199217E0,-3.828232314E0,7.639334625E-1,4.310599652E0
7.976788000E0,1.221259986E0,-3.896022009E0,1.274330485E0,4.277193195E0
7.986774000E0,1.173803984E0,-4.059278024E0,2.294786561E0,4.808492407E0
7.996760000E0,1.582311519E0,-3.998590942E0,3.875232818E0,5.788770911E0
8.006746000E0,1.622530423E0,-4.031986145E0,5.220719240E0,6.793042516E0
8.016732000E0,1.362432822E0,-4.028038689E0,6.298611345E0,7.599593657E0
8.026718000E0,9.098244166E-1,-3.959964235E0,7.127881011E0,8.204619730E0
8.036704000E0,1.404407644E-1,-3.719831660E0,7.908391914E0,8.740682688E0
8.046690000E0,-1.099957159E0,-3.335476634E0,8.793359817E0,9.468816558E0
8.056676000E0,-2.348589131E0,-2.861680258E0,9.537744284E0,1.023101416E1
8.066662000E0,-3.272132869E0,-2.185852348E0,9.800248014E0,1.056076063E1
8.076648000E0,-3.556601665E0,-1.472016368E0,9.414073334E0,1.017059607E1
8.086634000E0,-3.241543161E0,-8.615749472E-1,8.419778870E0,9.063254916E0
8.096620000E0,-2.321186154E0,-4.816392463E-1,7.116492974E0,7.500956857E0
8.106606000E0,-9.643742609E-1,-3.033640730E-1,5.598595551E0,5.689140499E0
8.116592000E0,5.025722784E-1,4.487591833E-2,4.017116091E0,4.048680579E0
8.126578000E0,1.670994485E0,4.930772772E-1,2.421180559E0,2.982861557E0
8.136564000E0,2.202760157E0,7.169306195E-1,9.705261896E-1,2.511585736E0
8.146550000E0,1.913720008E0,6.718260750E-1,-3.243918300E-2,2.028478949E0
8.156536000E0,1.019363816E0,3.722670776E-1,-5.472976309E-1,1.215409422E0
8.166522000E0,-1.258835363E-1,-1.039491686E-1,-6.612148404E-1,6.810705981E-1
8.176508000E0,-1.311161512E0,-4.746120626E-1,-5.293437552E-1,1.491511291E0
8.186493000E0,-2.201677253E0,-7.129314163E-1,-4.118786015E-1,2.350595225E0
8.196479000E0,-2.678520028E0,-8.163651529E-1,-4.103483851E-1,2.830071978E0
8.206465000E0,-2.831178550E0,-7.339711601E-1,-4.708343227E-1,2.962426472E0
8.216451000E0,-2.545584750E0,-5.851867113E-1,-5.126226188E-1,2.661809000E0
8.226437000E0,-2.025110636E0,-4.965730351E-1,-5.326217043E-1,2.152055702E0
8.236423000E0,-1.454984890E0,-3.638046947E-1,-6.281769025E-1,1.626020021E0
8.246409000E0,-8.846164852E-1,-3.656518301E-1,-7.761401099E-1,1.232331553E0
8.256395000E0,-2.162154168E-1,-4.751719335E-1,-9.297255613E-1,1.066267833E0
8.266381000E0,3.534998542E-1,-3.713943806E-1,-1.038977131E0,1.158606668E0
8.276367000E0,6.541601747E-1,-2.769940075E-1,-1.011972204E0,1.236421836E0
8.286353000E0,6.007113612E-1,-3.218374738E-1,-9.308866721E-1,1.153682580E0
8.296339000E0,3.982620442E-1,-5.893920287E-1,-7.384666456E-1,1.025343165E0
8.306325000E0,3.884001303E-1,-9.204131395E-1,-4.142910165E-1,1.081504533E0
8.316311000E0,4.760598332E-1,-1.084021449E0,-1.793849748E-1,1.197461664E0
8.326297000E0,6.180097640E-1,-1.185754816E0,-9.295669556E-2,1.340369911E0
8.336283000E0,7.657238799E-1,-1.177200924E0,-1.534654373E-1,1.412687763E0
8.346269000E0,8.766783053E-1,-1.180604588E0,-3.971200830E-1,1.523186267E0
8.356255000E0,1.140666643E0,-1.255302768E0,-8.202545746E-1,1.884070858E0
8.366241000E0,1.501013002E0,-1.218330970E0,-1.352925249E0,2.359613764E0
8.376227000E0,1.806977917E0,-1.035625653E0,-1.887007881E0,2.810424955E0
8.386213000E0,2.033851054E0,-8.780945009E-1,-2.274318675E0,3.174921337E0
8.396199000E0,2.153736516E0,-7.961071819E-1,-2.379961782E0,3.307050908E0
8.406185000E0,2.177140582E0,-7.778113903E-1,-2.197281608E0,3.189510642E0
8.416171000E0,2.055071184E0,-8.337325528E-1,-1.752318730E0,2.826490487E0
8.426157000E0,1.752756101E0,-9.341643289E-1,-1.054519030E0,2.248739053E0
8.436143000E0,1.413350376E0,-1.012664661E0,-5.849086761E-2,1.739675309E0
8.446129000E0,1.297285484E0,-1.055579715E0,1.126179582E0,2.016303205E0
8.456115000E0,1.281327848E0,-1.078360175E0,2.329560829E0,2.869061759E0
8.466101000E0,1.284587671E0,-1.262773463E0,3.337634256E0,3.792698872E0
8.476087000E0,1.198886785E0,-1.551299349E0,3.975602029E0,4.432749788E0
8.486072500E0,7.452217877E-1,-1.645738899E0,4.335376823E0,4.696733357E0
8.496058500E0,9.842851996E-2,-1.594588480E0,4.568342173E0,4.839643665E0
8.506044500E0,-3.370434505E-1,-1.500052013E0,4.378673408E0,4.640747261E0
8.516030500E0,-4.109569341E-1,-1.324284564E0,3.905868720E0,4.144686437E0
8.526016500E0,-2.173106003E-1,-1.058539064E0,3.405377173E0,3.572719208E0
8.536001500E0,-7.128983796E-2,-1.005848708E0,2.939823909E0,3.107954067E0
8.545987500E0,-9.399749994E-2,-1.268863484E0,2.680799565E0,2.967412405E0
8.555973500E0,-1.064672720E-1,-1.365228230E0,2.505776905E0,2.855538706E0
8.565959500E0,-3.044270968E-1,-1.235368879E0,2.326726391E0,2.651880055E0
8.575945500E0,-4.218877190E-1,-1.068414061E0,2.335307180E0,2.602529055E0
8.585931500E0,-4.922414178E-1,-9.404483315E-1,2.476288812E0,2.694206926E0
8.595917500E0,-5.904535908E-1,-9.280705069E-1,2.686831260E0,2.903276172E0
8.605903500E0,-6.330704373E-1,-9.844932143E-1,3.050497961E0,3.267344928E0
8.615889500E0,-7.734895670E-1,-1.029861322E0,3.478838959E0,3.709611969E0
8.625875500E0,-1.062506912E0,-1.121150392E0,3.661636662E0,3.974101430E0
8.635861500E0,-1.331316279E0,-1.142886539E0,3.773311756E0,4.161306800E0
8.645847500E0,-1.454570323E0,-1.240931628E0,3.963172603E0,4.400275356E0
8.655833500E0,-1.558211635E0,-1.280413051E0,4.146952929E0,4.611366357E0
8.665819500E0,-1.729860159E0,-1.492950277E0,3.997843083E0,4.604787293E0
8.675805500E0,-1.894265152E0,-1.515762604E0,3.820236247E0,4.525481380E0
8.685791500E0,-2.221733787E0,-1.653677956E0,3.724691573E0,4.641559988E0
8.695777500E0,-2.717664213E0,-1.901451819E0,3.616678298E0,4.907298616E0
8.705763500E0,-3.267966728E0,-2.224837197E0,3.208804016E0,5.091751202E0
8.715749500E0,-3.500039794E0,-2.373953475E0,2.379220939E0,4.852486573E0
8.725735500E0,-3.334205741E0,-2.388533507E0,1.071250838E0,4.239056334E0
8.735721500E0,-3.097735569E0,-2.368869321E0,-1.177716941E-1,3.901458406E0
8.745707500E0,-2.877484404E0,-2.243285747E0,-8.985305196E-1,3.757606224E0
8.755693500E0,-2.686023760E0,-2.119515394E0,-1.313202190E0,3.664910522E0
8.765679500E0,-2.603792027E0,-2.100256420E0,-1.388181036E0,3.621858161E0
8.775665500E0,-2.640589725E0,-2.059200488E0,-1.136807481E0,3.536290711E0
8.785651500E0,-2.886672134E0,-2.122891284E0,-5.677775037E-1,3.627935323E0
8.795637500E0,-3.324633849E0,-2.387737994E0,-1.034980559E-1,4.094532306E0
8.805623500E0,-3.755204099E0,-2.652657501E0,-6.840540648E-2,4.598133202E0
8.815609500E0,-3.844464185E0,-2.789669166E0,-5.430461204E-1,4.780905564E0
8.825595500E0,-3.675086135E0,-2.776577250E0,-1.280380599E0,4.780691770E0
8.835581500E0,-3.320220371E0,-2.757262435E0,-2.141351529E0,4.817856973E0
8.845567500E0,-2.810820884E0,-2.658600611E0,-3.005053108E0,4.898899410E0
8.855553500E0,-2.495272382E0,-2.394098887E0,-3.552965282E0,4.957989112E0
8.865539500E0,-2.424443305E0,-2.127079645E0,-3.792719542E0,4.978665954E0
8.875525500E0,-2.411487629E0,-1.906816493E0,-3.902300749E0,4.967813690E0
8.885510500E0,-2.514859970E0,-1.724757294E0,-3.866669278E0,4.924473546E0
8.895497500E0,-2.858823600E0,-1.725834351E0,-3.879236114E0,5.118578847E0
8.905482500E0,-3.153099931E0,-1.789392124E0,-3.766082259E0,5.227555732E0
8.915468500E0,-3.012679047E0,-1.986159993E0,-3.552660349E0,5.063838674E0
8.925454500E0,-2.519271694E0,-1.945764504E0,-3.270998217E0,4.564225971E0
8.935440500E0,-1.868416951E0,-1.651114537E0,-3.171337397E0,4.034171786E0
8.945426500E0,-9.864393139E-1,-1.241528336E0,-3.186085829E0,3.558875951E0
8.955412500E0,-1.478889477E-1,-8.899876644E-1,-3.135094892E0,3.262325730E0
8.965398500E0,2.607214987E-1,-5.792359999E-1,-2.799951202E0,2.871100273E0
8.975384500E0,3.488507330E-1,-5.548442302E-1,-2.341404072E0,2.431403295E0
8.985370500E0,3.131634218E-1,-7.373605717E-1,-1.910563681E0,2.071720425E0
8.995356500E0,2.702238089E-1,-8.915995225E-1,-1.463709228E0,1.735054847E0
9.005342500E0,2.843202764E-1,-1.030105297E0,-1.179320247E0,1.591461966E0
9.015328500E0,4.115153432E-1,-1.061497755E0,-8.960138780E-1,1.448779912E0
9.025314500E0,5.276749599E-1,-8.893941721E-1,-5.069280155E-1,1.151711279E0
9.035300500E0,6.601576638E-1,-6.896116970E-1,-2.035902549E-1,9.761257223E-1
9.045286500E0,5.205717623E-1,-6.718351382E-1,-1.113153447E-1,8.571747305E-1
9.055272500E0,1.165116191E-1,-7.921041781E-1,-8.161499754E-2,8.047763628E-1
9.065258500E0,-2.615950727E-1,-1.155262317E0,-1.052231307E-1,1.189174045E0
9.075244500E0,-2.716768420E-1,-1.551736575E0,-3.159352943E-1,1.606707756E0
9.085230500E0,2.411169541E-1,-1.622690637E0,-5.473297906E-1,1.729402263E0
9.095216500E0,1.165267049E0,-1.673779806E0,-7.124278249E-1,2.160310057E0
9.105202500E0,2.283059385E0,-1.619163888E0,-8.571538675E-1,2.927245225E0
9.115188500E0,3.038768739E0,-1.451097077E0,-1.070665532E0,3.533570836E0
9.125174500E0,3.209042582E0,-1.329922888E0,-1.338429709E0,3.722639288E0
9.135160500E0,3.073443312E0,-1.361786412E0,-1.876719705E0,3.850012062E0
9.145146500E0,2.530576116E0,-1.440458945E0,-2.433370834E0,3.794737286E0
9.155132500E0,1.966375939E0,-1.509275410E0,-2.661547315E0,3.637084094E0
9.165118500E0,1.572815056E0,-1.502198233E0,-2.816819542E0,3.558766509E0
9.175104500E0,1.450200114E0,-1.443819924E0,-2.314855520E0,3.089701025E0
9.185090500E0,1.431266829E0,-1.410329704E0,-1.436909539E0,2.470276024E0
9.195076500E0,1.195812904E0,-1.493177733E0,-7.704807360E-1,2.062326068E0
9.205062500E0,7.883789170E-1,-1.582788067E0,-3.873740901E-1,1.810198351E0
9.215048500E0,2.916018140E-1,-1.747194230E0,-5.690605290E-1,1.860523900E0
9.225034500E0,-3.398518682E-2,-1.747964893E0,-1.228165548E0,2.136568949E0
9.235020500E0,-1.963880932E-1,-1.420452404E0,-1.975113726E0,2.440763722E0
9.245006500E0,-3.033056009E-1,-1.099196143E0,-2.504554837E0,2.751912314E0
9.254991500E0,-7.811178446E-2,-1.245235325E0,-2.787323263E0,3.053830944E0
9.264977500E0,9.300411648E-1,-1.671739420E0,-2.630515557E0,3.252583796E0
9.274963500E0,1.784471399E0,-1.742499793E0,-2.043797898E0,3.224554784E0
9.284949500E0,2.155898232E0,-1.774483185E0,-1.325108875E0,3.090728279E0
9.294935500E0,2.253431543E0,-2.075710686E0,-9.395895217E-1,3.204583755E0
9.304921500E0,2.169173750E0,-2.426750032E0,-1.000263886E0,3.405137048E0
9.314907500E0,2.251178026E0,-2.653566450E0,-1.130675652E0,3.658913069E0
9.324893500E0,2.651681893E0,-2.752622961E0,-8.316431965E-1,3.911518942E0
9.334879500E0,3.123408939E0,-2.676051918E0,4.691325637E-1,4.139688712E0
9.344865500E0,3.307968115E0,-2.829333168E0,2.213738304E0,4.883484054E0
9.354851500E0,2.924174421E0,-3.035527042E0,3.700136776E0,5.608585618E0
9.364837500E0,2.187724042E0,-3.238288600E0,4.822916202E0,6.207509181E0
9.374823500E0,1.161062316E0,-3.271433835E0,5.621020793E0,6.606528573E0
9.384809500E0,-3.640125632E-2,-3.137210122E0,6.225447475E0,6.971341956E0
9.394795500E0,-1.080670118E0,-3.212659670E0,6.741663646E0,7.545797425E0
9.404781500E0,-1.964321228E0,-3.202671748E0,7.502051357E0,8.390258564E0
9.414767500E0,-2.387219930E0,-2.842488819E0,8.460039289E0,9.238551101E0
9.424753500E0,-2.384357134E0,-2.619830647E0,9.004395770E0,9.676146689E0
9.434739500E0,-2.192716979E0,-2.646603294E0,8.933939745E0,9.572240914E0
9.444725500E0,-1.881285503E0,-2.467497231E0,8.470253205E0,9.020696597E0
9.454711500E0,-1.576999909E0,-2.178082860E0,7.572813776E0,8.036073802E0
9.464697500E0,-1.118367117E0,-1.821918722E0,6.424532304E0,6.770874992E0
9.474683500E0,-5.621747017E-1,-1.468692226E0,5.165152565E0,5.399249787E0
9.484670125E0,-1.947643214E-1,-1.195957038E0,3.918974669E0,4.102024967E0
9.494656125E0,-7.862926304E-2,-7.873509765E-1,2.800981189E0,2.910601268E0
9.504642125E0,-2.395311892E-2,-3.253928733E-1,1.804601024E0,1.833859081E0
9.514628125E0,-9.453778267E-3,4.214936167E-2,8.791885149E-1,8.802490485E-1
9.524614125E0,-2.184741962E-1,3.235843295E-1,-4.009318829E-2,3.924859952E-1
9.534600125E0,-6.289703697E-1,3.060979387E-1,-7.674273200E-1,1.038385461E0
9.544586125E0,-1.201338522E0,1.860249268E-1,-9.967064399E-1,1.572018844E0
9.554572125E0,-1.826129302E0,1.256319599E-1,-1.041354609E0,2.105932345E0
9.564558125E0,-2.319886903E0,7.810739905E-2,-9.976215291E-1,2.526504448E0
9.574544125E0,-2.601773568E0,5.768936053E-2,-6.992365064E-1,2.694714355E0
9.584530125E0,-2.576052251E0,4.158188939E-2,-3.177945627E-1,2.595913643E0
9.594516125E0,-2.083440705E0,-1.162952721E-1,1.564128725E-1,2.092537873E0
9.604502125E0,-1.522265292E0,-1.658456008E-1,5.473164882E-1,1.626146279E0
9.614488125E0,-1.173194704E0,-1.084586875E-1,7.174820119E-1,1.379467121E0
9.624474125E0,-9.046677572E-1,-1.342416926E-1,7.801321502E-1,1.202102639E0
9.634459125E0,-7.505497706E-1,-1.287125655E-1,8.369498371E-1,1.131537411E0
9.644445125E0,-6.630847800E-1,-2.410329004E-1,9.354210417E-1,1.171661559E0
9.654431125E0,-4.678708076E-1,-4.353466938E-1,1.046596784E0,1.226293058E0
9.664417125E0,-3.338678277E-1,-4.406847632E-1,1.114534706E0,1.244129574E0
9.674403125E0,-3.195421493E-1,-3.948968254E-1,1.232443225E0,1.333029253E0
9.684389125E0,-2.952662641E-1,-3.807975805E-1,1.297328169E0,1.383925338E0
9.694375125E0,-2.502812952E-1,-3.476342198E-1,1.179521976E0,1.254895362E0
9.704361125E0,-1.920991606E-1,-3.023545513E-1,1.036454642E0,1.096612323E0
9.714347125E0,-1.321400571E-1,-3.445347570E-1,8.450790748E-1,9.221300538E-1
9.724333125E0,-8.247906983E-2,-4.129139972E-1,5.319904974E-1,6.784649257E-1
9.734319125E0,8.243404627E-2,-4.349476214E-1,7.513408989E-2,4.490210872E-1
9.744305125E0,3.262301946E-1,-4.497505787E-1,-4.212307844E-1,6.972353237E-1
9.754291125E0,5.590084344E-1,-3.906710427E-1,-9.373620249E-1,1.159207427E0
9.764277125E0,8.206754279E-1,-4.989126523E-1,-1.599017015E0,1.865282125E0
9.774263125E0,1.100589827E0,-6.125743385E-1,-2.366422115E0,2.680764614E0
9.784249125E0,1.428408710E0,-5.345061158E-1,-3.063046086E0,3.421739259E0
9.794235125E0,1.806515402E0,-3.494784316E-1,-3.610008963E0,4.051888176E0
9.804221125E0,2.150245728E0,-1.892749554E-1,-3.988923448E0,4.535514522E0
9.814207125E0,2.449956461E0,-3.626988401E-1,-4.130131660E0,4.815789098E0
9.824193125E0,2.639930159E0,-6.264258076E-1,-3.871902536E0,4.727924469E0
9.834179125E0,2.734064484E0,-9.316381855E-1,-3.309253626E0,4.392518397E0
9.844165125E0,2.766721768E0,-1.229971022E0,-2.392375420E0,3.858890800E0
9.854151125E0,2.768623867E0,-1.462925994E0,-1.237448295E0,3.367002950E0
9.864137125E0,2.834581629E0,-1.737575706E0,3.130482316E-2,3.324906365E0
9.874123125E0,3.008318194E0,-1.867134949E0,1.506793998E0,3.847934436E0
9.884109125E0,3.078049164E0,-1.996806896E0,3.039898713E0,4.764725451E0
9.894095125E0,3.120223961E0,-2.170704844E0,4.902389218E0,6.203319848E0
9.904081125E0,3.211708912E0,-2.129118861E0,7.117046120E0,8.093242041E0
9.914067125E0,3.199184761E0,-2.321181184E0,8.985467749E0,9.816378960E0
9.924053125E0,2.954294599E0,-2.667698586E0,1.009444131E1,1.085090861E1
9.934039125E0,2.376136533E0,-2.908779287E0,1.043175081E1,1.108731017E1
9.944025125E0,1.755101420E0,-3.264848116E0,1.000318967E1,1.066786847E1
9.954011125E0,9.648408687E-1,-3.267995380E0,8.873377209E0,9.505132024E0
9.963997125E0,6.167584598E-2,-3.103310013E0,7.038133267E0,7.692181539E0
9.973983125E0,-6.792078924E-1,-2.912057821E0,5.072552549E0,5.888309900E0
9.983969125E0,-1.290379338E0,-2.481193164E0,3.305331606E0,4.329736179E0
9.993955125E0,-1.814804415E0,-1.923764501E0,1.889880910E0,3.250543766E0
1.000394012E1,-2.078431980E0,-1.497320486E0,9.894137194E-1,2.746049461E0
1.001392613E1,-1.741001444E0,-1.293690762E0,7.091491449E-1,2.282019791E0
1.002391212E1,-1.251810519E0,-9.786572546E-1,7.819269530E-1,1.770934600E0
1.003389812E1,-7.657583785E-1,-8.371579979E-1,1.114120211E0,1.590120515E0
1.004388413E1,-5.242771429E-1,-9.807116738E-1,1.505622362E0,1.871780064E0
1.005387012E1,-5.976240313E-1,-1.195597726E0,2.016736253E0,2.419469678E0
1.006385612E1,-6.716497815E-1,-1.348312673E0,2.726416910E0,3.114869124E0
1.007384213E1,-7.140461880E-1,-1.508292201E0,3.465063504E0,3.845968332E0
1.008382812E1,-8.489063698E-1,-1.759322232E0,4.064168635E0,4.509248655E0
1.009381412E1,-1.222229455E0,-2.054354900E0,4.414953627E0,5.020561166E0
1.010380013E1,-1.633989211E0,-2.413014337E0,4.608078974E0,5.452242728E0
1.011378612E1,-2.059864731E0,-2.819418045E0,4.405248418E0,5.621243141E0
1.012377212E1,-2.648161869E0,-3.243998114E0,3.732857795E0,5.609858498E0
1.013375813E1,-3.147825158E0,-3.566692205E0,2.912516243E0,5.577889150E0
1.014374412E1,-3.562072905E0,-3.626649262E0,2.090597697E0,5.496503159E0
1.015373012E1,-3.776901947E0,-3.560985615E0,1.386419270E0,5.372873091E0
1.016371613E1,-3.794979783E0,-3.660360214E0,7.851956197E-1,5.330726087E0
1.017370212E1,-3.619038234E0,-4.044498309E0,8.432854414E-2,5.427938431E0
1.018368812E1,-3.461203757E0,-4.270888174E0,-6.637367445E-1,5.537234301E0
1.019367413E1,-3.398026931E0,-3.925382340E0,-1.157028395E0,5.319203723E0
1.020366012E1,-3.280938191E0,-3.241104327E0,-1.540128536E0,4.862232880E0
1.021364612E1,-3.018930890E0,-2.413473636E0,-1.850470676E0,4.285211831E0
1.022363213E1,-2.675791132E0,-1.680858153E0,-1.857988442E0,3.665687298E0
1.023361812E1,-2.505490392E0,-1.160824335E0,-1.738994095E0,3.263295221E0
1.024360412E1,-2.745033860E0,-1.115311655E0,-1.537969159E0,3.338334932E0
1.025359013E1,-3.277098325E0,-1.536435727E0,-1.313641316E0,3.850410586E0
1.026357612E1,-3.773459106E0,-2.195458739E0,-1.391308127E0,4.582005129E0
1.027356212E1,-3.898181385E0,-2.544732810E0,-1.819220817E0,4.998104398E0
1.028354813E1,-3.513269704E0,-2.141227568E0,-2.287243068E0,4.707377227E0
1.029353412E1,-2.856418641E0,-1.482850966E0,-2.811605580E0,4.273534880E0
1.030352012E1,-2.453843105E0,-8.710535762E-1,-3.123922325E0,4.066813373E0
1.031350613E1,-2.258104053E0,-7.789893119E-1,-3.203921590E0,3.996369830E0
1.032349212E1,-2.102215530E0,-1.241055296E0,-2.965938744E0,3.841395712E0
1.033347812E1,-1.920912083E0,-1.781784165E0,-2.888585928E0,3.899818804E0
1.034346413E1,-1.487115925E0,-1.885129901E0,-3.123161017E0,3.939462306E0
1.035345012E1,-8.436006063E-1,-1.461683168E0,-3.209539595E0,3.626199675E0
1.036343612E1,-3.457008380E-1,-9.300364870E-1,-3.073323444E0,3.229519148E0
1.037342213E1,-3.110952616E-2,-9.203390991E-1,-3.077725228E0,3.212535516E0
1.038340713E1,3.136785614E-1,-1.134712570E0,-2.998752733E0,3.221565584E0
1.039339412E1,5.563169611E-1,-1.306690146E0,-2.906525770E0,3.234937365E0
1.040337912E1,6.869490212E-1,-1.458727985E0,-2.661699343E0,3.111981633E0
1.041336513E1,8.075881898E-1,-1.623554563E0,-2.432361020E0,3.033893247E0
1.042335112E1,9.424653286E-1,-1.607782575E0,-2.275034666E0,2.940916258E0
1.043333712E1,9.762756836E-1,-1.579251379E0,-2.172184482E0,2.857539947E0
1.044332313E1,8.312126952E-1,-1.661305649E0,-2.234660227E0,2.905952053E0
1.045330912E1,5.296940035E-1,-1.953635441E0,-2.553627595E0,3.258570402E0
1.046329512E1,4.024609298E-1,-2.098744622E0,-2.773976408E0,3.501663734E0
1.047328113E1,5.101759976E-1,-2.133480592E0,-2.653082301E0,3.442508487E0
1.048326675E1,7.803892815E-1,-2.197005620E0,-2.450045924E0,3.382094935E0
1.049325275E1,1.143924712E0,-2.364759021E0,-2.274020174E0,3.474452004E0
1.050323875E1,1.629824240E0,-2.370371178E0,-1.882439159E0,3.437813805E0
1.051322475E1,2.016430444E0,-2.258082418E0,-1.270564878E0,3.283178803E0
1.052321075E1,2.739112970E0,-2.456101885E0,-4.281886786E-1,3.703852302E0
1.053319675E1,3.428210843E0,-2.478271603E0,6.533228534E-1,4.280337658E0
1.054318275E1,3.555912278E0,-2.301392160E0,1.603431078E0,4.529007532E0
1.055316875E1,3.415411288E0,-2.348484465E0,2.090763173E0,4.642381306E0
1.056315475E1,3.276896011E0,-2.577497683E0,2.108034679E0,4.671761122E0
1.057314075E1,2.907651944E0,-2.343282782E0,1.825819400E0,4.156805325E0
1.058312675E1,2.349339328E0,-1.915527967E0,1.074386115E0,3.216045428E0
1.059311275E1,2.038252253E0,-1.775197715E0,-1.038520318E-2,2.702944141E0
1.060309875E1,2.254957082E0,-1.829556940E0,-1.006304644E0,3.073232675E0
1.061308475E1,2.763832659E0,-1.856283394E0,-1.651815033E0,3.716591436E0
1.062307075E1,3.209490479E0,-1.758296338E0,-1.866057599E0,4.107871238E0
1.063305675E1,3.233917222E0,-1.638806732E0,-1.742108322E0,4.022294061E0
1.064304275E1,2.550005245E0,-1.696950275E0,-8.659007174E-1,3.183072578E0
1.065302875E1,1.443805014E0,-1.963779191E0,5.791556007E-1,2.505278994E0
1.066301475E1,3.713823938E-1,-2.311561638E0,1.724930956E0,2.908028351E0
1.067300075E1,-7.223550814E-1,-2.264368175E0,2.909628303E0,3.757006383E0
1.068298675E1,-1.227794834E0,-1.981393928E0,4.022478572E0,4.649057530E0
1.069297275E1,-1.672182639E0,-1.886041628E0,4.908341099E0,5.517713308E0
1.070295875E1,-2.080904768E0,-1.689042501E0,6.123556234E0,6.684382557E0
1.071294475E1,-2.080368578E0,-1.790429127E0,7.316049088E0,7.813971087E0
1.072293075E1,-2.124996867E0,-1.947112287E0,7.996829882E0,8.500361528E0
1.073291675E1,-2.147647811E0,-1.809556539E0,7.987781900E0,8.467086020E0
1.074290275E1,-1.940166965E0,-1.478905849E0,7.511079458E0,7.897323913E0
1.075288875E1,-1.561165064E0,-1.152630047E0,6.826087500E0,7.096566982E0
1.076287475E1,-9.445662332E-1,-8.753828546E-1,6.106502244E0,6.240822876E0
1.077286075E1,-3.533302850E-1,-6.008818075E-1,5.342791561E0,5.388072281E0
1.078284575E1,3.522848028E-1,-3.678723103E-1,4.500652174E0,4.529382365E0
1.079283175E1,9.177994341E-1,-2.057901236E-1,3.601463842E0,3.722263718E0
1.080281775E1,1.197724943E0,-6.149136633E-2,2.654811323E0,2.913133946E0
1.081280375E1,1.278026510E0,-4.046565592E-3,1.796436557E0,2.204666060E0
1.082278975E1,1.094759569E0,-1.158099532E-1,1.083353405E0,1.544527455E0
1.083277575E1,7.455574179E-1,-1.524258024E-1,4.841669977E-1,9.019463233E-1
1.084276175E1,4.028065002E-1,-1.186391285E-1,-1.040354242E-1,4.326103199E-1
1.085274775E1,-1.461394608E-2,-1.768575159E-1,-5.141164362E-1,5.438822100E-1
1.086273375E1,-5.900179732E-1,-2.765303233E-1,-6.652236915E-1,9.311889111E-1
1.087271975E1,-1.154727443E0,-3.675325871E-1,-5.882719946E-1,1.347048481E0
1.088270575E1,-1.554636063E0,-4.019861358E-1,-3.816951281E-1,1.650508198E0
1.089269175E1,-1.806737012E0,-3.737259579E-1,-2.200225572E-1,1.858058031E0
1.090267775E1,-1.783145251E0,-3.612769434E-1,1.404524406E-1,1.824789002E0
1.091266375E1,-1.505763865E0,-3.267465037E-1,6.886119694E-1,1.687683187E0
1.092264975E1,-1.145237997E0,-3.839261332E-1,1.107364996E0,1.638666098E0
1.093263575E1,-7.715985775E-1,-4.079038104E-1,1.340812742E0,1.599852710E0
1.094262175E1,-3.849105120E-1,-4.551197845E-1,1.492891805E0,1.607487499E0
1.095260775E1,4.954287350E-2,-6.269136116E-1,1.526824366E0,1.651262492E0
1.096259375E1,3.981012458E-1,-7.030262330E-1,1.369602093E0,1.590138478E0
1.097257975E1,7.018915808E-1,-7.859648940E-1,1.034956001E0,1.476999164E0
1.098256575E1,9.152377689E-1,-7.720534909E-1,5.578787524E-1,1.320967626E0
1.099255175E1,8.881137049E-1,-7.176293617E-1,1.335159069E-1,1.149593124E0
1.100253775E1,6.186857021E-1,-7.049373955E-1,-1.323710221E-1,9.472226860E-1
1.101252375E1,1.982258731E-1,-7.931712949E-1,-3.091821257E-1,8.740753896E-1
1.102250975E1,-3.545505989E-1,-1.044770260E0,-6.911474682E-1,1.301897018E0
1.103249575E1,-8.364576477E-1,-1.115333874E0,-1.117782542E0,1.786916018E0
1.104248175E1,-1.058767617E0,-1.031696763E0,-1.662103940E0,2.224404771E0
1.105246775E1,-9.525815964E-1,-7.135602844E-1,-2.155570349E0,2.462328879E0
1.106245375E1,-6.268987012E-1,-4.370580277E-1,-2.572858502E0,2.683956515E0
1.107243975E1,-1.578958726E-1,-4.246604687E-1,-2.877535275E0,2.912984188E0
1.108242575E1,6.393602872E-1,-4.919379473E-1,-2.948981234E0,3.057331326E0
1.109241175E1,1.670027940E0,-4.268771482E-1,-2.716064415E0,3.216865451E0
1.110239775E1,2.497024208E0,-5.387557259E-1,-2.373340394E0,3.486851339E0
1.111238375E1,3.054500672E0,-9.007474914E-1,-1.976111115E0,3.747844119E0
1.112236975E1,3.547087076E0,-1.229908018E0,-1.533200170E0,4.055268575E0
1.113235575E1,3.904200509E0,-1.493951320E0,-9.763458502E-1,4.292775720E0
1.114234175E1,3.807361847E0,-1.722123123E0,-2.912498116E-1,4.188858883E0
1.115232775E1,3.313720021E0,-1.902951483E0,4.800167902E-1,3.851283013E0
1.116231375E1,2.760825436E0,-2.005314010E0,1.350732543E0,3.669866451E0
1.117229975E1,2.316394361E0,-2.203821134E0,2.095767220E0,3.822924361E0
1.118228475E1,1.976655929E0,-2.442681940E0,2.620301641E0,4.091435495E0
1.119227075E1,1.805164695E0,-2.612544432E0,3.166168458E0,4.484264788E0
1.120225675E1,1.647748879E0,-2.705175730E0,3.572701973E0,4.774646740E0
1.121224275E1,1.457896219E0,-2.750627014E0,3.799868056E0,4.912271124E0
1.122222875E1,1.158294244E0,-2.763562517E0,3.899038002E0,4.917460797E0
1.123221475E1,7.774691820E-1,-2.727587815E0,3.928017973E0,4.844947762E0
1.124220075E1,4.660084695E-1,-2.541377093E0,3.992868272E0,4.755918256E0
1.125218675E1,1.974932170E-1,-2.258316015E0,4.208650995E0,4.780349149E0
1.126217275E1,-1.054732454E-1,-1.937400062E0,4.430614225E0,4.836836364E0
1.127215875E1,-2.602619076E-1,-1.679382901E0,4.515246239E0,4.824470104E0
1.128214475E1,-3.728909755E-1,-1.637946168E0,4.377391698E0,4.688653689E0
1.129213075E1,-7.407574385E-1,-1.511215224E0,4.196733200E0,4.521621677E0
1.130211675E1,-1.188070021E0,-1.396864005E0,3.876196439E0,4.288080953E0
1.131210275E1,-1.402088639E0,-1.325661729E0,3.616994340E0,4.099497484E0
1.132208875E1,-1.379908980E0,-1.395957248E0,3.512181537E0,4.023464251E0
1.133207475E1,-1.408888366E0,-1.405952625E0,3.396058758E0,3.936354188E0
1.134206075E1,-1.502074857E0,-1.304637773E0,3.260081173E0,3.819219534E0
1.135204675E1,-1.507440847E0,-1.334361071E0,3.057847618E0,3.661055781E0
1.136203275E1,-1.542080922E0,-1.307133218E0,2.881933551E0,3.520248828E0
1.137201875E1,-1.627499387E0,-1.185992651E0,2.631936723E0,3.313974009E0
1.138200475E1,-1.615064113E0,-1.025123762E0,2.527179469E0,3.169534175E0
1.139199075E1,-1.541437143E0,-9.149766907E-1,2.671181188E0,3.216895980E0
1.140197675E1,-1.490656414E0,-1.081107197E0,2.770497315E0,3.326635641E0
1.141196275E1,-1.526389918E0,-1.206441972E0,2.751543565E0,3.369919941E0
1.142194875E1,-1.607997753E0,-1.329863538E0,2.648562403E0,3.371806135E0
1.143193475E1,-1.714433450E0,-1.529151558E0,2.501832958E0,3.396579853E0
1.144192075E1,-1.877722794E0,-1.789551753E0,2.421435936E0,3.548477189E0
1.145190675E1,-2.109598224E0,-1.982045015E0,2.319811328E0,3.709505588E0
1.146189275E1,-2.156398754E0,-2.150342500E0,2.323191457E0,3.830306384E0
1.147187875E1,-2.084232418E0,-2.277233219E0,2.394230596E0,3.906680951E0
1.148186475E1,-2.054537333E0,-2.494981776E0,2.362502580E0,4.003433046E0
1.149185096E1,-1.915248470E0,-2.815431998E0,2.143976198E0,4.023862320E0
1.150183696E1,-1.845325711E0,-3.090470696E0,1.786307425E0,4.018349204E0
1.151182296E1,-1.889065223E0,-3.323369681E0,1.291718204E0,4.035082326E0
1.152180896E1,-2.165370136E0,-3.501945109E0,6.296976171E-1,4.165209054E0
1.153179496E1,-2.219355140E0,-3.350253425E0,-5.797368139E-3,4.018677501E0
1.154178096E1,-2.057103676E0,-2.880981039E0,-7.009585114E-1,3.608749107E0
1.155176696E1,-2.003337359E0,-2.275774046E0,-1.468503360E0,3.368829204E0
1.156175296E1,-1.941070359E0,-1.729612237E0,-2.087496334E0,3.334209588E0
1.157173896E1,-1.948990413E0,-1.415211252E0,-2.363257456E0,3.374369915E0
1.158172496E1,-2.059366549E0,-1.544020735E0,-2.416316552E0,3.530379058E0
1.159171096E1,-2.248321661E0,-1.910149114E0,-2.330903935E0,3.759884716E0
1.160169696E1,-2.353003778E0,-2.184922056E0,-2.239984994E0,3.915104589E0
1.161168196E1,-2.552392663E0,-2.193221594E0,-2.181437993E0,4.010436508E0
1.162166796E1,-2.829118575E0,-2.012416623E0,-2.266026446E0,4.145914668E0
1.163165396E1,-3.004220465E0,-1.757117540E0,-2.381556317E0,4.217180710E0
1.164163996E1,-3.037611575E0,-1.581749017E0,-2.258478567E0,4.102406546E0
1.165162596E1,-3.379291867E0,-1.377640845E0,-1.894835256E0,4.111922721E0
1.166161196E1,-3.688543501E0,-1.433998356E0,-1.678802272E0,4.298846533E0
1.167159796E1,-3.905602672E0,-1.599860037E0,-1.599708740E0,4.513574240E0
1.168158396E1,-4.044625486E0,-2.007275751E0,-1.753400757E0,4.843817242E0
1.169156996E1,-3.772965016E0,-2.238862767E0,-2.131688713E0,4.877690875E0
1.170155596E1,-3.064721020E0,-2.023741510E0,-2.612033093E0,4.506746222E0
1.171154196E1,-2.082475330E0,-1.458617034E0,-3.035802446E0,3.959843891E0
1.172152796E1,-1.194307246E0,-8.292261037E-1,-3.219251528E0,3.532359853E0
1.173151396E1,-6.325933045E-1,-3.910011545E-1,-3.093114515E0,3.181259750E0
1.174149996E1,-4.007593900E-1,-5.591869938E-1,-2.919104885E0,2.999078444E0
1.175148596E1,-3.143159080E-1,-8.555602089E-1,-2.596578317E0,2.751907833E0
1.176147196E1,-1.128746510E-1,-9.915051223E-1,-2.190653789E0,2.407236407E0
1.177145796E1,1.323879790E-1,-1.027634702E0,-1.856951438E0,2.126459099E0
1.178144396E1,1.769425929E-1,-8.465907262E-1,-1.300440642E0,1.561784365E0
1.179142996E1,1.318664074E-1,-8.843293869E-1,-6.896768935E-1,1.129195037E0
1.180141596E1,6.779788077E-2,-1.052941452E0,1.213588147E-1,1.062078253E0
1.181140196E1,1.575731063E-1,-1.430958973E0,8.542741138E-1,1.673994364E0
1.182138796E1,3.881247264E-1,-1.691001026E0,9.455719543E-1,1.975912851E0
1.183137396E1,7.465912056E-1,-1.538846534E0,5.167779426E-1,1.786758665E0
1.184135996E1,1.115711312E0,-1.219744096E0,-2.103494900E-1,1.666383599E0
1.185134596E1,1.314022554E0,-8.014392579E-1,-1.072440746E0,1.875923589E0
1.186133196E1,1.419029192E0,-7.257178152E-1,-1.967653410E0,2.532186829E0
1.187131796E1,1.574178627E0,-8.991017926E-1,-2.649906678E0,3.210674039E0
1.188130396E1,1.673341557E0,-1.035698890E0,-3.006954038E0,3.593677329E0
1.189128996E1,1.984780635E0,-1.563772337E0,-3.089759090E0,3.991409441E0
1.190127596E1,2.481342561E0,-1.828220267E0,-2.723793849E0,4.113210812E0
1.191126196E1,2.819751921E0,-1.898969237E0,-2.156663048E0,4.025950889E0
1.192124796E1,2.829303347E0,-1.995551791E0,-1.555757559E0,3.795729965E0
1.193123396E1,2.592712723E0,-2.242800136E0,-1.290169423E0,3.662901698E0
1.194121996E1,2.513289993E0,-2.461094238E0,-1.190846279E0,3.713721354E0
1.195120596E1,2.301637158E0,-2.485485313E0,-1.285647771E0,3.623266626E0
1.196119196E1,2.060608497E0,-2.605109990E0,-1.554984557E0,3.667517200E0
1.197117796E1,1.941398388E0,-2.597974632E0,-1.594487177E0,3.613985231E0
1.198116396E1,2.208892132E0,-2.559018143E0,-1.129454607E0,3.564189391E0
1.199114996E1,2.452628639E0,-2.485807495E0,-4.437709236E-1,3.520164594E0
1.200113596E1,2.689080684E0,-2.673813604E0,7.248093406E-2,3.792846899E0
1.201112196E1,3.185484150E0,-2.828603436E0,6.987071872E-1,4.317001089E0
1.202110796E1,3.449527452E0,-2.794299576E0,1.198024394E0,4.598109634E0
1.203109296E1,3.403614530E0,-2.891565084E0,1.192550157E0,4.622544363E0
1.204107896E1,3.249697103E0,-3.179800072E0,8.722641691E-1,4.629525304E0
1.205106496E1,2.956890178E0,-3.456818930E0,5.799853206E-1,4.585758346E0
1.206105096E1,2.391911151E0,-3.561640211E0,5.037925192E-1,4.319760045E0
1.207103696E1,1.586088236E0,-3.669715467E0,4.745834112E-1,4.025880887E0
1.208102296E1,5.823774165E-1,-3.761649485E0,3.573162588E-1,3.823198296E0
1.209100896E1,-3.480309534E-1,-3.777691905E0,5.120079303E-1,3.828084873E0
1.210099496E1,-1.084785388E0,-3.745990056E0,1.144166787E0,4.064273425E0
1.211098096E1,-1.716582302E0,-3.557356541E0,2.084547583E0,4.466181700E0
1.212096696E1,-2.203486381E0,-3.252532418E0,2.909679759E0,4.888819454E0
1.213095296E1,-2.465570866E0,-2.960720689E0,3.757310851E0,5.381662524E0
1.214093896E1,-2.531158499E0,-2.606724698E0,4.567627351E0,5.836522648E0
1.215092496E1,-2.455613642E0,-2.196377044E0,5.237774398E0,6.187761399E0
1.216091096E1,-2.200607212E0,-1.874305682E0,5.873448601E0,6.546227338E0
1.217089696E1,-2.077949585E0,-1.669432109E0,6.423150022E0,6.954260151E0
1.218088296E1,-2.070320138E0,-1.487470266E0,6.755281227E0,7.220292080E0
1.219086896E1,-1.872812887E0,-1.436984822E0,6.790199044E0,7.188821639E0
1.220085496E1,-1.623213378E0,-1.248562098E0,6.649819091E0,6.958004234E0
1.221084096E1,-1.517376435E0,-1.064005261E0,6.250572376E0,6.519524021E0
1.222082696E1,-1.408797734E0,-1.170042178E0,5.654858045E0,5.943999433E0
1.223081296E1,-1.164129181E0,-1.192674995E0,5.004823081E0,5.275028385E0
1.224079896E1,-9.098062903E-1,-9.544255158E-1,4.250811174E0,4.450625932E0
1.225078496E1,-6.690998107E-1,-7.090728387E-1,3.499127043E0,3.632405390E0
1.226077096E1,-4.966782850E-1,-5.536398134E-1,2.598769854E0,2.703111377E0
1.227075696E1,-3.949630451E-1,-3.045832175E-1,1.688676465E0,1.760793840E0
1.228074296E1,-3.539173454E-1,-9.166212201E-2,8.472061457E-1,9.227229732E-1
1.229072896E1,-5.343285066E-1,1.110740009E-1,1.186091615E-1,5.584912889E-1
1.230071496E1,-9.146384293E-1,2.733772123E-1,-4.124473894E-1,1.039909326E0
1.231070096E1,-1.428569509E0,2.927790047E-1,-8.250162546E-1,1.675464774E0
1.232068696E1,-1.935333071E0,1.302572536E-1,-1.090925111E0,2.225443472E0
1.233067296E1,-2.381420662E0,-7.866990119E-2,-1.199318894E0,2.667530531E0
1.234065896E1,-2.537316787E0,-2.416505125E-1,-1.223759086E0,2.827358793E0
1.235064496E1,-2.355681219E0,-1.736766306E-1,-1.124154106E0,2.615935785E0
1.236063096E1,-1.901924420E0,-6.270554066E-3,-9.232946473E-1,2.114196969E0
1.237061696E1,-1.354297591E0,-5.291320860E-2,-6.540373832E-1,1.504887594E0
1.238060296E1,-8.593114901E-1,-7.125080779E-2,-3.613805853E-1,9.349271854E-1
1.239058896E1,-3.546441543E-1,-1.274209155E-1,-3.142732233E-3,3.768533437E-1
1.240057496E1,1.126758456E-1,-2.784797850E-1,3.560445625E-1,4.658482235E-1
1.241056096E1,3.779751295E-1,-3.449240354E-1,5.659905946E-1,7.630092672E-1
1.242054696E1,4.396223241E-1,-3.966780335E-1,6.893487185E-1,9.087479881E-1
1.243053296E1,4.325314057E-1,-4.774584872E-1,8.302079974E-1,1.050854577E0
1.244051896E1,3.945823914E-1,-5.753002390E-1,8.103638631E-1,1.069277896E0
1.245050496E1,2.391248077E-1,-6.015198849E-1,6.391202590E-1,9.096601294E-1
1.246049096E1,8.999683499E-2,-6.969658864E-1,3.749595742E-1,7.965271868E-1
1.247047596E1,2.276063776E-1,-8.160605130E-1,1.030925515E-1,8.534562075E-1
1.248046196E1,5.099561423E-1,-8.390549809E-1,-1.760036762E-1,9.975198354E-1
1.249044762E1,7.569226509E-1,-1.017902597E0,-5.965665624E-1,1.401766478E0
1.250043363E1,1.016220937E0,-1.207895152E0,-9.766276860E-1,1.856210475E0
1.251041962E1,1.421376849E0,-1.334680329E0,-1.362309446E0,2.378564851E0
1.252040562E1,1.746606000E0,-1.297275398E0,-1.639901039E0,2.724487363E0
1.253039163E1,2.102091569E0,-1.157713324E0,-1.840067895E0,3.024060013E0
1.254037762E1,2.488286714E0,-9.557586810E-1,-1.830606515E0,3.233599487E0
1.255036362E1,2.574776974E0,-9.752826802E-1,-1.726651792E0,3.249919873E0
1.256034963E1,2.192229906E0,-1.229814609E0,-1.492005951E0,2.923080172E0
1.257033562E1,1.704465702E0,-1.527124913E0,-1.185036778E0,2.577135230E0
1.258032162E1,1.398079787E0,-1.766922297E0,-9.095729864E-1,2.429807505E0
1.259030763E1,1.334753273E0,-1.767268014E0,-4.696056765E-1,2.263919615E0
1.260029362E1,1.373647197E0,-1.531259772E0,2.289108914E-1,2.069797890E0
1.261027962E1,1.398947514E0,-1.275141494E0,9.669534677E-1,2.125567921E0
1.262026563E1,1.485145413E0,-9.726111605E-1,1.758022104E0,2.498453739E0
1.263025162E1,1.624547127E0,-7.260755186E-1,2.615853664E0,3.163705014E0
1.264023762E1,1.734387658E0,-5.581391362E-1,3.431432658E0,3.885144776E0
1.265022363E1,1.615162931E0,-5.996774638E-1,3.978399922E0,4.335438881E0
1.266020962E1,1.209917557E0,-9.524685258E-1,4.245850396E0,4.516452410E0
1.267019562E1,5.020676637E-1,-1.429125433E0,4.173029757E0,4.439442397E0
1.268018163E1,-2.875602186E-1,-1.792772545E0,3.752600334E0,4.168780822E0
1.269016762E1,-9.733994383E-1,-1.848893098E0,3.193122953E0,3.816011837E0
1.270015362E1,-1.538781922E0,-1.691587940E0,2.681347157E0,3.524051949E0
1.271013963E1,-1.833283955E0,-1.520260282E0,2.252355655E0,3.277991364E0
1.272012562E1,-1.894300820E0,-1.183443557E0,1.988090159E0,2.990220181E0
1.273011162E1,-1.879537185E0,-7.824795149E-1,1.838542356E0,2.743204735E0
1.274009763E1,-1.739345512E0,-3.418815829E-1,2.011106554E0,2.680812452E0
1.275008362E1,-1.593236457E0,-1.335891433E-1,2.435513254E0,2.913412651E0
1.276006962E1,-1.819795598E0,-1.382702780E-1,2.660535747E0,3.226333081E0
1.277005563E1,-2.221787581E0,-2.044698223E-1,2.694255470E0,3.498165305E0
1.278004162E1,-2.627701877E0,-3.329974696E-1,2.837806368E0,3.881861596E0
1.279002762E1,-2.878391892E0,-5.007125714E-1,3.201767476E0,4.334416678E0
1.280001363E1,-2.920988858E0,-6.879281375E-1,3.631827849E0,4.711220071E0
1.280999962E1,-2.944094131E0,-8.117145699E-1,4.027505423E0,5.054440694E0
1.281998562E1,-2.883695902E0,-9.221637958E-1,4.220952952E0,5.194471286E0
1.282997163E1,-2.788595617E0,-1.080274554E0,4.180161021E0,5.139747541E0
1.283995762E1,-2.677005014E0,-1.465541746E0,3.897631162E0,4.950322932E0
1.284994362E1,-2.560987485E0,-1.905508178E0,3.557510322E0,4.779696435E0
1.285992963E1,-2.511779657E0,-2.071389593E0,3.236049702E0,4.590393182E0
1.286991562E1,-2.456522884E0,-2.017556033E0,2.932547050E0,4.324912626E0
1.287990162E1,-2.362454048E0,-1.968612207E0,2.603434178E0,4.029204967E0
1.288988763E1,-2.406008204E0,-1.881311231E0,2.208543638E0,3.769067845E0
1.289987363E1,-2.513942542E0,-1.752759025E0,1.781817348E0,3.544988627E0
1.290985862E1,-2.591703494E0,-1.675437784E0,1.460396488E0,3.414202201E0
1.291984462E1,-2.704498622E0,-1.604806635E0,1.229051986E0,3.376430944E0
1.292983063E1,-2.774267600E0,-1.676779135E0,9.417002204E-1,3.375640426E0
1.293981662E1,-2.713665887E0,-1.854754639E0,8.973324251E-1,3.407242697E0
1.294980262E1,-2.607827775E0,-2.275679029E0,9.439271325E-1,3.587545008E0
1.295978863E1,-2.465998297E0,-2.791444380E0,1.065815266E0,3.874180108E0
1.296977462E1,-2.323716829E0,-3.331690269E0,1.128819892E0,4.215928640E0
1.297976062E1,-2.201362088E0,-3.814559770E0,7.557783508E-1,4.468563773E0
1.298974663E1,-2.271495346E0,-3.990593705E0,1.943664184E-1,4.595901167E0
1.299973262E1,-2.376045901E0,-3.841508125E0,-3.163106856E-1,4.528005217E0
1.300971862E1,-2.454158855E0,-3.544783273E0,-7.658288375E-1,4.378912873E0
1.301970463E1,-2.592305172E0,-3.272754428E0,-1.143312508E0,4.328756305E0
1.302969062E1,-2.727198683E0,-2.878374935E0,-1.503846563E0,4.240779340E0
1.303967662E1,-2.788636547E0,-2.544312688E0,-1.755046456E0,4.162956751E0
1.304966263E1,-2.797112086E0,-2.304510773E0,-1.969517356E0,4.124755088E0
1.305964862E1,-2.845022417E0,-2.041548036E0,-2.162947197E0,4.115873117E0
1.306963462E1,-2.998553928E0,-1.924641730E0,-2.241038370E0,4.209254616E0
1.307962063E1,-3.281333463E0,-1.917319554E0,-2.169745169E0,4.376192143E0
1.308960662E1,-3.613913149E0,-2.165120753E0,-1.870257800E0,4.609336217E0
1.309959262E1,-3.776460482E0,-2.512778946E0,-1.427030083E0,4.755220990E0
1.310957863E1,-3.632016129E0,-2.755458861E0,-1.171776316E0,4.707138667E0
1.311956462E1,-3.342307643E0,-2.478987595E0,-8.796733953E-1,4.253260533E0
1.312955062E1,-2.982091092E0,-2.006786631E0,-5.726646066E-1,3.639780848E0
1.313953663E1,-2.705052354E0,-1.723730231E0,-4.349768575E-1,3.236936671E0
1.314952262E1,-2.471292951E0,-1.746791942E0,-6.167894500E-1,3.088527183E0
1.315950862E1,-2.248786515E0,-1.704814342E0,-8.385813564E-1,2.943917699E0
1.316949463E1,-1.984934417E0,-1.721425697E0,-1.235229131E0,2.903284704E0
1.317948062E1,-1.514922944E0,-1.836906013E0,-1.981899274E0,3.097925105E0
1.318946662E1,-1.001119334E0,-1.339319071E0,-2.393117432E0,2.919422295E0
1.319945263E1,-6.761275792E-1,-8.687097929E-1,-2.570640069E0,2.796425499E0
1.320943862E1,-7.046239847E-1,-6.120437767E-1,-2.476141462E0,2.646198988E0
1.321942462E1,-1.104595170E0,-4.509453476E-1,-2.059307492E0,2.379964189E0
1.322941063E1,-1.479083020E0,-8.421081045E-1,-1.974594786E0,2.606886497E0
1.323939662E1,-1.455344494E0,-1.108748740E0,-1.992528196E0,2.705091491E0
1.324938262E1,-9.778982860E-1,-1.043775210E0,-2.114888785E0,2.553136565E0
1.325936863E1,-3.238340056E-1,-9.637208346E-1,-2.468958743E0,2.670090557E0
1.326935462E1,2.750530243E-1,-7.618805051E-1,-2.875125053E0,2.987048734E0
1.327934062E1,6.391585582E-1,-6.730335250E-1,-3.238505532E0,3.368889412E0
1.328932663E1,7.175790757E-1,-7.416073313E-1,-3.376099287E0,3.530290011E0
1.329931262E1,8.023344666E-1,-1.091822805E0,-3.373300225E0,3.635240300E0
1.330929862E1,1.113731444E0,-1.376645649E0,-3.229516023E0,3.683113454E0
1.331928463E1,1.354685846E0,-1.547362127E0,-3.114935154E0,3.732602886E0
1.332927063E1,1.486462206E0,-1.766336845E0,-3.212408824E0,3.955892591E0
1.333925662E1,1.667798397E0,-2.025757338E0,-3.356076082E0,4.260104571E0
1.334924263E1,1.865757052E0,-2.401845278E0,-3.497370540E0,4.634815079E0
1.335922763E1,2.268591619E0,-2.742819812E0,-3.509462582E0,4.998589408E0
1.336921362E1,3.021849235E0,-2.989438119E0,-3.467612890E0,5.485677007E0
1.337919962E1,3.964884667E0,-3.239354548E0,-3.400433060E0,6.146273123E0
1.338918563E1,4.399512300E0,-3.207198370E0,-3.341524701E0,6.388084000E0
1.339917162E1,4.521094040E0,-3.303324257E0,-3.316246603E0,6.507667323E0
1.340915762E1,4.436469042E0,-3.495985335E0,-3.143105285E0,6.463998906E0
1.341914363E1,4.079551490E0,-3.843530384E0,-3.032834984E0,6.372876447E0
1.342912962E1,3.704203514E0,-4.289358943E0,-2.795199462E0,6.319245513E0
1.343911562E1,3.143328649E0,-4.822829663E0,-2.349719982E0,6.217827993E0
1.344910163E1,2.560092861E0,-5.371598454E0,-1.715560209E0,6.192842016E0
1.345908762E1,1.954338861E0,-5.781835011E0,-5.282117343E-1,6.126015353E0
1.346907362E1,1.521672385E0,-6.359249310E0,1.156331261E0,6.640228959E0
1.347905963E1,1.747594764E0,-6.809663256E0,3.333676276E0,7.780681116E0
1.348904608E1,2.033297907E0,-6.859561055E0,5.495930139E0,9.021813916E0
1.349903208E1,1.998029256E0,-6.820725603E0,7.169557625E0,1.009539376E1
1.350901808E1,1.687987078E0,-6.398325668E0,8.364107530E0,1.066518479E1
1.351900408E1,1.169381735E0,-5.882381977E0,9.271894777E0,1.104254971E1
1.352899008E1,3.793112183E-1,-5.131198953E0,9.985811741E0,1.123341069E1
1.353897608E1,-4.469038618E-1,-4.319741076E0,1.044731610E1,1.131398691E1
1.354896208E1,-1.361380908E0,-3.576939451E0,1.048718125E1,1.116372807E1
1.355894808E1,-2.237564539E0,-3.029319638E0,1.001078520E1,1.069576051E1
1.356893408E1,-2.768808639E0,-2.599127411E0,8.972496285E0,9.743072112E0
1.357892008E1,-2.928279752E0,-2.247383768E0,7.609641294E0,8.457670881E0
1.358890608E1,-2.686412015E0,-1.954744950E0,6.247110239E0,7.075607654E0
1.359889208E1,-2.213361159E0,-1.695785218E0,4.834745704E0,5.581166647E0
1.360887808E1,-1.584395467E0,-1.378487230E0,3.384990563E0,3.983553332E0
1.361886408E1,-9.579294598E-1,-1.036117258E0,2.078920223E0,2.512583753E0
1.362885008E1,-4.308667034E-1,-4.423330933E-1,1.025610981E0,1.197156032E0
1.363883608E1,-9.451848686E-2,2.603613102E-1,6.708802422E-2,2.849957179E-1
1.364882208E1,-3.269704521E-2,7.381478262E-1,-7.874807847E-1,1.079841329E0
1.365880808E1,-3.149111545E-1,7.746107706E-1,-1.359622065E0,1.596171370E0
1.366879408E1,-9.579680514E-1,4.587359950E-1,-1.469057384E0,1.812807518E0
1.367878008E1,-1.767368293E0,1.010211754E-1,-1.392464122E0,2.252277135E0
1.368876608E1,-2.473819533E0,-1.958378702E-2,-1.292971993E0,2.791405234E0
1.369875208E1,-2.892283707E0,3.800690174E-4,-1.107266763E0,3.096989647E0
1.370873808E1,-2.979100242E0,-1.734247617E-1,-8.713199168E-1,3.108747786E0
1.371872408E1,-2.638151436E0,-3.471424690E-1,-5.666636091E-1,2.720562173E0
1.372871008E1,-1.997767301E0,-2.374656603E-1,-3.319318511E-1,2.039029888E0
1.373869608E1,-1.440471516E0,-6.114170283E-2,-1.070707412E-1,1.445738787E0
1.374868208E1,-9.479336447E-1,-2.295736733E-1,1.474322802E-1,9.864170231E-1
1.375866808E1,-5.055069959E-1,-3.318297806E-1,4.125017685E-1,7.319877289E-1
1.376865408E1,-2.375817275E-1,-2.991698653E-1,6.902755022E-1,7.889410336E-1
1.377864008E1,-7.750367403E-2,-2.288880873E-1,9.807891494E-1,1.010120751E0
1.378862608E1,1.091324329E-2,-3.450564748E-1,1.106151699E0,1.158772907E0
1.379861208E1,6.768970728E-2,-6.124280119E-1,1.070833347E0,1.235448916E0
1.380859808E1,1.637354869E-1,-7.730182815E-1,1.053751876E0,1.317102725E0
1.381858308E1,2.773223287E-1,-7.373721930E-1,1.191469592E0,1.428364524E0
1.382856908E1,3.554873228E-1,-6.113755131E-1,1.304496270E0,1.483867169E0
1.383855508E1,2.476646662E-1,-6.888321170E-1,1.103008820E0,1.323803584E0
1.384854108E1,4.235313714E-2,-7.152936915E-1,7.909108344E-1,1.067229498E0
1.385852708E1,-1.274412346E-1,-6.353686854E-1,5.226702549E-1,8.325375848E-1
1.386851308E1,-2.762774312E-1,-5.790906966E-1,2.353042370E-1,6.834056905E-1
1.387849908E1,-3.941912127E-1,-6.106367174E-1,-1.462254149E-1,7.413809983E-1
1.388848508E1,-3.146223021E-1,-5.458475214E-1,-5.301740599E-1,8.234204536E-1
1.389847108E1,-2.480798185E-2,-4.999802077E-1,-9.089302312E-1,1.037665557E0
1.390845708E1,3.069846690E-1,-4.724800216E-1,-1.287504700E0,1.405398631E0
1.391844308E1,5.607158214E-1,-4.928322789E-1,-1.668521113E0,1.827908256E0
1.392842908E1,7.030662864E-1,-7.328199895E-1,-2.108392382E0,2.340223446E0
1.393841508E1,8.424557215E-1,-9.304487157E-1,-2.489353831E0,2.787893282E0
1.394840108E1,1.173325682E0,-9.548071928E-1,-2.809979469E0,3.191290421E0
1.395838708E1,1.558194094E0,-9.265609020E-1,-2.892339841E0,3.413519253E0
1.396837308E1,1.852963929E0,-9.247263381E-1,-2.791458414E0,3.475749444E0
1.397835908E1,2.098213111E0,-1.032901289E0,-2.505918408E0,3.427682949E0
1.398834508E1,2.256788430E0,-1.344467983E0,-2.089400918E0,3.356528619E0
1.399833108E1,2.320905488E0,-1.936282074E0,-1.781284228E0,3.508384822E0
1.400831708E1,2.487863376E0,-2.570914888E0,-1.425186748E0,3.851003091E0
1.401830308E1,3.043990302E0,-3.217432167E0,-6.342679471E-1,4.474376218E0
1.402828908E1,4.133055267E0,-3.483890369E0,8.086303098E-1,5.465667473E0
1.403827508E1,5.296155923E0,-3.223446613E0,2.489856691E0,6.681262004E0
1.404826108E1,6.190874643E0,-2.966311212E0,3.978036810E0,7.934148215E0
1.405824708E1,6.806878227E0,-3.149369407E0,5.445584443E0,9.268576416E0
1.406823308E1,7.181759595E0,-3.756379974E0,6.873761019E0,1.062716575E1
1.407821908E1,7.154126823E0,-4.280121219E0,7.989239611E0,1.154681418E1
1.408820508E1,6.492958760E0,-4.699398157E0,8.490488665E0,1.167609756E1
1.409819108E1,4.964107749E0,-4.926219546E0,8.286758807E0,1.084344854E1
1.410817708E1,2.758574842E0,-4.909767820E0,7.596289762E0,9.456171178E0
1.411816308E1,2.727743644E-1,-4.856506994E0,6.761099791E0,8.329017734E0
1.412814908E1,-2.129947704E0,-4.891825638E0,6.098854086E0,8.103249747E0
1.413813508E1,-3.964047346E0,-4.837629551E0,5.663966838E0,8.437822668E0
1.414812108E1,-4.984559555E0,-4.224147286E0,5.504544842E0,8.543375689E0
1.415810708E1,-4.949932344E0,-3.281027069E0,5.330795998E0,7.980247791E0
1.416809308E1,-4.255992976E0,-2.428400116E0,5.121769148E0,7.088238325E0
1.417807908E1,-3.301132135E0,-1.857231520E0,4.798181895E0,6.113046032E0
1.418806508E1,-2.582225742E0,-1.556162186E0,4.310073289E0,5.259872840E0
1.419805108E1,-2.113160348E0,-1.397895893E0,3.969965898E0,4.709584781E0
1.420803708E1,-1.766228671E0,-1.428108163E0,3.762237715E0,4.394711511E0
1.421802308E1,-1.698850036E0,-1.619561207E0,3.314046296E0,4.061031002E0
1.422800908E1,-1.872283714E0,-1.819497683E0,2.609432251E0,3.691226734E0
1.423799508E1,-2.189351322E0,-2.115667342E0,1.832881667E0,3.553697049E0
1.424798108E1,-2.745448428E0,-2.454649144E0,1.294130911E0,3.903532286E0
1.425796708E1,-3.068316473E0,-2.581006597E0,1.179633219E0,4.179437231E0
1.426795308E1,-3.401766225E0,-2.802162327E0,1.601786110E0,4.689333204E0
1.427793908E1,-3.728896306E0,-2.996957346E0,2.077574047E0,5.215624116E0
1.428792508E1,-3.513641587E0,-3.308454896E0,2.091810263E0,5.259963990E0
1.429791108E1,-2.973562344E0,-3.615567327E0,1.893704989E0,5.049803827E0
1.430789708E1,-2.087139654E0,-3.797554020E0,1.640139313E0,4.633316893E0
1.431788308E1,-1.086287538E0,-3.955175951E0,1.123713665E0,4.252783772E0
1.432786808E1,-3.349700278E-1,-4.029143813E0,2.589228952E-1,4.051326431E0
1.433785408E1,1.176693678E-2,-3.732031291E0,-7.184984042E-1,3.800583636E0
1.434784008E1,1.474749649E-1,-3.268614600E0,-1.509750497E0,3.603461784E0
1.435782608E1,-6.499998808E-2,-2.633141834E0,-2.044638143E0,3.334397405E0
1.436781208E1,-3.359851044E-1,-2.195444413E0,-2.110848505E0,3.064073036E0
1.437779808E1,-9.033147115E-1,-2.050723194E0,-1.987350633E0,2.995163706E0
1.438778408E1,-1.920721464E0,-2.173662073E0,-1.796571043E0,3.411985531E0
1.439777008E1,-2.915976625E0,-2.834006263E0,-1.698469967E0,4.406734778E0
1.440775608E1,-3.588854907E0,-3.784395154E0,-1.896205989E0,5.549515598E0
1.441774208E1,-3.717764377E0,-3.981670562E0,-2.007728618E0,5.805725332E0
1.442772808E1,-3.239636384E0,-3.493112597E0,-2.111814757E0,5.211222610E0
1.443771408E1,-2.532472953E0,-2.924667049E0,-2.226910912E0,4.463880466E0
1.444770008E1,-1.982642308E0,-2.514015340E0,-2.339374503E0,3.965326811E0
1.445768608E1,-1.823126757E0,-2.223824167E0,-2.441565561E0,3.772323884E0
1.446767208E1,-1.916184025E0,-2.031520207E0,-2.515758687E0,3.758706871E0
1.447765808E1,-1.838208480E0,-1.870552354E0,-2.610482996E0,3.700351064E0
1.448764413E1,-1.570534058E0,-1.629844120E0,-2.639210367E0,3.476837707E0
1.449763012E1,-1.225206857E0,-1.286036318E0,-2.487781515E0,3.056808486E0
1.450761612E1,-1.058109221E0,-9.472867964E-1,-2.067740931E0,2.508485590E0
1.451760213E1,-1.058668799E0,-9.082537814E-1,-1.543196132E0,2.080182410E0
1.452758812E1,-1.222756873E0,-9.052874158E-1,-9.692870915E-1,1.803939340E0
1.453757412E1,-1.421497886E0,-8.545791923E-1,-3.482484698E-1,1.694768076E0
1.454756013E1,-1.610888616E0,-9.409968004E-1,7.550860405E-2,1.867120420E0
1.455754612E1,-1.808339733E0,-9.695238306E-1,4.019164078E-1,2.090838552E0
1.456753212E1,-1.813458386E0,-1.182570130E0,2.854960053E-1,2.183715045E0
1.457751813E1,-1.497794695E0,-1.352850844E0,-1.535630858E-1,2.024148210E0
1.458750412E1,-8.723981434E-1,-1.371501561E0,-8.013519882E-1,1.812252759E0
1.459749012E1,3.579373062E-2,-1.347513944E0,-1.543287933E0,2.049100452E0
1.460747613E1,1.139182620E0,-1.224224524E0,-2.096523265E0,2.681766681E0
1.461746212E1,2.340562073E0,-1.102920235E0,-2.638751360E0,3.695628851E0
1.462744812E1,3.130358355E0,-7.138476750E-1,-3.050963107E0,4.429119304E0
1.463743413E1,3.228346580E0,-4.391653642E-1,-3.235878963E0,4.591949533E0
1.464742012E1,2.753919874E0,-6.093172932E-1,-3.607526236E0,4.579256247E0
1.465740612E1,1.962326158E0,-7.974801081E-1,-3.903115851E0,4.440834586E0
1.466739213E1,1.247420429E0,-8.636463234E-1,-3.693079771E0,3.992590750E0
1.467737812E1,9.146232265E-1,-1.061706428E0,-3.076698457E0,3.380803097E0
1.468736412E1,1.117732109E0,-1.387122398E0,-2.018081113E0,2.691855307E0
1.469735013E1,1.584049897E0,-1.659088385E0,-9.704483485E-1,2.490694349E0
1.470733612E1,2.106489260E0,-2.001734052E0,-4.683485252E-1,2.943397112E0
1.471732212E1,2.524664581E0,-2.143356247E0,-3.609918916E-1,3.331399465E0
1.472730813E1,2.809635653E0,-2.247532872E0,-6.586895011E-1,3.657776424E0
1.473729413E1,3.141586763E0,-2.504830241E0,-1.488156729E0,4.284664792E0
1.474728012E1,3.925266858E0,-2.668839378E0,-2.390771529E0,5.314716552E0
1.475726613E1,4.743282972E0,-2.717906288E0,-3.130395193E0,6.299612846E0
1.476725213E1,5.206903439E0,-2.931620266E0,-3.875068511E0,7.121965794E0
1.477723812E1,5.083527773E0,-3.110254458E0,-4.561837438E0,7.505084825E0
1.478722413E1,4.156450562E0,-3.217353230E0,-4.949828848E0,7.219989522E0
1.479721013E1,2.767715794E0,-3.604713140E0,-4.802622271E0,6.612063839E0
1.480719512E1,1.034841396E0,-4.020839598E0,-4.299837738E0,5.977177625E0
1.481718112E1,-5.045158929E-1,-4.424407990E0,-3.256677509E0,5.516871464E0
1.482716713E1,-1.621736371E0,-4.927999438E0,-2.006593089E0,5.562519496E0
1.483715312E1,-2.363611212E0,-5.420930243E0,-9.274672204E-1,5.986095397E0
1.484713912E1,-2.786195920E0,-5.867632960E0,4.493637854E-1,6.511062284E0
1.485712513E1,-3.028018048E0,-5.960906575E0,2.450148250E0,7.120711126E0
1.486711112E1,-3.012252785E0,-6.160302476E0,4.768248829E0,8.352196736E0
1.487709712E1,-2.834599171E0,-5.961695949E0,7.304671576E0,9.845557266E0
1.488708313E1,-2.512709949E0,-5.234149709E0,9.387919908E0,1.103825505E1
1.489706912E1,-1.745848201E0,-4.705665787E0,1.042373311E1,1.156916109E1
1.490705512E1,-7.303435475E-1,-4.178336690E0,1.066918870E1,1.148144097E1
1.491704113E1,2.477266467E-1,-3.300393924E0,1.083155184E1,1.132592089E1
1.492702712E1,9.029287952E-1,-2.479217098E0,1.137568087E1,1.167766728E1
1.493701312E1,1.013693186E0,-2.232256729E0,1.182662048E1,1.207805845E1
1.494699913E1,1.025400481E0,-2.184054914E0,1.197276111E1,1.221345777E1
1.495698512E1,1.093213565E0,-2.366970730E0,1.152953982E1,1.182065797E1
1.496697112E1,9.988424277E-1,-2.476036505E0,1.026535426E1,1.060688178E1
1.497695713E1,5.729891270E-1,-2.269529513E0,8.522240800E0,8.837854321E0
1.498694312E1,1.735576397E-1,-1.992261855E0,6.581777966E0,6.878882958E0
1.499692912E1,-5.552866817E-2,-1.624141915E0,4.475134925E0,4.761066371E0
1.500691513E1,-2.146062630E-1,-1.296532947E0,2.380808458E0,2.719430537E0
1.501690112E1,-4.966122115E-1,-8.904578537E-1,6.361127436E-1,1.201739697E0
1.502688712E1,-8.470954871E-1,-5.157951719E-1,-7.687550765E-1,1.254830583E0
1.503687313E1,-1.251365545E0,-2.590591353E-1,-1.791869881E0,2.200869154E0
1.504685912E1,-1.689357666E0,-1.455347125E-1,-2.301574008E0,2.858732690E0
1.505684512E1,-1.966805710E0,-2.311040358E-1,-2.383295864E0,3.098682454E0
1.506683113E1,-2.049254374E0,-2.652049975E-1,-2.269513725E0,3.069278372E0
1.507681712E1,-2.040602834E0,-9.584916696E-2,-2.000260554E0,2.859071400E0
1.508680312E1,-2.009144229E0,3.413326755E-2,-1.552781765E0,2.539479636E0
1.509678913E1,-1.984511663E0,4.986900195E-2,-9.951527616E-1,2.220608583E0
1.510677512E1,-1.967263547E0,-8.902458921E-2,-4.340562864E-1,2.016545586E0
1.511676112E1,-1.758559463E0,-3.886411817E-1,-3.806464300E-3,1.800996347E0
1.512674713E1,-1.262229672E0,-5.294728325E-1,2.607641834E-1,1.393399865E0
1.513673312E1,-7.366655570E-1,-4.374375120E-1,3.666420561E-1,9.319088567E-1
1.514671912E1,-2.789209574E-1,-4.617769857E-1,3.660187429E-1,6.519237725E-1
1.515670513E1,1.121770781E-1,-5.406161638E-1,3.696509967E-1,6.644481867E-1
1.516669113E1,3.120606369E-1,-4.995478061E-1,4.167100096E-1,7.215102797E-1
1.517667712E1,2.908451843E-1,-4.836958583E-1,4.996498035E-1,7.537921004E-1
1.518666313E1,2.103266859E-1,-6.940416938E-1,6.809410071E-1,9.947923616E-1
1.519664913E1,1.703545350E-1,-7.719453174E-1,8.737265577E-1,1.178269213E0
1.520663512E1,1.021262991E-1,-6.963292708E-1,9.454800799E-1,1.178658906E0
1.521662113E1,-6.561979294E-2,-5.762137203E-1,9.927987456E-1,1.149772829E0
1.522660713E1,-3.467422271E-1,-5.347405891E-1,9.734263355E-1,1.163501826E0
1.523659312E1,-5.526010555E-1,-7.378782696E-1,8.687811289E-1,1.266733167E0
1.524657912E1,-5.061478508E-1,-8.034163477E-1,7.007344899E-1,1.180123849E0
1.525656513E1,-3.099012601E-1,-5.782410961E-1,3.945373678E-1,7.655464002E-1
1.526655112E1,-1.251146275E-1,-4.145586728E-1,-6.981575489E-4,4.330277712E-1
1.527653712E1,6.720789671E-3,-4.869156276E-1,-3.241964599E-1,5.850088392E-1
1.528652313E1,-2.896242857E-2,-6.045738856E-1,-5.438337404E-1,8.136974515E-1
1.529650912E1,7.975602150E-4,-6.148537293E-1,-6.621065408E-1,9.035656124E-1
1.530649412E1,3.472053266E-1,-6.199650729E-1,-7.446282953E-1,1.029261642E0
1.531648013E1,8.643301553E-1,-7.144571011E-1,-8.293282107E-1,1.394740423E0
1.532646612E1,1.529669037E0,-8.586656651E-1,-9.408666998E-1,1.990583893E0
1.533645212E1,2.157976917E0,-9.346487707E-1,-1.157037751E0,2.620909967E0
1.534643813E1,2.607569329E0,-1.080548788E0,-1.337528507E0,3.123457378E0
1.535642412E1,3.099668074E0,-1.390050829E0,-1.289230360E0,3.633496718E0
1.536641012E1,3.716135343E0,-1.565993841E0,-9.487699427E-1,4.142724104E0
1.537639613E1,4.235369847E0,-1.526563873E0,1.138048699E-1,4.503521572E0
1.538638212E1,4.824758660E0,-1.470708784E0,2.206302400E0,5.505365631E0
1.539636812E1,5.630652326E0,-1.623579706E0,4.450518731E0,7.358489904E0
1.540635413E1,6.548506724E0,-1.829388979E0,6.376412643E0,9.321386299E0
1.541634012E1,7.428717917E0,-2.023900847E0,7.547485977E0,1.078177022E1
1.542632612E1,7.934615507E0,-2.790480759E0,7.401612564E0,1.120396245E1
1.543631213E1,6.947490315E0,-3.385864137E0,6.220967338E0,9.921296904E0
1.544629812E1,5.160020463E0,-3.760121607E0,4.497903982E0,7.809959406E0
1.545628412E1,3.029664624E0,-3.993152447E0,3.020958704E0,5.852377781E0
1.546627013E1,7.563706738E-1,-4.012077545E0,2.035843200E0,4.562183727E0
1.547625612E1,-1.294185290E0,-3.875512900E0,1.490474566E0,4.349256285E0
1.548624212E1,-2.879533269E0,-3.484675942E0,1.360045404E0,4.720635738E0
1.549622796E1,-3.767594934E0,-3.036690053E0,1.505058691E0,5.067687809E0
1.550621396E1,-3.952224861E0,-2.513565981E0,1.975787618E0,5.083486206E0
1.551619996E1,-3.701761717E0,-2.002053603E0,2.750871136E0,5.027777883E0
1.552618596E1,-3.333692356E0,-1.839090533E0,3.362768220E0,5.079760704E0
1.553617196E1,-2.967453173E0,-1.988497418E0,3.862236212E0,5.260871493E0
1.554615796E1,-2.537670543E0,-2.134062097E0,4.393180350E0,5.504000946E0
1.555614396E1,-2.331038713E0,-2.113080241E0,4.653972015E0,5.617677910E0
1.556612996E1,-2.301267030E0,-2.059659787E0,4.464931533E0,5.428963251E0
1.557611596E1,-2.153466375E0,-1.906670020E0,4.096552269E0,5.005451877E0
1.558610196E1,-1.998958379E0,-1.737298987E0,3.402252129E0,4.311538231E0
1.559608796E1,-1.999448376E0,-1.716552481E0,2.430766484E0,3.585104173E0
1.560607396E1,-2.107938200E0,-1.812371389E0,1.697212231E0,3.257088095E0
1.561605996E1,-2.439648405E0,-1.832313902E0,1.188533705E0,3.274426811E0
1.562604596E1,-2.740017534E0,-1.975364279E0,9.455391368E-1,3.507677919E0
1.563603196E1,-2.816444736E0,-2.201781918E0,1.020436780E0,3.717727234E0
1.564601796E1,-2.986057259E0,-2.373867229E0,1.103697038E0,3.971137208E0
1.565600396E1,-3.481422259E0,-2.423628203E0,1.170273435E0,4.400433448E0
1.566598996E1,-3.649004045E0,-2.475405883E0,1.183851839E0,4.565563490E0
1.567597596E1,-3.846085033E0,-2.519876297E0,1.218869644E0,4.756867650E0
1.568596196E1,-3.888056347E0,-2.749202340E0,1.538411209E0,5.004178725E0
1.569594796E1,-3.371151373E0,-3.060989912E0,1.817771877E0,4.902919071E0
1.570593396E1,-2.707530404E0,-3.309415886E0,1.758443103E0,4.623318780E0
1.571591996E1,-2.517207627E0,-3.460836844E0,1.329752149E0,4.481290738E0
1.572590596E1,-2.915243969E0,-3.294000871E0,7.901459455E-1,4.469163205E0
1.573589196E1,-3.463464875E0,-2.914680882E0,-4.636083702E-2,4.526930849E0
1.574587796E1,-3.699664321E0,-2.446797503E0,-1.010220525E0,4.549162518E0
1.575586396E1,-3.689345155E0,-1.861873039E0,-1.760525297E0,4.491913646E0
1.576584996E1,-3.117620780E0,-1.296762451E0,-2.041016816E0,3.945491329E0
1.577583596E1,-1.950597228E0,-9.992447162E-1,-1.929429138E0,2.919934305E0
1.578582196E1,-1.204013039E0,-7.649023461E-1,-1.409027529E0,2.005014109E0
1.579580796E1,-1.374880375E0,-4.383602026E-1,-6.078449643E-1,1.565864366E0
1.580579396E1,-1.977225448E0,-9.148828429E-1,-3.321540087E-1,2.203805203E0
1.581577996E1,-2.119742559E0,-2.230441753E0,-6.331183845E-1,3.141499294E0
1.582576596E1,-1.678767774E0,-2.872078069E0,-9.599075729E-1,3.462443677E0
1.583575196E1,-6.469020259E-1,-2.084488818E0,-1.048791683E0,2.421474728E0
1.584573696E1,4.916555268E-1,-1.130344261E0,-1.290686901E0,1.784734149E0
1.585572296E1,1.223536307E0,-7.432191163E-1,-1.731037788E0,2.246309768E0
1.586570896E1,1.580348609E0,-6.639132573E-1,-2.104381923E0,2.714167610E0
1.587569496E1,1.651986941E0,-9.826528763E-1,-2.534661566E0,3.181065353E0
1.588568096E1,1.863916934E0,-1.440100510E0,-3.148731476E0,3.932249448E0
1.589566696E1,1.935074040E0,-1.544469801E0,-3.657522268E0,4.416714576E0
1.590565296E1,2.159045203E0,-1.448421683E0,-3.904588180E0,4.690971159E0
1.591563896E1,2.542172315E0,-1.313590445E0,-3.969450173E0,4.893331648E0
1.592562496E1,2.688031694E0,-1.270231294E0,-3.713770144E0,4.757214585E0
1.593561096E1,2.393454816E0,-1.370903976E0,-3.295185517E0,4.297237631E0
1.594559696E1,1.649378498E0,-1.460276913E0,-2.583306892E0,3.395045300E0
1.595558296E1,7.210815579E-1,-1.470102428E0,-1.985654794E0,2.573710303E0
1.596556896E1,-4.680222505E-1,-1.404031084E0,-1.890873767E0,2.401197975E0
1.597555496E1,-1.508433119E0,-1.334414280E0,-1.957680106E0,2.808655078E0
1.598554096E1,-2.340419986E0,-1.148632598E0,-1.891484947E0,3.220968466E0
1.599552696E1,-2.492311937E0,-1.140630244E0,-1.722426155E0,3.237191376E0
1.600551296E1,-1.917323062E0,-1.308353825E0,-1.038568411E0,2.542939598E0
1.601549896E1,-1.369572857E0,-1.422515886E0,-3.485805917E-1,2.005190686E0
1.602548496E1,-7.330958319E-1,-1.782614908E0,-2.914690822E-1,1.949384425E0
1.603547096E1,-1.376376092E-2,-1.887071908E0,-3.904864168E-1,1.927098717E0
1.604545696E1,5.569016826E-1,-1.785207564E0,-5.036920202E-1,1.936701108E0
1.605544296E1,9.711757421E-1,-1.844504470E0,-7.004946810E-1,2.199107060E0
1.606542896E1,1.182613399E0,-2.148843859E0,-1.014713525E0,2.654382775E0
1.607541496E1,1.600622075E0,-2.538760464E0,-1.379604340E0,3.303120321E0
1.608540096E1,2.614571954E0,-2.415421636E0,-1.039706864E0,3.708266245E0
1.609538696E1,3.443916464E0,-2.194117972E0,-2.101161131E-1,4.088870635E0
1.610537296E1,3.964121021E0,-2.222438961E0,3.654339483E-1,4.559279809E0
1.611535896E1,4.177095911E0,-2.236371999E0,6.598781669E-1,4.783819516E0
1.612534496E1,3.899950753E0,-2.474384374E0,2.910053980E-1,4.627837297E0
1.613533096E1,3.581825969E0,-2.550080674E0,-3.727348548E-1,4.412631866E0
1.614531696E1,3.227488208E0,-2.579434573E0,-1.140036898E0,4.286005948E0
1.615530296E1,2.820528431E0,-2.643170978E0,-1.994893979E0,4.349866140E0
1.616528896E1,2.608167499E0,-2.753878651E0,-2.581670841E0,4.588181520E0
1.617527496E1,2.823544425E0,-2.989160376E0,-2.252851499E0,4.688584301E0
1.618526096E1,3.064114079E0,-3.272044576E0,-1.075559651E0,4.609978239E0
1.619524696E1,3.315626214E0,-3.567819548E0,8.713327807E-1,4.947922224E0
1.620523296E1,3.378300179E0,-3.995444263E0,2.699729633E0,5.887701339E0
1.621521896E1,2.658672824E0,-4.565998902E0,3.875022318E0,6.552303803E0
1.622520496E1,1.484575310E0,-4.870235087E0,4.717997857E0,6.941372878E0
1.623519096E1,3.449202347E-1,-4.802248341E0,5.221528494E0,7.102458653E0
1.624517696E1,-4.732613558E-1,-4.793538329E0,5.474425249E0,7.291866553E0
1.625516296E1,-1.280319788E0,-4.627979972E0,5.820024930E0,7.545204276E0
1.626514896E1,-2.148798543E0,-4.134550400E0,6.408793938E0,7.923665940E0
1.627513496E1,-2.811420223E0,-3.514787641E0,6.986963114E0,8.311165344E0
1.628512096E1,-3.310057910E0,-2.845085860E0,7.504930526E0,8.681876474E0
1.629510696E1,-3.427253069E0,-2.295657649E0,7.841654134E0,8.860454119E0
1.630509296E1,-3.017241045E0,-1.970386983E0,7.868022738E0,8.654013530E0
1.631507896E1,-2.257937407E0,-1.586866062E0,7.645620382E0,8.128464569E0
1.632506496E1,-1.377958349E0,-1.240025163E0,7.195238596E0,7.430201213E0
1.633505096E1,-5.234608716E-1,-1.090748890E0,6.432076381E0,6.544872115E0
1.634503696E1,2.110991031E-1,-8.918483216E-1,5.580865624E0,5.655618213E0
