"Time (s)","Linear Acceleration x (m/s^2)","Linear Acceleration y (m/s^2)","Linear Acceleration z (m/s^2)","Absolute acceleration (m/s^2)"
4.831166647E-3,3.206461036E-1,-2.994889953E-2,-7.803530288E-1,8.441929340E-1
1.481716667E-2,3.424913013E-1,1.146067972E-2,-1.118592235E0,1.169906076E0
2.480316663E-2,3.170196605E-1,1.357024367E-1,-1.337756402E0,1.381487897E0
3.478816664E-2,7.155185169E-1,5.342860412E-2,-8.527667016E-1,1.114465078E0
4.477416666E-2,9.869164467E-2,2.944765611E-2,1.270290059E-1,1.635346248E-1
5.476016668E-2,-1.701452047E-1,-2.958290951E-2,6.950936079E-1,7.162259860E-1
6.474616664E-2,2.689771825E-1,-2.468957573E-1,1.845368688E0,1.881141099E0
7.473216666E-2,-1.932475537E-1,-2.007488736E-1,1.695499581E0,1.718244324E0
8.471816668E-2,-1.972920728E-1,-3.568751229E-2,1.699592047E0,1.711376898E0
9.470416664E-2,1.661275828E-1,4.241076875E-3,1.833462296E0,1.840978096E0
1.046891666E-1,4.578849328E-1,-3.880820783E-2,1.887230367E0,1.942370497E0
1.146751667E-1,6.039284992E-1,-1.573496147E-1,1.838818930E0,1.941840259E0
1.246611666E-1,7.342494875E-1,-2.378888160E-1,1.670500395E0,1.840186124E0
1.346471666E-1,7.128632963E-1,-2.513749438E-1,1.287984318E0,1.493407863E0
1.446331667E-1,4.518090910E-1,-4.715044867E-1,8.734754929E-1,1.090599547E0
1.546191666E-1,-1.663725811E-1,-3.673246820E-1,1.711485869E-1,4.380628911E-1
1.646051666E-1,-5.119968206E-1,-1.053089021E-1,-3.531940448E-1,6.308539787E-1
1.745911667E-1,-3.383666754E-1,4.756795357E-2,-5.282742995E-1,6.291489909E-1
1.845761667E-1,-1.448016179E-1,1.413098434E-1,-5.585330558E-1,5.940497915E-1
1.945621666E-1,-2.739420533E-3,1.816251162E-1,-5.451745069E-1,5.746393915E-1
2.045481667E-1,4.134098411E-2,2.048337750E-1,-4.255065608E-1,4.740482946E-1
2.145341667E-1,2.679778934E-2,2.332727864E-1,-2.976223996E-1,3.790955119E-1
2.245201666E-1,-2.582539737E-2,1.170696901E-1,-1.698814952E-1,2.079230288E-1
2.345061667E-1,-3.005731970E-1,-4.231710367E-2,-1.426545203E-1,3.353882767E-1
2.444921667E-1,-4.138413656E-1,-6.858355469E-2,-3.060058451E-1,5.192378617E-1
2.544771666E-1,-2.211428654E-1,3.448719769E-2,-4.955828092E-1,5.437792332E-1
2.644631666E-1,1.202725482E-1,1.602921529E-1,-5.749938449E-1,6.089145932E-1
2.744491667E-1,1.986527199E-1,1.946442708E-1,-5.560605606E-1,6.217335783E-1
2.844351666E-1,1.108444977E-1,4.470947368E-2,-4.581579977E-1,4.734914895E-1
2.944211666E-1,3.260115087E-2,-1.910306915E-1,-3.035020673E-1,3.600959109E-1
3.044071667E-1,7.602549791E-2,-2.557901032E-1,-3.405710757E-1,4.326628142E-1
3.143931666E-1,2.580750489E-1,-1.969759577E-1,-5.262678275E-1,6.183527189E-1
3.243781666E-1,3.805788946E-1,-9.084411481E-2,-6.891528368E-1,7.924800191E-1
3.343641667E-1,3.524327374E-1,-5.749939911E-2,-8.285533816E-1,9.022281980E-1
3.443501667E-1,2.466378951E-1,-1.328037709E-1,-7.179173371E-1,7.706311672E-1
3.543361666E-1,8.881452799E-2,-2.271367000E-1,-4.853551519E-1,5.431838771E-1
3.643221667E-1,3.652170897E-2,-3.076687932E-1,-2.834309149E-1,4.199130923E-1
3.743081667E-1,1.156596798E-1,-3.990285411E-1,-2.334120780E-1,4.765313592E-1
3.842941666E-1,3.023636144E-1,-4.014549163E-1,-3.667666018E-1,6.221796729E-1
3.942801667E-1,4.240295541E-1,-2.964880763E-1,-4.811059803E-1,7.065190772E-1
4.042651667E-1,4.695746863E-1,-2.866323020E-1,-6.516856331E-1,8.528497094E-1
4.142511666E-1,5.162185103E-1,-1.644998641E-1,-7.391816139E-1,9.164776124E-1
4.242371666E-1,5.359335673E-1,-1.734503799E-1,-6.923843005E-1,8.925838014E-1
4.342231667E-1,5.610853654E-1,-1.764752907E-1,-4.884740567E-1,7.645699573E-1
4.442091666E-1,4.894078571E-1,-1.872478902E-1,-2.063891709E-1,5.631858599E-1
4.541951666E-1,3.562129623E-1,-2.970401997E-1,1.611615425E-1,4.910128282E-1
4.641811667E-1,2.654097962E-1,-3.196411500E-1,5.666706258E-1,7.026581123E-1
4.741661667E-1,2.061640531E-1,-3.520912965E-1,9.217948365E-1,1.008056357E0
4.841521666E-1,3.309991837E-1,-4.244379091E-1,1.149154462E0,1.268961770E0
4.941381667E-1,6.341398931E-1,-3.992644031E-1,1.369430770E0,1.561052882E0
5.041241667E-1,9.088116789E-1,-3.717528880E-1,1.421153485E0,1.727372602E0
5.141101666E-1,1.099610419E0,-2.620894914E-1,1.461533772E0,1.847678257E0
5.240961667E-1,1.081816172E0,-1.504403072E-1,1.685220761E0,2.008215010E0
5.340821667E-1,8.227166909E-1,-2.115453918E-1,1.874546587E0,2.058042544E0
5.440671666E-1,6.019112098E-1,-3.094038448E-1,2.011109478E0,2.121930530E0
5.540531666E-1,5.345933855E-1,-3.715236041E-1,1.997719354E0,2.101119343E0
5.640391667E-1,3.757619584E-1,-3.010734263E-1,1.941196659E0,2.000021682E0
5.740251666E-1,2.346230364E-1,-2.321528436E-1,1.931390586E0,1.959390851E0
5.840111666E-1,2.251938164E-1,-2.206329882E-1,1.953701222E0,1.978974390E0
5.939971667E-1,6.605003107E-1,-3.290430707E-1,2.136859405E0,2.260685321E0
6.039831666E-1,1.421360477E0,-4.411946404E-1,2.435227910E0,2.853989013E0
6.139681666E-1,1.971239653E0,-3.373061366E-1,2.587829129E0,3.270538304E0
6.239541667E-1,2.233624685E0,-2.086164484E-1,2.913159437E0,3.676832599E0
6.339401667E-1,2.231772287E0,-3.198973677E-1,3.355931071E0,4.042946354E0
6.439261666E-1,1.888162998E0,-5.247783954E-1,3.743694440E0,4.225612373E0
6.539121667E-1,1.378267667E0,-8.413962060E-1,4.232956409E0,4.530506516E0
6.638981667E-1,1.119684495E0,-1.260705157E0,4.981496783E0,5.259123602E0
6.738841666E-1,1.175666322E0,-1.813083872E0,5.533855180E0,5.940792672E0
6.838691666E-1,1.559809095E0,-2.362033926E0,5.806565225E0,6.459752966E0
6.938551667E-1,1.768402081E0,-2.642587426E0,5.761125927E0,6.580356082E0
7.038411666E-1,1.401885155E0,-2.739930703E0,5.182210647E0,6.027255547E0
7.138271666E-1,6.662130404E-1,-2.977912087E0,4.279643502E0,5.256153415E0
7.238131667E-1,-3.739925909E-1,-3.172548355E0,2.990658725E0,4.375953968E0
7.337991666E-1,-1.522833057E0,-3.231279835E0,1.479024256E0,3.866225891E0
7.437851666E-1,-2.207229184E0,-3.045393634E0,3.576101544E-1,3.778117002E0
7.537701667E-1,-2.737045979E0,-2.622411024E0,-2.652826193E-1,3.799846725E0
7.637561667E-1,-3.453532210E0,-2.372652177E0,-5.831574351E-1,4.230417908E0
7.737421666E-1,-4.066646685E0,-2.349908262E0,-6.598825523E-1,4.742903023E0
7.837281667E-1,-4.162322336E0,-2.292720739E0,-7.576795730E-1,4.812023893E0
7.937141667E-1,-3.791310071E0,-2.028240066E0,-7.443680942E-1,4.363699540E0
8.037001666E-1,-3.421683011E0,-1.865426685E0,-6.534797050E-1,3.951552488E0
8.136861667E-1,-3.418215027E0,-1.783862704E0,-5.922494169E-1,3.900912649E0
8.236721667E-1,-3.657004205E0,-1.912602021E0,-6.477495798E-1,4.177476004E0
8.336571666E-1,-3.827792603E0,-2.262359657E0,-1.195166932E0,4.604203669E0
8.436431666E-1,-3.581237739E0,-2.424884185E0,-1.911131446E0,4.728398297E0
8.536291667E-1,-3.043034867E0,-2.294787730E0,-2.534706005E0,4.577209462E0
8.636151666E-1,-2.307425902E0,-2.008592252E0,-2.833139706E0,4.169572846E0
8.736011666E-1,-1.909159180E0,-1.693970534E0,-2.947214205E0,3.898781414E0
8.835871667E-1,-1.967745942E0,-1.538533416E0,-3.003438107E0,3.906372950E0
8.935731666E-1,-2.083683364E0,-1.515356222E0,-2.797718443E0,3.803323458E0
9.035581666E-1,-2.295930276E0,-1.707318558E0,-2.084337083E0,3.539871970E0
9.135441667E-1,-2.769572285E0,-2.107593799E0,-1.377755451E0,3.743085939E0
9.235301667E-1,-3.090793755E0,-2.489558776E0,-8.733470734E-1,4.063698321E0
9.335161666E-1,-3.081919436E0,-2.861660085E0,-8.494664600E-1,4.290561632E0
9.435021667E-1,-2.817741648E0,-2.775389680E0,-1.160466485E0,4.121788245E0
9.534881667E-1,-2.503446790E0,-2.382570224E0,-1.445224718E0,3.746006032E0
9.634741666E-1,-2.261301311E0,-2.127464099E0,-1.863546805E0,3.621103948E0
9.734591666E-1,-2.191236464E0,-2.016188077E0,-2.126468611E0,3.659016310E0
9.834451667E-1,-2.090671372E0,-2.106122054E0,-2.427806624E0,3.834175517E0
9.934311666E-1,-1.770688927E0,-2.058489759E0,-2.776826926E0,3.883746534E0
1.003417167E0,-1.361732910E0,-1.934622050E0,-3.121349550E0,3.916618696E0
1.013403167E0,-1.051597177E0,-1.710267017E0,-3.264428578E0,3.832409664E0
1.023389167E0,-1.036147079E0,-1.650118902E0,-3.239513592E0,3.780336159E0
1.033375167E0,-1.490671617E0,-1.745629661E0,-3.026957363E0,3.798920328E0
1.043360167E0,-2.125904939E0,-2.068250223E0,-2.810429120E0,4.086030180E0
1.053346167E0,-2.820871078E0,-2.474820576E0,-2.853319032E0,4.714178615E0
1.063332167E0,-3.355469726E0,-2.882146974E0,-2.928104335E0,5.304690685E0
1.073318167E0,-3.433417203E0,-3.316088728E0,-3.127091516E0,5.706443682E0
1.083304167E0,-3.300001869E0,-3.763006039E0,-3.529153665E0,6.124145032E0
1.093290167E0,-2.686027268E0,-4.117926182E0,-4.125997093E0,6.418404049E0
1.103276167E0,-1.363582969E0,-3.728311000E0,-4.829526479E0,6.251718759E0
1.113261167E0,6.462868989E-2,-3.151989252E0,-5.392970611E0,6.246866825E0
1.123247167E0,1.375838733E0,-2.676430525E0,-5.758781778E0,6.497674980E0
1.133233167E0,2.248401768E0,-2.173374244E0,-5.806491550E0,6.595014043E0
1.143219167E0,2.367237656E0,-2.244032290E0,-5.698566567E0,6.566060916E0
1.153205167E0,2.477545964E0,-2.902979726E0,-5.317618128E0,6.545424956E0
1.163191167E0,2.642681274E0,-3.334517398E0,-4.513036577E0,6.202440627E0
1.173177167E0,2.981822705E0,-3.800777882E0,-3.507086273E0,5.969659394E0
1.183162167E0,3.589722049E0,-4.002816432E0,-2.228528983E0,5.820222092E0
1.193148167E0,4.309605512E0,-4.306005089E0,-1.201468184E0,6.209501211E0
1.203134167E0,5.028689076E0,-4.408621092E0,-3.959026927E-1,6.699282999E0
1.213120167E0,5.243856672E0,-4.236333760E0,1.164911538E-1,6.742264213E0
1.223106167E0,4.990154756E0,-4.117965650E0,1.623741089E-1,6.471912463E0
1.233092167E0,4.259331737E0,-4.142076352E0,-1.959290868E-1,5.944500951E0
1.243078167E0,4.204353291E0,-4.513174571E0,-4.775725079E-1,6.186550477E0
1.253063167E0,4.810255226E0,-4.637430827E0,1.631056686E-1,6.683631010E0
1.263049167E0,5.120790324E0,-4.386116329E0,8.987368532E-1,6.802076001E0
1.273035167E0,5.167009056E0,-4.374848744E0,1.361496829E0,6.905864010E0
1.283021167E0,5.073004539E0,-4.350841246E0,1.570487280E0,6.865247621E0
1.293007167E0,5.137923251E0,-4.206498050E0,1.699382132E0,6.854252753E0
1.302993167E0,4.958310235E0,-3.929456680E0,1.929305177E0,6.614203554E0
1.312979167E0,4.213721700E0,-3.774850451E0,1.901969444E0,5.968453255E0
1.322965167E0,3.476795357E0,-3.908225148E0,2.037503225E0,5.613710818E0
1.332950167E0,2.943476665E0,-4.061899331E0,2.672025526E0,5.683555354E0
1.342936167E0,2.379419745E0,-3.971634108E0,4.050669168E0,6.151701921E0
1.352922167E0,1.607249309E0,-3.901852852E0,5.818344440E0,7.187547429E0
1.362908167E0,5.778458244E-1,-4.022203168E0,7.546546329E0,8.571020104E0
1.372894167E0,-6.231477123E-1,-4.111799177E0,8.814465927E0,9.746282118E0
1.382880167E0,-1.805431328E0,-3.951286967E0,8.996535358E0,9.990490450E0
1.392865167E0,-2.681355928E0,-3.797352583E0,8.614695804E0,9.788898817E0
1.402851167E0,-3.164554042E0,-3.404360050E0,8.055262277E0,9.300070967E0
1.412837167E0,-3.312682725E0,-2.564154922E0,7.098125700E0,8.242095956E0
1.422823167E0,-2.824832566E0,-1.542108257E0,6.039348142E0,6.843354652E0
1.432809167E0,-2.331365572E0,-5.798056649E-1,5.254781610E0,5.777903582E0
1.442795167E0,-2.171629581E0,3.267956203E-1,4.555338843E0,5.057062624E0
1.452781167E0,-2.214421259E0,7.451294748E-1,4.002800353E0,4.634791269E0
1.462767167E0,-2.455270411E0,7.136328629E-1,3.429149905E0,4.277463469E0
1.472752167E0,-2.556032555E0,4.730268824E-1,2.744805819E0,3.780345994E0
1.482738167E0,-2.388024507E0,1.997164015E-1,2.167152368E0,3.230959157E0
1.492724167E0,-1.866072802E0,2.317123655E-1,1.899117172E0,2.672557643E0
1.502710167E0,-1.425227240E0,4.700982314E-1,1.560925913E0,2.165353260E0
1.512696167E0,-1.083294348E0,6.976154389E-1,1.010698242E0,1.637591183E0
1.522682167E0,-7.416584945E-1,8.978724886E-1,5.823686457E-1,1.302069725E0
1.532668167E0,-6.202317059E-1,9.336586178E-1,3.590441841E-1,1.176995544E0
1.542653167E0,-7.993284130E-1,6.900368627E-1,3.070893341E-1,1.099718438E0
1.552639167E0,-1.014428181E0,3.311065532E-1,2.517664880E-1,1.096395206E0
1.562625167E0,-1.226430094E0,1.462088965E-1,2.905791543E-1,1.268835711E0
1.572611167E0,-1.391466002E0,-1.154678911E-1,2.647379329E-1,1.421125132E0
1.582597167E0,-1.358965423E0,-2.608860978E-1,1.108117350E-1,1.388210293E0
1.592583542E0,-9.987827861E-1,-2.891632327E-1,-8.791465977E-2,1.043509184E0
1.602569542E0,-6.295936829E-1,-2.438258229E-1,-3.530209672E-1,7.618812511E-1
1.612554542E0,-2.918491513E-1,-1.023415498E-1,-5.764348912E-1,6.541612215E-1
1.622540542E0,1.845264316E-2,-1.254147358E-2,-7.830076647E-1,7.833254697E-1
1.632526542E0,1.537759244E-1,2.878079943E-2,-8.840265012E-1,8.977628997E-1
1.642512542E0,1.764993739E-1,-4.223443866E-3,-9.048946291E-1,9.219566998E-1
1.652498542E0,1.519340515E-1,-1.364734286E-1,-8.951525100E-1,9.181541096E-1
1.662484542E0,2.370636642E-2,-1.741154641E-1,-8.472235411E-1,8.652548268E-1
1.672470542E0,-3.165980762E-1,-1.611165190E-1,-8.297250905E-1,9.025722134E-1
1.682455542E0,-8.238089508E-1,-2.460657451E-1,-9.442076527E-1,1.277003379E0
1.692441542E0,-1.370835856E0,-5.005261914E-1,-1.410396947E0,2.029516435E0
1.702427542E0,-1.825386121E0,-7.055693333E-1,-2.252151003E0,2.983629789E0
1.712413542E0,-1.769166897E0,-8.078951687E-1,-3.430233395E0,3.943240704E0
1.722399542E0,-5.025360256E-1,-8.657321714E-1,-4.548561920E0,4.657408098E0
1.732385542E0,1.389494905E0,-5.670102029E-1,-5.138647136E0,5.353306553E0
1.742371542E0,3.232170074E0,1.231558102E-1,-5.342866990E0,6.245663969E0
1.752356542E0,4.232087220E0,4.339120795E-1,-5.203581635E0,6.721317115E0
1.762342542E0,3.921274964E0,-1.017269343E-3,-4.923712260E0,6.294389628E0
1.772328542E0,3.184067954E0,-9.067378177E-1,-4.501894415E0,5.588158510E0
1.782314542E0,2.563627503E0,-1.605921114E0,-3.957924434E0,4.981599585E0
1.792300542E0,2.384786904E0,-2.120406948E0,-3.342393305E0,4.621139168E0
1.802286542E0,2.305964683E0,-2.261264181E0,-2.684046524E0,4.199392165E0
1.812272542E0,2.373616383E0,-2.280296137E0,-1.824349995E0,3.763251003E0
1.822257542E0,2.965971488E0,-2.566024861E0,-6.759698506E-1,3.979749452E0
1.832243542E0,3.895575866E0,-2.876540956E0,7.338839635E-1,4.897814295E0
1.842229542E0,4.894746323E0,-3.087583341E0,2.139334824E0,6.169964825E0
1.852215542E0,5.808825173E0,-3.290439624E0,3.481145686E0,7.529131298E0
1.862201542E0,6.242131920E0,-3.206569794E0,4.630411245E0,8.407556663E0
1.872187542E0,6.382331194E0,-3.078848186E0,5.608106632E0,9.036831172E0
1.882173542E0,6.223412644E0,-3.016593173E0,6.533118607E0,9.513797246E0
1.892158542E0,5.679291805E0,-3.089402118E0,7.060340992E0,9.573253145E0
1.902144542E0,4.952642528E0,-3.359690538E0,7.172591161E0,9.341426684E0
1.912130542E0,4.185131739E0,-3.803222018E0,7.072424848E0,9.055330951E0
1.922116542E0,3.404336661E0,-4.269436895E0,6.664981506E0,8.616239201E0
1.932102542E0,2.449163579E0,-4.323012008E0,5.910199521E0,7.721223571E0
1.942088542E0,1.301951562E0,-4.226417760E0,4.937736222E0,6.628644201E0
1.952074542E0,3.451734191E-1,-4.057482636E0,4.257913202E0,5.891700507E0
1.962059542E0,-3.547271848E-1,-3.495291270E0,4.190839791E0,5.468640653E0
1.972045542E0,-6.819730407E-1,-3.122892630E0,4.301342812E0,5.359020021E0
1.982031542E0,-9.843196982E-1,-2.791830589E0,4.477688988E0,5.367765083E0
1.992017542E0,-1.376082562E0,-2.483920890E0,4.658277905E0,5.455549399E0
2.002003542E0,-1.739588172E0,-2.248352359E0,4.227147492E0,5.094117319E0
2.011989542E0,-2.147965314E0,-2.077187108E0,3.195202807E0,4.374675102E0
2.021975542E0,-2.281757795E0,-2.220657315E0,2.314056498E0,3.936063391E0
2.031960542E0,-2.336660811E0,-2.373024645E0,1.856985790E0,3.813086143E0
2.041946542E0,-2.536303464E0,-2.433376389E0,1.728385345E0,3.916819094E0
2.051932542E0,-2.776391893E0,-2.586541572E0,1.544230943E0,4.096730214E0
2.061918542E0,-2.885458252E0,-2.649892353E0,9.133970654E-1,4.022697230E0
2.071904542E0,-3.048926522E0,-2.245325548E0,3.088066614E-1,3.799052685E0
2.081890542E0,-3.117574587E0,-1.362668172E0,-5.613085829E-2,3.402835072E0
2.091876542E0,-3.017080831E0,-5.931362933E-1,-2.220806126E-1,3.082840768E0
2.101861542E0,-3.049062762E0,-2.770820081E-2,-1.291193124E-1,3.051921242E0
2.111847542E0,-2.945851219E0,-3.794831264E-1,2.633199648E-1,2.981842426E0
2.121833542E0,-2.972678245E0,-1.403968518E0,4.963911867E-1,3.324807928E0
2.131819542E0,-2.964553539E0,-2.361683385E0,2.279303133E-1,3.797114473E0
2.141805542E0,-2.590706543E0,-3.116696336E0,-3.880856414E-2,4.053031279E0
2.151791542E0,-1.525352038E0,-3.756104570E0,-1.601827186E-1,4.057176220E0
2.161777542E0,-8.070911765E-1,-3.948907735E0,-4.200259656E-1,4.052368478E0
2.171762542E0,-4.711622053E-1,-3.774558967E0,-7.060945594E-1,3.868831703E0
2.181748542E0,-9.222731388E-1,-3.112861732E0,-1.039244349E0,3.408889074E0
2.191734542E0,-2.242318910E0,-2.424012365E0,-1.589115340E0,3.664576047E0
2.201720542E0,-3.252340044E0,-2.174300004E0,-1.824403204E0,4.316681981E0
2.211706542E0,-3.832168660E0,-2.178266171E0,-1.855425022E0,4.782568573E0
2.221692542E0,-4.055910612E0,-2.616897392E0,-2.113165610E0,5.269158543E0
2.231678542E0,-3.754350405E0,-2.828206117E0,-2.256079162E0,5.213807629E0
2.241663542E0,-3.489659817E0,-2.663399128E0,-2.520207834E0,5.061903602E0
2.251649542E0,-3.225079156E0,-2.889744262E0,-3.480021266E0,5.555385268E0
2.261635542E0,-2.731433821E0,-2.783070290E0,-4.450102410E0,5.916892970E0
2.271621542E0,-1.782680397E0,-2.026554898E0,-4.599759555E0,5.333166238E0
2.281607542E0,-8.549570686E-1,-1.352529393E0,-4.178729623E0,4.474602620E0
2.291593542E0,-4.642730159E-1,-1.482727590E0,-3.588224577E0,3.910164466E0
2.301579542E0,-3.280966258E-1,-1.717606442E0,-2.729018337E0,3.241197366E0
2.311564542E0,-2.700109702E-1,-1.728759713E0,-1.949105603E0,2.619261102E0
2.321550542E0,-9.715558112E-2,-1.773491498E0,-1.569801986E0,2.370440798E0
2.331536542E0,2.020908827E-1,-1.610024983E0,-1.613286560E0,2.288168414E0
2.341522542E0,4.077509058E-1,-1.171396393E0,-1.715797021E0,2.117165494E0
2.351508542E0,2.003180069E-1,-8.501358931E-1,-1.763637770E0,1.968064156E0
2.361494542E0,-4.578925341E-1,-9.998874713E-1,-1.905091857E0,2.199730781E0
2.371480542E0,-1.127876444E0,-1.488555509E0,-2.278206781E0,2.945866411E0
2.381465542E0,-1.441099507E0,-1.641751829E0,-2.732514387E0,3.498392735E0
2.391451542E0,-1.223295987E0,-1.667242619E0,-3.268421642E0,3.867651878E0
2.401437542E0,-6.460916018E-1,-1.254712345E0,-3.943493798E0,4.188422229E0
2.411423542E0,-2.805166626E-1,-4.638513951E-1,-4.685035349E0,4.716291332E0
2.421409542E0,-2.375226706E-1,7.980532084E-2,-5.013015030E0,5.019273414E0
2.431395542E0,-4.225408530E-1,-1.261807211E-2,-4.685269822E0,4.704301573E0
2.441381542E0,-7.518811816E-1,-3.704995374E-1,-3.952640598E0,4.040539929E0
2.451366542E0,-6.068614626E-1,-8.942013873E-1,-3.134358435E0,3.315430554E0
2.461352542E0,1.021859407E-1,-1.284582408E0,-2.081155613E0,2.447815887E0
2.471338542E0,1.005190165E0,-1.445610488E0,-1.089858506E0,2.070745883E0
2.481324542E0,1.469833310E0,-1.617821660E0,-5.921253097E-1,2.264590308E0
2.491310542E0,1.657034258E0,-2.058083962E0,-6.443801218E-1,2.719687090E0
2.501296542E0,2.133467728E0,-2.389536012E0,-1.134548117E0,3.398347588E0
2.511282542E0,2.857865242E0,-2.249635823E0,-1.841136766E0,4.076522988E0
2.521267542E0,3.305257346E0,-2.114765993E0,-2.200898404E0,4.498990455E0
2.531253542E0,3.781776770E0,-2.395608346E0,-2.241769856E0,5.006626307E0
2.541239542E0,4.910592862E0,-2.660392198E0,-1.967461767E0,5.921360883E0
2.551225542E0,6.075668122E0,-2.631944616E0,-1.631728093E0,6.819341036E0
2.561211542E0,6.808345878E0,-2.776960242E0,-1.565525333E0,7.517709182E0
2.571197542E0,7.227390096E0,-3.044770028E0,-1.645670779E0,8.013365363E0
2.581183542E0,7.500602417E0,-3.275900230E0,-1.878598123E0,8.397600243E0
2.591167667E0,6.781701871E0,-3.292838445E0,-2.294364392E0,7.880252105E0
2.601153667E0,5.149704806E0,-3.664857600E0,-2.539263325E0,6.811644372E0
2.611139667E0,3.702040629E0,-4.101149350E0,-1.927691345E0,5.851540373E0
2.621125667E0,2.434763641E0,-4.585633852E0,-8.499348950E-1,5.261036128E0
2.631111667E0,1.183338454E0,-5.024072700E0,1.532321334E-1,5.163823823E0
2.641097667E0,-4.914584756E-3,-5.326938005E0,1.192577055E0,5.458803229E0
2.651083667E0,-7.834052753E-1,-5.220229243E0,2.757122394E0,5.955353984E0
2.661068667E0,-9.533662927E-1,-4.963098519E0,4.906645406E0,7.043892627E0
2.671054667E0,-3.857069027E-1,-4.530057237E0,6.806388230E0,8.185176182E0
2.681040667E0,5.708051920E-2,-3.858606260E0,7.891198761E0,8.784254001E0
2.691026667E0,1.414096481E-1,-3.385664163E0,8.626868538E0,9.268526273E0
2.701012667E0,-1.105439508E-1,-2.743831380E0,9.538917235E0,9.926317173E0
2.710998667E0,-6.674444640E-1,-2.240817345E0,1.009540727E1,1.036262479E1
2.720984667E0,-1.105679244E0,-2.255664887E0,9.748408939E0,1.006687774E1
2.730969667E0,-1.332305043E0,-2.090876901E0,8.540887570E0,8.893456214E0
2.740955667E0,-1.569008519E0,-1.380871432E0,7.002351816E0,7.307634679E0
2.750941667E0,-1.844550371E0,-7.302759390E-1,5.316111885E0,5.674214888E0
2.760927667E0,-1.919537988E0,-1.205714780E-1,3.445650748E0,3.946095874E0
2.770913667E0,-1.726047190E0,2.801388594E-1,1.738820432E0,2.466011593E0
2.780899667E0,-1.428417481E0,7.495928738E-1,6.510371768E-1,1.739573333E0
2.790885667E0,-1.381235129E0,1.224038583E0,1.982268233E-2,1.845663532E0
2.800870667E0,-1.780403491E0,1.563181622E0,-1.165770348E-1,2.372122168E0
2.810856667E0,-2.449884540E0,1.269405960E0,3.386303848E-1,2.779927389E0
2.820842667E0,-2.845614740E0,4.359499438E-1,9.080895478E-1,3.018642448E0
2.830828667E0,-2.826662745E0,1.689655289E-2,1.332636580E0,3.125096482E0
2.840814667E0,-2.443924474E0,-3.446986618E-2,1.367350915E0,2.800643413E0
2.850800667E0,-1.739636119E0,1.060449021E-1,1.197591627E0,2.114664288E0
2.860786667E0,-1.003683338E0,1.060548423E-1,1.007169448E0,1.425839461E0
2.870771667E0,-4.415554136E-1,3.580725230E-2,8.508668681E-1,9.592850306E-1
2.880757667E0,-2.830169320E-2,-9.023767632E-2,5.389208367E-1,5.471558208E-1
2.890743667E0,2.441347021E-1,-9.499614956E-2,2.312456115E-1,3.494288970E-1
2.900729667E0,2.219018340E-1,1.897521978E-3,3.494646907E-2,2.246447868E-1
2.910715667E0,-1.773285091E-2,-3.736992069E-3,-1.130225855E-1,1.144662568E-1
2.920701667E0,-3.674396163E-1,-5.052613763E-2,-1.351379246E-1,3.947493140E-1
2.930687667E0,-7.291729349E-1,-1.297259062E-1,-1.099007571E-1,7.487323661E-1
2.940672667E0,-1.067967042E0,-1.661385463E-1,2.672119081E-2,1.081142748E0
2.950658667E0,-1.362031118E0,-2.422176924E-1,5.475113466E-2,1.384483970E0
2.960644667E0,-1.344224008E0,-3.991102194E-1,-2.253600235E-1,1.420216283E0
2.970630667E0,-9.392499447E-1,-4.221208037E-1,-6.332623722E-1,1.208882816E0
2.980616667E0,-2.544801807E-1,-3.585612041E-1,-1.124752277E0,1.207639840E0
2.990602667E0,4.182285315E-1,-7.138167579E-2,-1.541652905E0,1.598969709E0
3.000588667E0,9.142899352E-1,2.852897082E-1,-1.634729469E0,1.894638947E0
3.010573667E0,9.811972851E-1,3.032055769E-1,-1.523979111E0,1.837714359E0
3.020559667E0,6.093354195E-1,1.889275577E-1,-1.222893406E0,1.379293862E0
3.030545667E0,-7.737854362E-2,1.287961806E-1,-8.853685834E-1,8.980275183E-1
3.040531667E0,-6.715480399E-1,2.556059159E-2,-5.181960386E-1,8.486207917E-1
3.050517667E0,-9.713266003E-1,-1.634442590E-1,-1.450501245E-1,9.956048056E-1
3.060503667E0,-7.179445267E-1,-5.802396744E-1,-2.723975113E-1,9.624566626E-1
3.070489667E0,2.613939285E-1,-7.246778148E-1,-9.147164896E-1,1.195905923E0
3.080474667E0,1.414763648E0,-2.687940916E-1,-1.808376863E0,2.311716532E0
3.090460667E0,2.222589235E0,1.557720908E-1,-2.546968201E0,3.383964371E0
3.100446667E0,2.475733911E0,1.464393499E-1,-3.091713522E0,3.963507965E0
3.110432667E0,2.349989539E0,-5.948357865E-2,-3.661614735E0,4.351254025E0
3.120418667E0,1.871425343E0,-1.404442728E-2,-3.875519916E0,4.303729160E0
3.130404667E0,1.428268377E0,-4.216560231E-1,-3.774922079E0,4.058051388E0
3.140390667E0,1.705147487E0,-9.988218163E-1,-3.442875659E0,3.969706007E0
3.150375667E0,2.741226738E0,-1.551793878E0,-3.253173273E0,4.528302619E0
3.160361667E0,4.234887452E0,-2.093682103E0,-3.109529988E0,5.655700949E0
3.170347667E0,5.609262042E0,-2.260658702E0,-2.546201631E0,6.561824530E0
3.180333667E0,6.621827300E0,-2.540312023E0,-1.322860036E0,7.214689227E0
3.190319667E0,7.189674971E0,-3.368938202E0,5.159933925E-2,7.940014690E0
3.200305667E0,7.225750537E0,-4.086324320E0,1.540690015E0,8.442940423E0
3.210291667E0,7.560020068E0,-4.997583643E0,2.986534099E0,9.541966864E0
3.220276667E0,8.411840106E0,-5.661589944E0,4.462460792E0,1.107818627E1
3.230262667E0,9.060830757E0,-5.158130643E0,6.451846987E0,1.226096633E1
3.240248667E0,8.683464323E0,-4.969815216E0,7.899628108E0,1.274777393E1
3.250234667E0,7.577225500E0,-5.047603065E0,8.518954664E0,1.246856975E1
3.260220667E0,6.442410750E0,-5.161838948E0,8.260743960E0,1.167857561E1
3.270206667E0,5.040144941E0,-5.273533630E0,7.373327243E0,1.037203802E1
3.280192667E0,3.464784592E0,-5.341823847E0,6.272142754E0,8.937538196E0
3.290177667E0,1.890623506E0,-5.078483380E0,5.242519414E0,7.539858121E0
3.300163667E0,3.460376376E-1,-4.672899452E0,3.996081317E0,6.158278756E0
3.310149667E0,-1.233081302E0,-3.860634952E0,2.978817821E0,5.029746250E0
3.320135667E0,-2.373181350E0,-2.912285278E0,2.135238265E0,4.321184757E0
3.330121667E0,-2.726117533E0,-1.924866555E0,1.733546829E0,3.760586745E0
3.340107667E0,-2.975132906E0,-7.999800852E-1,1.662145309E0,3.500587232E0
3.350093667E0,-2.704405067E0,-8.495536566E-2,2.050739567E0,3.395078342E0
3.360078667E0,-1.959240582E0,-1.124185681E-2,2.831065698E0,3.442917807E0
3.370064667E0,-1.423242695E0,-4.096208453E-2,3.487876416E0,3.767304017E0
3.380050667E0,-1.308347247E0,8.535706937E-2,4.085944251E0,4.291153547E0
3.390036667E0,-1.450334600E0,-2.942061639E-1,4.063152389E0,4.324261215E0
3.400022667E0,-1.885821773E0,-7.976537704E-1,3.243276860E0,3.835546909E0
3.410008667E0,-2.770853995E0,-6.750686485E-1,2.410723398E0,3.734292014E0
3.419994667E0,-3.762471018E0,-2.946645856E-1,1.981422579E0,4.262516958E0
3.429979667E0,-4.211289843E0,8.476825476E-2,1.776207822E0,4.571330444E0
3.439965667E0,-3.758024211E0,4.841722602E-1,1.997902957E0,4.283548175E0
3.449951667E0,-3.561393458E0,7.117944252E-1,2.633307018E0,4.486031712E0
3.459937667E0,-3.640180596E0,-1.376902342E-2,2.999196245E0,4.716596492E0
3.469923667E0,-3.540707179E0,-8.755515468E-1,3.249655588E0,4.885023979E0
3.479909667E0,-2.984500145E0,-1.875298539E0,3.355672916E0,4.866675092E0
3.489895667E0,-1.818488161E0,-2.932166981E0,3.126752962E0,4.656295360E0
3.499880667E0,-8.382240915E-1,-3.498983787E0,2.510694999E0,4.387379234E0
3.509866667E0,7.370356858E-2,-4.713574439E0,1.081223264E0,4.836554554E0
3.519852667E0,9.149091554E-1,-5.834176946E0,-1.333445543E0,6.054151998E0
3.529838667E0,1.230312061E0,-4.338777856E0,-3.470902241E0,5.690854366E0
3.539824667E0,9.942120177E-1,-1.369086369E0,-5.075523520E0,5.350120935E0
3.549810667E0,2.413742316E-1,6.911593089E-1,-6.098906711E0,6.142688807E0
3.559796667E0,-1.108268976E0,1.024845580E0,-5.618859662E0,5.818088388E0
3.569781667E0,-2.613727616E0,1.408404216E-1,-3.298141869E0,4.210599466E0
3.579767667E0,-3.574565481E0,-1.134208394E0,-5.646530440E-1,3.792463595E0
3.589754667E0,-3.661149296E0,-2.213999675E0,1.299199716E0,4.471434740E0
3.599740667E0,-3.049660932E0,-3.475401674E0,1.666212047E0,4.914784958E0
3.609726667E0,-2.129300417E0,-4.501722507E0,7.043520892E-1,5.029466936E0
3.619712667E0,-1.333428293E0,-3.322423602E0,-7.729128854E-1,3.662502414E0
3.629698667E0,-7.438552934E-1,-1.583449095E0,-2.490560696E0,3.043603837E0
3.639683667E0,-4.021913731E-1,-4.779590088E-1,-3.448589559E0,3.504707214E0
3.649669667E0,-1.022124871E0,-2.404518333E-1,-3.080427811E0,3.254472589E0
3.659655667E0,-2.394755237E0,-6.708457893E-1,-1.920926117E0,3.142426429E0
3.669641667E0,-3.267521755E0,-1.223833638E0,-1.017831845E0,3.634618117E0
3.679627667E0,-3.439131687E0,-2.243948236E0,-1.589618200E0,4.403386932E0
3.689613667E0,-2.350229275E0,-2.279842831E0,-3.079640776E0,4.495047084E0
3.699598667E0,-4.864906812E-1,-8.413508901E-1,-3.964924428E0,4.082299625E0
3.709584667E0,5.753285980E-1,1.335797878E-1,-4.059280947E0,4.102024910E0
3.719570667E0,4.916473407E-1,3.591041180E-1,-3.135706218E0,3.194264605E0
3.729556667E0,-3.154789191E-1,-1.819951719E-1,-1.436638666E0,1.482086316E0
3.739542667E0,-8.395017081E-1,-1.270840867E0,-5.788977385E-2,1.524188588E0
3.749528667E0,-1.016516806E0,-1.581077465E0,2.554028714E-1,1.896929886E0
3.759514667E0,-8.436310118E-1,-9.630780794E-1,-7.045368155E-2,1.282262217E0
3.769500667E0,-5.064846504E-1,-6.479548902E-1,-3.148801643E-1,8.806371322E-1
3.779485667E0,-5.338285697E-1,-6.914956699E-1,-4.854557240E-1,9.994030535E-1
3.789471667E0,-7.031387919E-1,-6.445680367E-1,-8.490344238E-1,1.277001005E0
3.799457667E0,-7.840408677E-1,-6.936459835E-1,-1.270519270E0,1.646233291E0
3.809443667E0,-5.765606064E-1,-7.555827615E-1,-1.741362217E0,1.983852266E0
3.819429667E0,2.657565361E-1,-6.064991545E-1,-2.016829224E0,2.122750075E0
3.829415667E0,1.239161822E0,-4.019275906E-1,-1.574029523E0,2.043192783E0
3.839400667E0,1.773531843E0,-4.424514994E-1,-1.258068209E0,2.218989443E0
3.849386667E0,2.379961782E0,-8.993374354E-1,-1.337117302E0,2.874179637E0
3.859372667E0,3.146927610E0,-6.879907027E-1,-1.211596293E0,3.441576698E0
3.869358667E0,3.338411644E0,-5.407160050E-1,-1.175123116E0,3.580262621E0
3.879344667E0,3.366878228E0,-7.707972166E-1,-1.064262246E0,3.614229030E0
3.889330667E0,2.986712147E0,-8.353238726E-1,-1.467809004E0,3.431133733E0
3.899316667E0,2.258370101E0,-8.069084510E-1,-2.295422738E0,3.319684067E0
3.909301667E0,1.661338978E0,-9.823907018E-1,-2.824567688E0,3.421011738E0
3.919287667E0,1.648139473E0,-1.264207200E0,-2.901602415E0,3.568456269E0
3.929273667E0,1.660320978E0,-1.327430512E0,-3.012787220E0,3.687224478E0
3.939259667E0,1.885603672E0,-1.559839793E0,-2.865168414E0,3.767995678E0
3.949245667E0,2.859915276E0,-1.896147079E0,-1.733688916E0,3.844498197E0
3.959231667E0,3.639200603E0,-2.199419643E0,-9.418764409E-1,4.355267962E0
3.969217667E0,3.964863033E0,-2.465312419E0,-1.125653259E0,4.802603404E0
3.979202667E0,3.753638214E0,-2.513732627E0,-2.119081092E0,4.989905434E0
3.989188667E0,3.297931370E0,-2.523265343E0,-3.089682784E0,5.175843797E0
3.999174667E0,3.143694100E0,-2.682321011E0,-3.105977805E0,5.169599280E0
4.009160667E0,2.649798505E0,-2.972975283E0,-2.415965281E0,4.657993387E0
4.019146667E0,1.840901123E0,-3.406747468E0,-4.366828557E-1,3.896862478E0
4.029132667E0,4.763288051E-1,-3.730484410E0,1.990499651E0,4.255054867E0
4.039118667E0,-1.037347512E0,-4.220519966E0,3.972937453E0,5.888387780E0
4.049103667E0,-1.993634489E0,-4.435881397E0,4.676977301E0,6.747276407E0
4.059089667E0,-1.806902488E0,-4.129978170E0,4.012813125E0,6.035253554E0
4.069075667E0,-4.579317105E-1,-3.401748391E0,2.655353944E0,4.339642628E0
4.079061667E0,1.097992494E0,-2.168384961E0,1.834610981E0,3.045205791E0
4.089047667E0,2.270309531E0,-1.315337885E0,2.807447040E0,3.842678493E0
4.099033667E0,2.916584151E0,-1.196234488E0,5.883233331E0,6.674569236E0
4.109019667E0,2.302254624E0,-1.691073385E0,8.525915190E0,8.991737061E0
4.119004667E0,1.216664075E0,-1.778187397E0,9.560468903E0,9.800244258E0
4.128990667E0,-1.484315693E-2,-1.491674999E0,9.475894775E0,9.592595916E0
4.138976667E0,-1.115475669E0,-1.245314554E0,8.110022621E0,8.280553195E0
4.148962667E0,-1.625511333E0,-7.900518054E-1,5.842632605E0,6.115784881E0
4.158948667E0,-1.470494045E0,-4.759882048E-1,3.547760675E0,3.869822130E0
4.168934667E0,-1.138336528E0,1.644937246E-1,1.944608510E0,2.259285394E0
4.178920667E0,-1.049885697E0,6.659737431E-1,9.411831073E-1,1.559360973E0
4.188905667E0,-1.211743643E0,8.637739389E-1,6.355351849E-1,1.618126399E0
4.198891667E0,-1.523273352E0,7.681112981E-1,8.588226628E-1,1.909956292E0
4.208877667E0,-1.782786232E0,4.595688578E-1,1.357669680E0,2.287530818E0
4.218863667E0,-1.874517936E0,3.749939997E-1,1.731711388E0,2.579391851E0
4.228849667E0,-1.617364408E0,4.102339259E-1,1.787822438E0,2.445499657E0
4.238835667E0,-1.167091380E0,3.163771977E-1,1.563620310E0,1.976639900E0
4.248820667E0,-5.801297468E-1,2.132641809E-1,1.059075766E0,1.226243700E0
4.258806667E0,-5.267698109E-2,2.146278977E-1,6.880535603E-1,7.226739933E-1
4.268792667E0,-9.880098760E-2,1.653820628E-1,5.199496917E-1,5.544912476E-1
4.278778667E0,-5.981637293E-1,-4.439746991E-2,3.017666868E-1,6.714418185E-1
4.288764667E0,-7.190227532E-1,-1.840003283E-1,-1.179734230E-2,7.422863449E-1
4.298750667E0,-4.559834182E-1,-1.050852826E-1,-1.936153436E-1,5.064096125E-1
4.308736667E0,-2.899751186E-1,-4.095609114E-2,-2.364637399E-1,3.764014760E-1
4.318721667E0,-3.057269329E-1,-1.772255981E-1,-3.541273335E-1,5.002839578E-1
4.328707667E0,-1.452992159E-1,-2.422391810E-1,-4.503046024E-1,5.315692973E-1
4.338693667E0,1.291416049E-2,-2.531739128E-1,-6.586525905E-1,7.057528184E-1
4.348679667E0,3.342122287E-1,-4.685397291E-1,-1.120160458E0,1.259359656E0
4.358665667E0,9.541638529E-1,-4.464239515E-1,-1.655110524E0,1.961915862E0
4.368651667E0,1.676332993E0,-3.601098391E-1,-2.081055626E0,2.696398323E0
4.378637667E0,2.056454051E0,-4.320417014E-1,-2.395566831E0,3.186597517E0
4.388622667E0,2.306103846E0,-5.413404876E-1,-2.520478560E0,3.458898184E0
4.398608667E0,2.551795077E0,-6.255197816E-1,-2.488204268E0,3.618576183E0
4.408594667E0,2.926998627E0,-9.693682216E-1,-2.556090442E0,4.005071043E0
4.418580667E0,3.554588469E0,-1.209941385E0,-2.488365651E0,4.504555578E0
4.428566667E0,4.656961112E0,-1.714809134E0,-2.109090540E0,5.392227746E0
4.438552667E0,6.164844593E0,-2.149249948E0,-1.292949043E0,6.655546666E0
4.448538667E0,7.849864209E0,-2.811509686E0,6.143450215E-2,8.338388874E0
4.458523667E0,8.545450153E0,-3.177662330E0,1.723921727E0,9.278693998E0
4.468509667E0,8.488143346E0,-3.600198213E0,3.356175485E0,9.811927360E0
4.478495667E0,8.454352872E0,-4.426363591E0,4.713047605E0,1.064338268E1
4.488481667E0,8.496206657E0,-5.387556090E0,5.598450540E0,1.151320705E1
4.498467667E0,8.121543975E0,-5.978980318E0,5.895393201E0,1.168175257E1
4.508453667E0,6.613193886E0,-5.812752163E0,5.701138172E0,1.048929919E1
4.518439667E0,3.835223830E0,-5.247138129E0,4.835755226E0,8.100983211E0
4.528424667E0,1.100311500E0,-4.587763993E0,3.584057851E0,5.924840464E0
4.538410667E0,-9.697016591E-1,-4.028942377E0,2.081366990E0,4.637325364E0
4.548396667E0,-2.409718847E0,-3.455033775E0,1.008666919E0,4.331444593E0
4.558382667E0,-3.342165556E0,-2.676600679E0,4.759867430E-1,4.308227615E0
4.568368667E0,-4.030619650E0,-1.731801435E0,4.639335850E-1,4.411379075E0
4.578354667E0,-3.912826322E0,-1.072513837E0,9.127544564E-1,4.158559420E0
4.588339292E0,-3.021769713E0,-8.739137417E-1,1.755523296E0,3.602315848E0
4.598325292E0,-2.065339479E0,-6.395962223E-1,2.708917948E0,3.465969841E0
4.608311292E0,-1.366260409E0,-7.592603678E-1,3.498217509E0,3.831536187E0
4.618297292E0,-1.270408757E0,-8.618047428E-1,4.198360772E0,4.470221359E0
4.628283292E0,-1.896330389E0,-9.495077151E-1,4.483708112E0,4.959966964E0
4.638269292E0,-2.598203259E0,-1.100551820E0,4.322633401E0,5.162076520E0
4.648255292E0,-3.270603822E0,-8.444724262E-1,3.565437685E0,4.911448761E0
4.658240292E0,-4.010670120E0,-3.623075151E-1,2.135926190E0,4.558390312E0
4.668226292E0,-4.397769245E0,-2.720417082E-2,3.912597111E-1,4.415223501E0
4.678212292E0,-4.126977671E0,3.415732884E-1,-6.050766000E-1,4.185060896E0
4.688198292E0,-3.157546738E0,3.733365333E-1,-3.349650577E-1,3.197136713E0
4.698184292E0,-2.168604231E0,-3.491021633E-2,7.194402444E-1,2.285094594E0
4.708170292E0,-1.677861455E0,-6.680707008E-1,1.910935564E0,2.629298814E0
4.718156292E0,-1.223846794E0,-1.385640421E0,2.999128125E0,3.523147721E0
4.728141292E0,-8.739570111E-1,-2.146320493E0,3.678459393E0,4.347591980E0
4.738127292E0,-8.410623300E-1,-2.837916296E0,3.590529549E0,4.653284559E0
4.748113292E0,-9.968479425E-1,-3.397220015E0,2.954540766E0,4.611303589E0
4.758099292E0,-1.317459548E0,-3.706151222E0,1.449362354E0,4.191885945E0
4.768085292E0,-1.644225932E0,-3.295071496E0,-3.366768301E-1,3.697881335E0
4.778071292E0,-1.978846881E0,-2.466801120E0,-1.948376455E0,3.714446601E0
4.788057292E0,-2.505305620E0,-1.556497816E0,-3.056740741E0,4.247694158E0
4.798042292E0,-2.823043903E0,-1.124388580E0,-3.629432244E0,4.733561553E0
4.808028292E0,-2.791330944E0,-1.076264825E0,-3.358212655E0,4.497495597E0
4.818014292E0,-2.693698230E0,-9.031030422E-1,-2.428316939E0,3.737422697E0
4.828000292E0,-2.421897427E0,-1.014241655E0,-1.272759777E0,2.917908623E0
4.837986292E0,-2.021646160E0,-1.344281310E0,9.946113825E-3,2.427806492E0
4.847972292E0,-1.606878596E0,-2.055310920E0,7.342467101E-1,2.710254606E0
4.857958292E0,-1.270288305E0,-2.270050207E0,8.831764622E-1,2.747136870E0
4.867943292E0,-1.186693001E0,-2.006688106E0,5.130534124E-1,2.387103106E0
4.877929292E0,-1.269320590E0,-1.606895845E0,-6.687124327E-2,2.048843767E0
4.887915292E0,-1.443572879E0,-1.459181729E0,-6.959389691E-1,2.167358998E0
4.897901292E0,-1.649387269E0,-1.231418939E0,-1.359548829E0,2.466828730E0
4.907887292E0,-1.845758405E0,-7.303698599E-1,-1.359774824E0,2.406086406E0
4.917873292E0,-2.265083874E0,-6.314171371E-1,-8.427064209E-1,2.497888442E0
4.927859292E0,-2.582918052E0,-1.239352733E0,-8.689440469E-1,2.993747588E0
4.937844292E0,-2.489728053E0,-1.427846501E0,-7.285876286E-1,2.961136832E0
4.947830292E0,-1.990631359E0,-1.585875982E0,-1.020726656E0,2.742170444E0
4.957816292E0,-1.479132721E0,-1.329612693E0,-1.673529253E0,2.599308308E0
4.967802292E0,-7.116184241E-1,-8.236294413E-1,-2.087193886E0,2.353963585E0
4.977788292E0,-1.850515115E-1,-4.242976490E-1,-2.189008237E0,2.237415835E0
4.987774292E0,-8.636863768E-2,-1.622264667E-1,-2.062414702E0,2.070587205E0
4.997759292E0,-3.168875134E-1,-1.538788354E-1,-1.592486698E0,1.630984450E0
5.007745292E0,-7.267252904E-1,-3.083441466E-1,-8.493339474E-1,1.159557638E0
5.017731292E0,-1.124941726E0,-7.913495949E-1,-7.186672425E-1,1.551841060E0
5.027717292E0,-1.117084238E0,-6.585756996E-1,-8.167763583E-1,1.532554327E0
5.037703292E0,-8.481257665E-1,-3.704722747E-1,-6.015440047E-1,1.103821639E0
5.047689292E0,-8.151620883E-1,-4.988333494E-1,-3.775303026E-1,1.027547113E0
5.057675292E0,-8.618462580E-1,-9.116494788E-1,-5.667576031E-1,1.376625557E0
5.067660292E0,-4.769772613E-1,-7.948376052E-1,-8.848391180E-1,1.281489130E0
5.077646292E0,3.911144078E-2,-7.732439109E-1,-1.402893069E0,1.602356020E0
5.087632292E0,7.368567610E-1,-8.758953631E-1,-2.251767426E0,2.525986364E0
5.097618292E0,1.567216347E0,-5.194322131E-1,-2.747378594E0,3.205318399E0
5.107604292E0,2.126655722E0,-5.324973779E-1,-2.938500684E0,3.666197525E0
5.117590292E0,2.372921149E0,-6.535982573E-1,-2.946580367E0,3.839307401E0
5.127576292E0,2.626509045E0,-9.962081840E-1,-3.293883927E0,4.329047451E0
5.137561292E0,3.351916373E0,-9.659932087E-1,-3.750850847E0,5.122242509E0
5.147547292E0,3.984830689E0,-9.266241981E-1,-4.504706633E0,6.085218967E0
5.157533292E0,4.486585527E0,-6.570093767E-1,-4.809590982E0,6.610088988E0
5.167519292E0,4.253160000E0,-4.389520870E-1,-3.975510228E0,5.838384237E0
5.177505292E0,2.782267175E0,-9.078623834E-1,-2.561114370E0,3.889027071E0
5.187491292E0,1.016702748E0,-1.513840039E0,-1.171445217E0,2.167413214E0
5.197477292E0,-3.642803657E-1,-1.641966860E0,-6.351830363E-2,1.683089400E0
5.207462292E0,-1.318328444E0,-1.745121392E0,4.005227239E-1,2.223478583E0
5.217448292E0,-1.357583726E0,-1.740072614E0,6.999340792E-1,2.315338850E0
5.227434292E0,-8.110555887E-2,-1.839229989E0,1.137354634E0,2.164005690E0
5.237420292E0,2.011548604E0,-1.726317185E0,1.644874388E0,3.119633081E0
5.247406292E0,4.007324928E0,-1.555449703E0,2.148027587E0,4.805423954E0
5.257392292E0,5.371461629E0,-1.401805049E0,2.959179947E0,6.290818976E0
5.267377292E0,5.893102847E0,-1.603628129E0,3.042058090E0,6.823078613E0
5.277363292E0,5.765518355E0,-1.301572370E0,2.135065480E0,6.284409053E0
5.287349292E0,5.120021415E0,-9.907604063E-1,1.039219498E0,5.317537272E0
5.297335292E0,4.163144454E0,-1.048528266E0,2.193509862E-1,4.298755416E0
5.307321292E0,3.637214888E0,-1.141870877E0,5.709452328E-1,3.854760655E0
5.317307292E0,3.102091160E0,-1.316127113E0,1.201830419E0,3.577646783E0
5.327293292E0,2.301127866E0,-1.528763303E0,1.545453303E0,3.165554075E0
5.337278292E0,1.584005458E0,-1.652919426E0,1.659730994E0,2.827706295E0
5.347264292E0,7.059583193E-1,-1.485941073E0,1.716940151E0,2.377873316E0
5.357250292E0,-3.467802340E-1,-1.364742765E0,1.897330409E0,2.362761525E0
5.367236292E0,-1.456796358E0,-1.206324443E0,2.269188766E0,2.954097484E0
5.377222292E0,-2.265765075E0,-1.158352278E0,2.320520157E0,3.443876475E0
5.387208292E0,-2.542600331E0,-8.456284207E-1,2.074261015E0,3.388578260E0
5.397194292E0,-2.304498786E0,-4.018210251E-1,1.917227314E0,3.024555399E0
5.407179292E0,-1.783638756E0,-3.330270711E-2,2.029886788E0,2.702390914E0
5.417165292E0,-1.528885510E0,1.035481593E-1,2.289586778E0,2.755071821E0
5.427151292E0,-1.374693848E0,5.846802693E-2,2.748988917E0,3.074108286E0
5.437137292E0,-1.020135064E0,1.539955239E-1,3.720045376E0,3.860456938E0
5.447123292E0,-8.794329286E-1,1.599037151E-1,4.490944626E0,4.579034299E0
5.457109292E0,-8.463587379E-1,3.135631520E-2,4.770551462E0,4.845148871E0
5.467094292E0,-8.037547553E-1,-4.248860981E-2,4.506337422E0,4.577652668E0
5.477080292E0,-7.156775612E-1,1.404397777E-1,3.888735209E0,3.956536266E0
5.487066292E0,-7.038088828E-1,3.044477266E-1,3.335214386E0,3.422234703E0
5.497052292E0,-9.092946589E-1,2.395886564E-1,2.740615704E0,2.897446106E0
5.507038292E0,-8.784546894E-1,8.322475428E-2,2.190948343E0,2.361961821E0
5.517024292E0,-5.974702495E-1,9.724467807E-4,1.588818155E0,1.697443600E0
5.527010292E0,-3.437268180E-1,1.436594008E-1,9.732493110E-1,1.042113415E0
5.536995292E0,-2.464823592E-1,1.221940164E-1,4.727320366E-1,5.469556741E-1
5.546981292E0,-1.492712295E-1,-4.810456809E-2,1.604405808E-1,2.243593756E-1
5.556967292E0,-4.471307337E-2,2.619457595E-2,7.897015572E-2,9.445475231E-2
5.566953292E0,-1.046821171E-1,6.579948518E-2,1.758795691E-1,2.149919550E-1
5.576939292E0,-2.556244808E-1,-5.665809441E-2,3.723061077E-1,4.551547569E-1
5.586925292E0,-5.181802511E-1,-2.139499496E-1,5.048195095E-1,7.544057866E-1
5.596911333E0,-5.283146453E-1,-2.026604015E-1,5.779178913E-1,8.088119014E-1
5.606896333E0,-4.669089407E-1,-1.305168335E-1,6.672703631E-1,8.247959385E-1
5.616882333E0,-6.554676121E-1,-1.181904643E-1,7.641914709E-1,1.013703793E0
5.626868333E0,-1.086912020E0,-2.081426412E-1,7.264146571E-1,1.323774661E0
5.636854333E0,-1.390164996E0,-4.327962115E-1,4.200441650E-1,1.515357508E0
5.646840333E0,-1.529132262E0,-4.142792489E-1,-1.974547715E-1,1.596515318E0
5.656826333E0,-1.587310889E0,-1.662471583E-1,-1.003262923E0,1.885134071E0
5.666812333E0,-1.617454455E0,2.564091772E-2,-1.658064537E0,2.316461608E0
5.676797333E0,-1.860619104E0,4.028548859E-2,-2.125059432E0,2.824783878E0
5.686783333E0,-1.994815042E0,-1.189861608E-1,-2.586618755E0,3.268645184E0
5.696769333E0,-1.807281387E0,-2.666296716E-1,-3.157379508E0,3.647794231E0
5.706755333E0,-1.040521381E0,-2.930604020E-1,-3.628944587E0,3.786529804E0
5.716741333E0,7.929935396E-2,-4.866932872E-1,-3.908102356E0,3.939089079E0
5.726727333E0,1.291674496E0,-7.627293746E-1,-4.205239145E0,4.464774951E0
5.736713333E0,2.290829165E0,-9.006685540E-1,-4.466866962E0,5.100196326E0
5.746698333E0,3.104475655E0,-1.169948768E0,-4.690727613E0,5.745387259E0
5.756684333E0,3.614730590E0,-1.766986178E0,-5.086759529E0,6.485648765E0
5.766670333E0,4.151718410E0,-2.021083512E0,-5.295326203E0,7.025811264E0
5.776656333E0,4.799857707E0,-2.130144901E0,-4.330063458E0,6.806291270E0
5.786642333E0,5.180747089E0,-2.769960833E0,-2.393080448E0,6.343473610E0
5.796628333E0,5.588472852E0,-3.554693134E0,-9.480792403E-2,6.623885614E0
5.806613333E0,6.198318148E0,-4.366440448E0,1.853227346E0,7.805088190E0
5.816599333E0,7.088250922E0,-4.797943621E0,2.898430593E0,9.036839272E0
5.826585333E0,7.783305354E0,-4.595658611E0,3.101671623E0,9.556164877E0
5.836571333E0,7.979696370E0,-4.291283262E0,3.305231618E0,9.644439965E0
5.846557333E0,7.557689953E0,-4.334790347E0,3.606024086E0,9.429342208E0
5.856543333E0,6.905897316E0,-4.387237825E0,4.002558863E0,9.108224356E0
5.866529333E0,6.016026523E0,-4.482353312E0,4.308770237E0,8.651564442E0
5.876514333E0,5.114901593E0,-4.452954682E0,4.399022303E0,8.083465898E0
5.886500333E0,3.763151050E0,-3.958455654E0,4.380954992E0,7.001674344E0
5.896486333E0,2.250013846E0,-3.387866516E0,4.518326553E0,6.079101634E0
5.906472333E0,9.583323330E-1,-3.050186012E0,4.282898939E0,5.344647686E0
5.916458333E0,4.246288937E-1,-2.737786236E0,3.753344100E0,4.665123268E0
5.926444333E0,3.564714092E-1,-1.965226669E0,3.212274338E0,3.782577712E0
5.936430333E0,2.143168259E-1,-1.612199124E0,2.666106389E0,3.123017931E0
5.946415333E0,3.551090080E-1,-1.680629527E0,2.164934227E0,2.763613254E0
5.956401333E0,6.148762411E-1,-1.666643864E0,1.949269325E0,2.637314062E0
5.966387333E0,7.658168507E-1,-1.630219511E0,2.187545702E0,2.833627940E0
5.976373333E0,5.149420631E-1,-1.491001107E0,2.612224589E0,3.051551562E0
5.986359333E0,-1.929388207E-1,-1.406255072E0,3.148154941E0,3.453354637E0
5.996345333E0,-9.396381998E-1,-1.387949194E0,3.817095122E0,4.168877317E0
6.006331333E0,-1.615684503E0,-1.433195241E0,4.091514601E0,4.626551279E0
6.016316333E0,-2.102717806E0,-1.411568729E0,3.949124082E0,4.691431494E0
6.026302333E0,-2.154390235E0,-1.282654289E0,3.721483791E0,4.487320015E0
6.036288333E0,-1.871784947E0,-1.321758713E0,3.294332701E0,4.012885860E0
6.046274333E0,-1.354233856E0,-1.449580309E0,2.707425154E0,3.356394401E0
6.056260333E0,-1.094263140E0,-1.407976785E0,2.016643867E0,2.691962655E0
6.066246333E0,-1.146643082E0,-1.295813155E0,1.465183019E0,2.267307516E0
6.076231333E0,-1.639556345E0,-1.079324089E0,1.084008586E0,2.242355929E0
6.086217333E0,-2.532556568E0,-6.065281713E-1,7.517718387E-1,2.710512884E0
6.096203333E0,-3.481756720E0,-4.351521277E-1,8.248246121E-1,3.604486492E0
6.106189333E0,-3.959406411E0,-6.654727829E-1,1.568422336E0,4.310417819E0
6.116175333E0,-3.628901902E0,-1.136842564E0,2.471526840E0,4.535392480E0
6.126161333E0,-3.294891987E0,-1.510552735E0,3.060996636E0,4.744236838E0
6.136147333E0,-2.857095748E0,-2.001008120E0,3.217185122E0,4.745240744E0
6.146132333E0,-1.964827012E0,-2.594731474E0,2.903266532E0,4.361437053E0
6.156118333E0,-1.385736315E0,-2.989431102E0,2.070936727E0,3.891753124E0
6.166104333E0,-1.056919312E0,-3.147019996E0,8.595307606E-1,3.429228254E0
6.176090333E0,-1.197143730E0,-2.863306661E0,-3.204183546E-1,3.119991357E0
6.186076333E0,-1.498506886E0,-2.571596673E0,-1.423711642E0,3.299331322E0
6.196062333E0,-2.038997773E0,-1.854295925E0,-2.004370854E0,3.407847974E0
6.206048333E0,-2.761132999E0,-1.314593242E0,-2.276256442E0,3.812263661E0
6.216033333E0,-3.193137571E0,-1.452162439E0,-2.478682662E0,4.295203259E0
6.226019333E0,-3.351627520E0,-1.308380868E0,-2.040592601E0,4.136337232E0
6.236005333E0,-3.543571730E0,-1.144258296E0,-1.664306732E0,4.078743011E0
6.245991333E0,-3.684790174E0,-1.097560093E0,-1.345597226E0,4.073444326E0
6.255977333E0,-3.679706604E0,-1.324928781E0,-1.064988470E0,4.053378518E0
6.265963333E0,-3.463758405E0,-1.569133065E0,-9.739256877E-1,3.925344840E0
6.275949333E0,-2.901030557E0,-1.718671804E0,-1.142510563E0,3.560216489E0
6.285934333E0,-2.241585669E0,-1.322928156E0,-1.380969665E0,2.946510213E0
6.295920333E0,-1.810647629E0,-1.185480289E0,-1.785374794E0,2.805596462E0
6.305906333E0,-1.616538196E0,-1.127235735E0,-2.028882382E0,2.828465991E0
6.315892333E0,-1.337241848E0,-1.024627625E0,-2.015612419E0,2.626931851E0
6.325878333E0,-1.269608858E0,-9.300166065E-1,-2.502201333E0,2.955985293E0
6.335864333E0,-1.004772089E0,-6.712545097E-1,-2.631094431E0,2.895307838E0
6.345849333E0,-7.720704478E-1,-8.527850472E-1,-2.613041153E0,2.855051520E0
6.355835333E0,-4.411923015E-1,-1.451597013E0,-3.154903797E0,3.500743136E0
6.365821333E0,2.971239245E-1,-1.007933898E0,-3.512844611E0,3.666645692E0
6.375807333E0,1.011154325E0,-3.223789260E-1,-3.436937227E0,3.597068076E0
6.385793333E0,1.210008189E0,2.292061941E-2,-3.057138351E0,3.287968989E0
6.395779333E0,5.892133963E-1,-3.709534823E-2,-2.120197618E0,2.200860384E0
6.405765333E0,-5.511421752E-1,-5.921021401E-1,-1.045646173E0,1.322013071E0
6.415750333E0,-1.569045941E0,-1.058980383E0,-5.790193605E-1,1.979547432E0
6.425736333E0,-1.837388116E0,-1.300022566E0,-6.933666328E-1,2.355166883E0
6.435722333E0,-1.235676296E0,-1.357771714E0,-1.152267373E0,2.167523941E0
6.445708333E0,-2.633936763E-2,-9.038210803E-1,-1.678472489E0,1.906529885E0
6.455694333E0,8.804673010E-1,-5.344100752E-1,-1.868393854E0,2.133474254E0
6.465680333E0,1.261830892E0,-5.757251854E-1,-1.822346739E0,2.290114479E0
6.475666333E0,1.274025845E0,-7.062262680E-1,-1.648759132E0,2.200069106E0
6.485651333E0,1.244251238E0,-9.049912544E-1,-1.916058456E0,2.457325847E0
6.495637333E0,1.589605336E0,-8.825854549E-1,-2.520066916E0,3.107497300E0
6.505623333E0,2.037726004E0,-4.622954875E-1,-2.669536658E0,3.390054624E0
6.515609333E0,2.416518574E0,-4.850519738E-1,-1.981476666E0,3.162449559E0
6.525595333E0,2.612717217E0,-8.036360568E-1,-9.407116024E-1,2.890858088E0
6.535581333E0,2.487528330E0,-1.077444501E0,1.402844976E-1,2.714472985E0
6.545566333E0,2.349503635E0,-1.104098741E0,9.467254637E-1,2.763239126E0
6.555552333E0,2.401840308E0,-1.071562495E0,1.526310396E0,3.040839764E0
6.565538333E0,2.268542503E0,-9.351688805E-1,1.898062480E0,3.102171352E0
6.575524333E0,1.936576189E0,-9.018441367E-1,1.889019907E0,2.851674314E0
6.585510333E0,1.661002178E0,-7.505968407E-1,1.703824847E0,2.495063719E0
6.595495958E0,1.681895449E0,-7.562259552E-1,1.618718623E0,2.453752224E0
6.605481958E0,1.843922964E0,-6.067217141E-1,1.367497388E0,2.374491997E0
6.615466958E0,2.259178771E0,-5.261827505E-1,1.059370758E0,2.550102627E0
6.625452958E0,2.653949443E0,-4.569508401E-1,1.051384046E0,2.890961800E0
6.635438958E0,2.635944697E0,-3.835296920E-1,9.129855676E-1,2.815819972E0
6.645424958E0,2.315415537E0,-2.901707080E-1,9.541289158E-1,2.521053379E0
6.655410958E0,1.648654613E0,-2.926513892E-1,1.284337702E0,2.110267803E0
6.665396958E0,9.715733528E-1,-4.851604396E-1,1.427180210E0,1.793370788E0
6.675382958E0,5.271949035E-1,-4.166173312E-1,1.291906192E0,1.456202622E0
6.685367958E0,3.145954049E-1,-3.345326561E-1,1.270926382E0,1.351346083E0
6.695353958E0,1.298415166E-1,-2.234580705E-1,1.170224611E0,1.198423118E0
6.705339958E0,1.730237889E-1,-1.670505658E-1,9.187889291E-1,9.497453445E-1
6.715325958E0,3.652521729E-1,-1.296085051E-1,5.882098679E-1,7.044134888E-1
6.725311958E0,5.401008779E-1,-3.679243505E-2,3.946578205E-1,6.699383829E-1
6.735297958E0,6.981177878E-1,-1.296356946E-2,6.221216722E-1,9.351854762E-1
6.745282958E0,8.350408673E-1,-5.904562220E-2,1.051117559E0,1.343736491E0
6.755268958E0,7.831760645E-1,-4.308345437E-2,1.498539630E0,1.691402363E0
6.765254958E0,5.321071494E-1,2.085657969E-2,2.209171629E0,2.272446325E0
6.775240958E0,2.186244696E-1,-9.492530689E-2,3.182537738E0,3.191450129E0
6.785226958E0,-6.836739957E-2,-2.998803020E-1,4.012471647E0,4.024242912E0
6.795212958E0,1.030443120E-1,-3.552873480E-1,4.596885649E0,4.611746405E0
6.805198958E0,3.530285686E-1,-3.693059014E-1,4.918264993E0,4.944729170E0
6.815183958E0,3.496991640E-1,-3.903235719E-1,4.851813726E0,4.880034675E0
6.825169958E0,1.259022474E-1,-2.824500445E-1,4.417549206E0,4.428359786E0
6.835155958E0,-1.425732440E-1,-1.975414565E-1,3.573694246E0,3.581988319E0
6.845141958E0,-1.473609442E-1,-1.968932927E-1,2.574305688E0,2.586026294E0
6.855127958E0,-3.563176274E-2,9.195916057E-3,1.584187306E0,1.584614656E0
6.865113958E0,-9.390745282E-2,2.517555244E-1,7.077727103E-1,7.570612018E-1
6.875098958E0,-2.550274801E-1,2.529894331E-1,8.585232854E-2,3.693416998E-1
6.885084958E0,-3.865512407E-1,2.484750903E-1,-2.819491573E-1,5.391262000E-1
6.895070958E0,-5.746585071E-1,3.112040198E-1,-4.282991910E-1,7.813581373E-1
6.905056958E0,-8.242124087E-1,2.711921078E-1,-2.953219588E-1,9.165622255E-1
6.915042958E0,-1.017193329E0,9.415946782E-2,-1.889084812E-1,1.038862209E0
6.925028958E0,-1.086388695E0,1.027794331E-3,-2.042104983E-1,1.105415478E0
6.935014958E0,-1.113955978E0,5.951646924E-2,-2.164463087E-1,1.136349037E0
6.944999958E0,-1.090255458E0,9.819083065E-3,-1.986694575E-1,1.108252197E0
6.954985958E0,-9.953867233E-1,-5.101037845E-2,-1.257209837E-1,1.004590739E0
6.964971958E0,-7.864265317E-1,-6.619925201E-2,-2.454558805E-2,7.895894608E-1
6.974957958E0,-4.503279912E-1,-6.717661411E-2,8.608417064E-3,4.553922507E-1
6.984943958E0,-1.805088097E-1,-4.741887242E-2,1.235750556E-2,1.870419412E-1
6.994929958E0,-1.275166637E-1,-6.395523682E-2,-1.820273316E-1,2.312676399E-1
7.004915958E0,-3.203186595E-1,-5.352745861E-2,-3.493652880E-1,4.769961603E-1
7.014900958E0,-8.301256979E-1,-4.655319214E-2,-6.701072129E-1,1.067857458E0
7.024886958E0,-1.193685102E0,-1.305721262E-1,-1.323620174E0,1.787149565E0
7.034872958E0,-1.501878390E0,-5.811693817E-2,-1.956948473E0,2.467521754E0
7.044858958E0,-1.650663716E0,-1.038740319E-1,-2.692532880E0,3.159938897E0
7.054844958E0,-1.467855781E0,-2.283761635E-2,-3.177873999E0,3.500572140E0
7.064830958E0,-1.077071741E0,-1.365760472E-1,-3.573545727E0,3.734831403E0
7.074816958E0,-6.312273949E-1,-2.707813409E-1,-4.209670165E0,4.265336265E0
7.084801958E0,-4.922595441E-2,-2.766498989E-1,-4.892172378E0,4.900235600E0
7.094787958E0,5.782861197E-1,-2.053404728E-1,-5.132883536E0,5.169436423E0
7.104773958E0,9.329869920E-1,-4.692253152E-1,-5.218521856E0,5.321992812E0
7.114759958E0,1.485231952E0,-9.886749968E-1,-5.057432234E0,5.362929517E0
7.124745958E0,2.341708127E0,-1.271768820E0,-4.321659547E0,5.077177772E0
7.134731958E0,2.858816584E0,-1.473233173E0,-3.245407001E0,4.569016835E0
7.144716958E0,2.983535939E0,-1.875816017E0,-2.170389386E0,4.138932534E0
7.154702958E0,3.289410222E0,-2.398755610E0,-6.121961698E-1,4.116920237E0
7.164688958E0,3.201025465E0,-3.008084890E0,2.902791739E-1,4.402204076E0
7.174674958E0,3.081528842E0,-3.277829812E0,6.513038099E-1,4.545787603E0
7.184660958E0,3.258422903E0,-3.154018236E0,1.298839966E0,4.717216987E0
7.194646958E0,3.719227350E0,-3.187406130E0,2.060583062E0,5.313963914E0
7.204632958E0,4.463520600E0,-3.494124166E0,3.045944149E0,6.435036565E0
7.214617958E0,5.136538045E0,-3.554688456E0,3.840705010E0,7.332860839E0
7.224603958E0,5.608650423E0,-3.242625480E0,4.549336384E0,7.916314869E0
7.234589958E0,5.831310056E0,-3.079069503E0,5.368720454E0,8.503411391E0
7.244575958E0,5.707537365E0,-2.797355331E0,6.287685238E0,8.940702728E0
7.254561958E0,5.304637894E0,-2.749773613E0,6.736092419E0,9.004186759E0
7.264547958E0,4.025022111E0,-2.936265879E0,6.612796860E0,8.279585897E0
7.274533958E0,2.445910188E0,-3.023390561E0,6.148579978E0,7.275190917E0
7.284518958E0,1.173111089E0,-3.056631982E0,5.269676807E0,6.203924754E0
7.294504958E0,2.812025410E-1,-2.725658819E0,4.011008674E0,4.857620966E0
7.304490958E0,1.133856976E-1,-2.309137528E0,2.538110839E0,3.433217015E0
7.314476958E0,4.911438954E-1,-1.800804719E0,1.318003923E0,2.285006412E0
7.324462958E0,7.230491459E-1,-1.211475182E0,6.351587704E-1,1.547222947E0
7.334448958E0,7.742438579E-1,-7.666005237E-1,5.214394891E-1,1.207902751E0
7.344433958E0,6.093617320E-1,-6.664453210E-1,7.607335737E-1,1.180756815E0
7.354419958E0,2.228139997E-1,-8.827564128E-1,1.209035797E0,1.513496786E0
7.364405958E0,4.721626639E-3,-1.133624403E0,1.774192579E0,2.105441970E0
7.374391958E0,1.458938777E-2,-9.595695307E-1,2.496713721E0,2.674802038E0
7.384377958E0,-2.651186049E-2,-7.346590850E-1,3.286258573E0,3.367480105E0
7.394363958E0,-7.858014643E-2,-9.850785206E-1,4.075708407E0,4.193799417E0
7.404349958E0,6.557126105E-2,-1.402837813E0,4.707573734E0,4.912586282E0
7.414334958E0,-1.779307723E-2,-1.594746501E0,4.925962268E0,5.177705791E0
7.424320958E0,-1.530532086E-1,-1.654505483E0,4.890421430E0,5.164981649E0
7.434306958E0,-2.786911619E-1,-1.549505716E0,4.547507082E0,4.812323492E0
7.444292958E0,-3.270289242E-1,-1.439373702E0,3.918658335E0,4.187436891E0
7.454278958E0,-3.507580948E-1,-1.327385488E0,3.376450120E0,3.644914113E0
7.464264958E0,-5.458177006E-1,-1.276465596E0,2.885540113E0,3.202127906E0
7.474249958E0,-7.589808708E-1,-1.573874864E0,2.343344324E0,2.923079998E0
7.484235958E0,-7.054425949E-1,-1.933936318E0,1.908407228E0,2.807094064E0
7.494221958E0,-7.466572791E-1,-1.883052824E0,1.669514555E0,2.625007405E0
7.504207958E0,-1.014791293E0,-1.834480003E0,1.452836623E0,2.550657269E0
7.514193958E0,-1.288459112E0,-1.932543657E0,1.094902825E0,2.567813090E0
7.524179958E0,-1.733532211E0,-1.905263180E0,7.238901217E-1,2.675664145E0
7.534165958E0,-2.308398879E0,-1.922711272E0,1.530567169E-1,3.008147333E0
7.544150958E0,-2.831801863E0,-1.974427848E0,-4.903170991E-1,3.486814875E0
7.554136958E0,-3.102018070E0,-1.894344674E0,-8.492671430E-1,3.732601309E0
7.564122958E0,-3.389920936E0,-1.822439125E0,-1.096203173E0,4.001813303E0
7.574108958E0,-3.630904573E0,-1.665414779E0,-1.113601052E0,4.146948482E0
7.584094958E0,-3.805749770E0,-1.695526478E0,-9.861901494E-1,4.281484831E0
7.594080958E0,-4.042294786E0,-1.704650474E0,-8.408857441E-1,4.466885851E0
7.604066958E0,-4.293459595E0,-1.758336392E0,-6.531700949E-1,4.685314647E0
7.614051958E0,-4.492634472E0,-2.032791538E0,-6.773623650E-1,4.977431638E0
7.624037958E0,-4.448406717E0,-2.148672243E0,-7.076673874E-1,4.990581916E0
7.634023958E0,-4.214156733E0,-2.201608256E0,-1.046611987E0,4.868428138E0
7.644009958E0,-3.855056416E0,-2.001052413E0,-1.709259249E0,4.667680142E0
7.653995958E0,-3.445142625E0,-1.624046021E0,-2.618660035E0,4.622111375E0
7.663981958E0,-3.153872348E0,-1.241464455E0,-3.401289092E0,4.801761372E0
7.673966958E0,-2.958182412E0,-1.014827546E0,-3.831130779E0,4.945531435E0
7.683952958E0,-2.971637440E0,-6.148047589E-1,-3.577988441E0,4.691547213E0
7.693938958E0,-3.285299630E0,-5.849321381E-1,-3.029858751E0,4.507258958E0
7.703924958E0,-3.492374094E0,-8.771748070E-1,-2.271264235E0,4.257317663E0
7.713910958E0,-3.491934384E0,-1.189231789E0,-1.645085034E0,4.039081920E0
7.723896958E0,-3.234402541E0,-1.247958373E0,-1.303359572E0,3.703715171E0
7.733882958E0,-2.598762252E0,-1.442882762E0,-1.441227561E0,3.303424404E0
7.743867958E0,-1.819133109E0,-1.102685469E0,-1.592926408E0,2.657550574E0
7.753853958E0,-1.058107467E0,-1.007122743E0,-1.922550619E0,2.414557623E0
7.763839958E0,2.099150419E-2,-8.909024613E-1,-2.266739806E0,2.435622546E0
7.773825958E0,8.966904008E-1,-3.618762830E-1,-2.241877445E0,2.441520550E0
7.783811958E0,1.235480999E0,-1.486891392E-1,-1.972864594E0,2.332534344E0
7.793797958E0,1.104370637E0,-2.547348270E-1,-1.659538035E0,2.009624549E0
7.803783958E0,9.065096301E-1,-7.603668071E-1,-1.416128973E0,1.845355971E0
7.813768958E0,1.171294359E0,-1.060991606E0,-1.249870412E0,2.014896948E0
7.823754958E0,1.489931359E0,-8.192156705E-1,-1.160338943E0,2.058493680E0
7.833740958E0,1.767793386E0,-7.408062628E-1,-1.275147926E0,2.302148911E0
7.843726958E0,1.935188645E0,-9.158607897E-1,-1.451359617E0,2.586542251E0
7.853712958E0,2.362835287E0,-1.124235090E0,-1.745565780E0,3.145456251E0
7.863698958E0,2.851065515E0,-9.195775723E-1,-2.159743946E0,3.693059895E0
7.873683958E0,3.215788515E0,-8.127141514E-1,-2.441890812E0,4.118814247E0
7.883669958E0,3.150244151E0,-7.846472239E-1,-2.329204441E0,3.995610442E0
7.893655958E0,2.660619362E0,-8.983092025E-1,-2.343644725E0,3.657666662E0
7.903641958E0,2.179541448E0,-1.085625925E0,-2.408548819E0,3.424922187E0
7.913627958E0,1.719664954E0,-1.022574522E0,-2.238562074E0,3.002343479E0
7.923613958E0,1.162356305E0,-1.103885610E0,-2.062721096E0,2.612365584E0
7.933599958E0,8.258835429E-1,-1.417076806E0,-1.973662155E0,2.566229258E0
7.943584958E0,6.886792123E-1,-1.374887976E0,-1.668761433E0,2.269220290E0
7.953570958E0,8.133552986E-1,-1.459960871E0,-1.409861927E0,2.186491079E0
7.963556958E0,1.161067579E0,-1.578783309E0,-1.237152718E0,2.317580961E0
7.973542958E0,1.620352920E0,-1.595603995E0,-1.300737680E0,2.619811864E0
7.983528958E0,2.205063375E0,-1.524580790E0,-1.291883826E0,2.975838519E0
7.993514958E0,2.396281945E0,-1.417064820E0,-1.063301987E0,2.980075667E0
8.003500958E0,2.634330865E0,-1.618513970E0,-5.910165314E-1,3.147790832E0
8.013485958E0,3.083180680E0,-1.704407522E0,1.772686482E-1,3.527383206E0
8.023471958E0,3.330821958E0,-1.746291712E0,5.078572842E-1,3.794974134E0
8.033457958E0,3.530587403E0,-1.711958616E0,7.477337515E-1,3.994365466E0
8.043443958E0,3.918564194E0,-1.525815137E0,1.470251970E0,4.454761277E0
8.053429958E0,3.914543064E0,-1.360191000E0,2.404889631E0,4.791373613E0
8.063415958E0,3.320984602E0,-1.517587812E0,2.965169835E0,4.703641530E0
8.073400958E0,2.527361317E0,-1.650118756E0,3.209380259E0,4.405742705E0
8.083386958E0,1.647095160E0,-1.483103566E0,3.645385787E0,4.266304747E0
8.093372958E0,6.697938752E-1,-1.573906147E0,4.132905579E0,4.472886419E0
8.103358958E0,-6.323880672E-2,-1.642773191E0,4.686269696E0,4.966268878E0
8.113344958E0,-4.297978324E-1,-1.616315417E0,4.789705771E0,5.073310860E0
8.123330958E0,-6.964834911E-1,-1.682219093E0,4.568817844E0,4.918236150E0
8.133316958E0,-7.619407314E-1,-1.271915000E0,4.275474730E0,4.525263043E0
8.143301958E0,-5.488208306E-1,-6.950497538E-1,3.829773055E0,3.930834532E0
8.153287958E0,-3.113788515E-1,-2.158075735E-1,3.728889874E0,3.748086097E0
8.163273958E0,-3.226019973E-1,-1.155117452E-2,3.722558509E0,3.736528781E0
8.173259958E0,-4.403415316E-1,-1.858347461E-1,3.677267146E0,3.708197525E0
8.183245958E0,-5.252524585E-1,-2.190466386E-1,3.491052039E0,3.537133855E0
8.193231958E0,-5.674015278E-1,-1.018359849E-1,3.384465483E0,3.433208655E0
8.203216958E0,-3.314359707E-1,-1.438150464E-1,3.242738332E0,3.262803159E0
8.213202958E0,-1.072806197E-1,-1.156358524E-1,3.054538679E0,3.058608724E0
8.223188958E0,-1.366389048E-1,2.607434258E-2,2.665590080E0,2.669217214E0
8.233174958E0,-2.494866586E-1,1.504674236E-1,2.293058124E0,2.311492937E0
8.243160958E0,-4.950825799E-1,1.642425866E-1,1.839051064E0,1.911593891E0
8.253146958E0,-8.796785116E-1,2.126752201E-1,1.274956137E0,1.563514689E0
8.263132958E0,-1.289238546E0,3.310946395E-1,8.855595680E-1,1.598741829E0
8.273117958E0,-1.647202749E0,4.110380642E-1,5.520730519E-1,1.785220950E0
8.283103958E0,-2.038920590E0,4.369413757E-1,3.053708375E-1,2.107454931E0
8.293089958E0,-2.202903414E0,3.434161846E-1,1.017556588E-1,2.231831611E0
8.303075958E0,-1.789677175E0,2.914364840E-1,-9.382208347E-2,1.815676788E0
8.313061958E0,-1.264884893E0,3.872871128E-1,-3.118998019E-1,1.359119784E0
8.323047958E0,-9.412163633E-1,3.318063918E-1,-5.059864311E-1,1.118930736E0
8.333033958E0,-5.999588245E-1,2.514483994E-1,-5.470327520E-1,8.499539520E-1
8.343018958E0,-1.596336651E-1,1.278832841E-1,-3.724139158E-1,4.248872392E-1
8.353004958E0,4.096676230E-2,8.285782322E-2,-2.647209211E-1,2.803941165E-1
8.362990958E0,7.704876065E-3,-7.389418781E-3,-2.622592799E-1,2.624764723E-1
8.372976958E0,-2.554063797E-1,-2.973469958E-2,-2.782642786E-1,3.788767344E-1
8.382962958E0,-6.907795322E-1,-1.648847571E-1,-3.166746747E-1,7.775899915E-1
8.392948958E0,-1.291024870E0,-2.528113854E-1,-3.562942386E-1,1.362939616E0
8.402933958E0,-1.735967576E0,-2.687773539E-1,-4.793325198E-1,1.820874613E0
8.412919958E0,-2.003618025E0,-1.720774171E-1,-6.774946582E-1,2.122049679E0
8.422905958E0,-1.964957405E0,-8.742318302E-2,-8.955934632E-1,2.161200608E0
8.432891958E0,-1.949812531E0,2.902338579E-2,-9.864217722E-1,2.185323586E0
8.442877958E0,-2.067504703E0,7.402092621E-2,-1.016891613E0,2.305238241E0
8.452863958E0,-2.128962448E0,-2.606834918E-3,-1.079915242E0,2.387196019E0
8.462849958E0,-2.167233059E0,-1.244926299E-1,-1.313331413E0,2.537171053E0
8.472834958E0,-1.909566731E0,-1.837592769E-1,-1.780020499E0,2.616999340E0
8.482820958E0,-1.134691374E0,-3.460990334E-1,-2.466323987E0,2.736797958E0
8.492806958E0,2.263299304E-1,-2.169930965E-1,-3.266948143E0,3.281959995E0
8.502792958E0,1.038644425E0,2.541156068E-1,-3.740828719E0,3.890649880E0
8.512778958E0,1.357981337E0,1.953589833E-1,-3.726507719E0,3.971037424E0
8.522764958E0,1.412839329E0,-2.094987202E-1,-3.114044623E0,3.425971191E0
8.532750958E0,1.386664853E0,-4.923504683E-1,-2.164046327E0,2.616934257E0
8.542735958E0,1.522474623E0,-6.626854151E-1,-1.166388545E0,2.029173027E0
8.552721958E0,1.982757499E0,-9.734418306E-1,-6.696968114E-1,2.308118306E0
8.562707958E0,2.797292181E0,-1.083449592E0,1.070670502E-1,3.001694507E0
8.572693958E0,3.547246705E0,-9.462823910E-1,7.309520964E-1,3.743354180E0
8.582679958E0,3.980403762E0,-1.132250746E0,1.300601002E0,4.337876073E0
8.592666667E0,4.215599826E0,-1.419755708E0,1.707034968E0,4.764552082E0
8.602651667E0,4.571999899E0,-1.587273467E0,1.785080094E0,5.158403927E0
8.612637667E0,4.604587601E0,-1.873069873E0,1.392109488E0,5.162226899E0
8.622623667E0,4.223219917E0,-1.993709918E0,1.050191506E0,4.786790982E0
8.632609667E0,3.994613081E0,-2.458777571E0,9.392875130E-1,4.783804118E0
8.642595667E0,3.835092267E0,-2.711639535E0,1.107068250E0,4.825611026E0
8.652581667E0,3.408079464E0,-2.709945011E0,1.330037785E0,4.552780261E0
8.662567667E0,2.797378135E0,-2.708137637E0,1.610131110E0,4.213295157E0
8.672552667E0,2.576494301E0,-3.090784400E0,1.778511625E0,4.399360713E0
8.682538667E0,3.180399996E0,-3.346811461E0,1.788344887E0,4.951188597E0
8.692524667E0,3.789648877E0,-3.047070615E0,1.742459447E0,5.165485734E0
8.702510667E0,4.033417543E0,-2.856450216E0,1.791700312E0,5.257181271E0
8.712496667E0,4.036030079E0,-2.949178285E0,2.345369654E0,5.521589460E0
8.722482667E0,3.853106954E0,-3.028373559E0,3.340113768E0,5.930753712E0
8.732467667E0,3.760440280E0,-3.094465222E0,4.432177770E0,6.584893765E0
8.742453667E0,3.776135377E0,-3.152105027E0,5.382542102E0,7.291551547E0
8.752439667E0,3.458386568E0,-3.134925030E0,5.943178986E0,7.557087340E0
8.762425667E0,2.823075478E0,-3.356810492E0,5.987381598E0,7.422039493E0
8.772411667E0,1.953980427E0,-3.724190759E0,5.566710684E0,6.976811891E0
8.782397667E0,9.578394127E-1,-3.809403110E0,4.890923413E0,6.272969012E0
8.792383667E0,-2.350621623E-1,-3.767063422E0,4.157892193E0,5.615522107E0
8.802368667E0,-1.268500226E0,-3.514771854E0,3.381188119E0,5.039359791E0
8.812354667E0,-1.873935553E0,-2.845450141E0,2.712346755E0,4.354887586E0
8.822340667E0,-2.165765408E0,-2.228986673E0,1.967940947E0,3.678547670E0
8.832326667E0,-2.281504025E0,-1.687760206E0,1.401719095E0,3.165219037E0
8.842312667E0,-2.356198112E0,-1.195613514E0,1.191673514E0,2.898490466E0
8.852298667E0,-2.621481024E0,-9.589319649E-1,1.158731178E0,3.022312230E0
8.862283667E0,-2.743439909E0,-9.400711861E-1,1.367689761E0,3.206364242E0
8.872269667E0,-2.721419880E0,-1.062457503E0,1.667296121E0,3.363750654E0
8.882255667E0,-2.708694584E0,-1.309777183E0,1.732043509E0,3.471673565E0
8.892241667E0,-2.678742222E0,-1.413430190E0,1.457245131E0,3.361102225E0
8.902227667E0,-2.698536801E0,-1.311833941E0,1.422134063E0,3.320462988E0
8.912213667E0,-2.764508597E0,-1.542367435E0,1.342289018E0,3.438480027E0
8.922199667E0,-2.671164231E0,-1.874384034E0,1.229494181E0,3.487132030E0
8.932184667E0,-2.251229482E0,-2.093982942E0,1.400984538E0,3.378691525E0
8.942170667E0,-1.812759644E0,-2.295113128E0,1.577194036E0,3.322827534E0
8.952156667E0,-1.693221506E0,-2.358910343E0,1.430157613E0,3.236789748E0
8.962142667E0,-1.773327191E0,-2.338811124E0,1.309765635E0,3.214064844E0
8.972128667E0,-1.920343149E0,-2.434443213E0,1.163731570E0,3.311872995E0
8.982114667E0,-2.021880634E0,-2.418196725E0,8.781618170E-1,3.272131549E0
8.992100667E0,-1.846016852E0,-2.445863995E0,6.426242761E-1,3.130973469E0
9.002085667E0,-1.576249711E0,-2.447309719E0,2.776279919E-1,2.924203364E0
9.012071667E0,-1.548613431E0,-2.473933261E0,-4.299153614E-1,2.950148565E0
9.022057667E0,-1.816356266E0,-2.108124726E0,-1.053735065E0,2.975516347E0
9.032043667E0,-2.206455597E0,-1.540435807E0,-1.368994714E0,3.019194480E0
9.042029667E0,-2.682977945E0,-1.172263827E0,-1.335168571E0,3.217957155E0
9.052015667E0,-3.170704143E0,-1.076670330E0,-1.147110202E0,3.539554432E0
9.062000667E0,-3.569203584E0,-1.312242369E0,-9.385914751E-1,3.916905439E0
9.071986667E0,-3.758191441E0,-1.825788410E0,-9.516473575E-1,4.285223322E0
9.081972667E0,-3.712998312E0,-1.917482399E0,-1.050887325E0,4.308997491E0
9.091958667E0,-3.572275711E0,-1.939843614E0,-1.489665896E0,4.329347697E0
9.101944667E0,-3.168735386E0,-1.934905932E0,-2.299150922E0,4.367017274E0
9.111930667E0,-2.567738680E0,-1.725341723E0,-3.203760792E0,4.453556916E0
9.121916667E0,-1.612312998E0,-1.294135589E0,-3.672736723E0,4.214657183E0
9.131901667E0,-6.262917602E-1,-8.539001843E-1,-3.309105399E0,3.474415841E0
9.141887667E0,-1.060860336E-1,-6.705750632E-1,-2.573074265E0,2.661134407E0
9.151873667E0,-2.032720202E-1,-5.310140124E-1,-1.453744257E0,1.560982947E0
9.161859667E0,-7.850863498E-1,-6.688143204E-1,-3.987042399E-1,1.105729733E0
9.171845667E0,-1.315435241E0,-1.004325362E0,-3.439332247E-3,1.655007896E0
9.181831667E0,-1.345658914E0,-1.402716922E0,-4.493794998E-1,1.995082608E0
9.191817667E0,-8.410500509E-1,-1.049596479E0,-1.167962542E0,1.781335021E0
9.201802667E0,-2.695431930E-1,-7.641305868E-1,-1.875192704E0,2.042766938E0
9.211788667E0,3.056707996E-1,-3.092920534E-1,-2.603967444E0,2.640027019E0
9.221774667E0,4.410157156E-1,-6.729319297E-2,-3.192853396E0,3.223869731E0
9.231760667E0,4.286611336E-1,-5.196450517E-1,-3.681861888E0,3.742978535E0
9.241746667E0,6.854345924E-1,-6.562619564E-1,-4.189759226E0,4.295879736E0
9.251732667E0,1.132784597E0,-4.527394561E-1,-4.534569533E0,4.695795439E0
9.261717667E0,1.668417617E0,-4.036056319E-1,-4.485558171E0,4.802785333E0
9.271703667E0,1.990765260E0,-4.115828054E-1,-4.175798414E0,4.644334088E0
9.281689667E0,1.934241396E0,-6.620219024E-1,-3.796804115E0,4.312224978E0
9.291675667E0,1.735536636E0,-8.945420607E-1,-2.857652403E0,3.460992657E0
9.301661667E0,1.437060835E0,-1.189313139E0,-2.158461066E0,2.852816812E0
9.311647667E0,1.209871949E0,-1.264961637E0,-1.804441395E0,2.513946464E0
9.321633667E0,6.597670698E-1,-1.049890813E0,-1.304623740E0,1.799890666E0
9.331618667E0,-7.905552506E-2,-1.116825645E0,-1.028402442E0,1.520250269E0
9.341604667E0,-2.303960842E-1,-1.375777045E0,-6.293089235E-1,1.530318449E0
9.351590667E0,-1.747639203E-1,-1.294660377E0,-1.459628749E-1,1.314531506E0
9.361576667E0,2.445077544E-1,-1.357684006E0,9.840163191E-2,1.383030290E0
9.371562667E0,1.025813295E0,-1.463047324E0,4.718223560E-1,1.848084609E0
9.381548667E0,1.835070280E0,-1.471410888E0,4.659751403E-1,2.397846068E0
9.391533667E0,3.219443609E0,-1.301767667E0,4.797792470E-1,3.505653197E0
9.401519667E0,4.447571150E0,-9.351779437E-1,8.876143527E-1,4.630691758E0
9.411505667E0,4.456906230E0,-5.748488340E-1,1.214442133E0,4.655033192E0
9.421491667E0,3.768870796E0,-6.160354516E-1,1.683621547E0,4.173543850E0
9.431477667E0,2.791081268E0,-5.393860558E-1,2.275827549E0,3.641491864E0
9.441463667E0,2.057021815E0,-6.142833334E-1,2.961203084E0,3.657513700E0
9.451449667E0,1.531122655E0,-7.527994868E-1,3.305287167E0,3.719672957E0
9.461434667E0,1.232929274E0,-9.677524897E-1,2.881408471E0,3.280118024E0
9.471420667E0,1.255607700E0,-8.929283023E-1,1.826719286E0,2.389722788E0
9.481406667E0,1.989445544E0,-5.951018348E-1,1.190567951E0,2.393635689E0
9.491392667E0,2.845566793E0,-4.812071371E-1,1.428030396E0,3.219950542E0
9.501378667E0,3.204093499E0,-8.791411525E-1,1.987094378E0,3.871388431E0
9.511364667E0,3.051702780E0,-1.333017819E0,2.326559161E0,4.062352014E0
9.521349667E0,2.581955016E0,-1.218496007E0,2.607790353E0,3.866755067E0
9.531335667E0,1.781195789E0,-1.235971727E0,3.072277962E0,3.760209625E0
9.541321667E0,4.367261982E-1,-1.279079155E0,3.738508544E0,3.975326325E0
9.551307667E0,-1.216135486E0,-1.374266709E0,4.413566083E0,4.779870299E0
9.561293667E0,-2.464441184E0,-1.683877071E0,4.381170169E0,5.301279505E0
9.571279667E0,-2.854591970E0,-1.866251142E0,3.818213110E0,5.119603500E0
9.581265667E0,-2.332530922E0,-1.276804880E0,3.446427258E0,4.353021026E0
9.591250667E0,-1.076162499E0,-4.011137313E-1,3.737026860E0,3.909525252E0
9.601236167E0,7.135532677E-2,-2.381445220E-1,3.888764445E0,3.896702876E0
9.611222167E0,7.393810040E-1,-3.963337786E-1,3.645934256E0,3.741203193E0
9.621208167E0,1.171932875E0,-4.894946882E-1,3.256790360E0,3.495670918E0
9.631194167E0,1.322440206E0,-3.843168734E-1,2.906835673E0,3.216557350E0
9.641180167E0,1.125073289E0,-2.336693555E-1,2.694095256E0,2.928914564E0
9.651166167E0,8.364845449E-1,-4.207546748E-1,2.516763239E0,2.685300373E0
9.661151167E0,4.125941545E-1,-6.858621700E-1,2.246713092E0,2.385028422E0
9.671137167E0,-1.188522595E-1,-6.047997344E-1,1.910949744E0,2.007893797E0
9.681123167E0,-6.139196366E-1,-4.026110570E-1,1.794243851E0,1.938634566E0
9.691109167E0,-1.134829368E0,-3.015402534E-1,1.715426892E0,2.078810631E0
9.701095167E0,-1.607339941E0,-1.738847183E-1,1.508993282E0,2.211523979E0
9.711081167E0,-1.950086766E0,-1.017544162E-1,1.379037745E0,2.390593537E0
9.721066167E0,-2.030642102E0,-1.160926661E-1,1.298022233E0,2.412850300E0
9.731052167E0,-1.732773242E0,-3.495026976E-2,1.117452028E0,2.062140554E0
9.741038167E0,-1.204082621E0,-1.542909911E-1,7.971883321E-1,1.452284374E0
9.751024167E0,-3.562240720E-1,-3.909000342E-1,1.629327007E-1,5.533945168E-1
9.761010167E0,3.926627505E-1,-2.047950737E-2,-4.669236318E-1,6.104270012E-1
9.770996167E0,7.243454736E-1,4.326081504E-1,-6.527633480E-1,1.066736221E0
9.780982167E0,7.179924738E-1,4.814612717E-1,-4.083906642E-1,9.560863367E-1
9.790967167E0,4.156165802E-1,1.550302253E-1,9.139903385E-2,4.529076020E-1
9.800953167E0,-2.915831029E-2,-1.793838785E-1,4.959245424E-1,5.281760451E-1
9.810939167E0,-4.205159622E-1,-4.016619077E-1,6.582595114E-1,8.783345302E-1
9.820925167E0,-5.187983018E-1,-4.450306331E-1,5.084142315E-1,8.518738012E-1
9.830911167E0,-5.068670583E-1,-3.055141673E-1,1.967144227E-1,6.236583081E-1
9.840897167E0,-5.073237258E-1,-2.216066958E-1,-1.217869771E-1,5.668500315E-1
9.850882167E0,-6.191634196E-1,-1.692290191E-1,-3.236188281E-1,7.188400009E-1
9.860868167E0,-8.337281674E-1,-8.574269325E-2,-3.593078935E-1,9.118972688E-1
9.870854167E0,-1.205827430E0,-8.383606240E-2,-2.681158876E-1,1.238117283E0
9.880840167E0,-1.735130839E0,-1.961077192E-1,-3.429146397E-1,1.779530196E0
9.890826167E0,-2.269480396E0,-1.864719464E-1,-6.232734275E-1,2.360886024E0
9.900812167E0,-2.648117430E0,-2.839451775E-1,-1.135588921E0,2.895291520E0
9.910798167E0,-2.549711714E0,-5.783723661E-1,-2.055902658E0,3.326000625E0
9.920783167E0,-1.591336697E0,-4.742105050E-1,-3.296267252E0,3.690881451E0
9.930769167E0,8.372335732E-2,-3.166884157E-1,-4.427836797E0,4.439936920E0
9.940755167E0,1.505634057E0,1.471735409E-1,-5.078824273E0,5.299344295E0
9.950741167E0,2.325545838E0,3.264806016E-1,-5.291244847E0,5.788957165E0
9.960727167E0,2.548469181E0,-8.728635818E-2,-5.119053701E0,5.719005584E0
9.970713167E0,2.333698611E0,-5.393074107E-1,-4.650653136E0,5.231211741E0
9.980699167E0,2.042114339E0,-8.705805364E-1,-3.908925644E0,4.495313241E0
9.990684167E0,1.940958678E0,-1.184921295E0,-2.817767376E0,3.620935245E0
1.000067017E1,1.922316000E0,-1.449911554E0,-1.453560508E0,2.812539861E0
1.001065617E1,2.007905788E0,-1.826843832E0,-3.388531637E-1,2.735665460E0
1.002064217E1,2.280003630E0,-2.261600688E0,4.188407350E-1,3.238623440E0
1.003062817E1,2.752096712E0,-2.794566501E0,5.200361574E-1,3.956523202E0
1.004061417E1,3.709219841E0,-2.888934422E0,4.011806819E-1,4.718601473E0
1.005059917E1,5.215453822E0,-3.008740947E0,4.160422575E-1,6.035442968E0
1.006058517E1,6.942226651E0,-3.101808155E0,3.922590002E-1,7.613776450E0
1.007057117E1,7.793062018E0,-2.948925685E0,7.945126462E-1,8.370139106E0
1.008055717E1,7.622999843E0,-3.151892188E0,1.655183029E0,8.413333575E0
1.009054317E1,6.880291774E0,-3.537240949E0,3.075326700E0,8.325150013E0
1.010052917E1,5.908740056E0,-3.905081392E0,4.569980856E0,8.428973529E0
1.011051517E1,4.955053920E0,-4.229204543E0,5.439522634E0,8.486880281E0
1.012050017E1,4.134722893E0,-4.267077836E0,5.831252754E0,8.325106326E0
1.013048617E1,3.070085841E0,-3.844858287E0,5.818893494E0,7.620228593E0
1.014047217E1,2.006108939E0,-3.302488105E0,5.478476785E0,6.704074033E0
1.015045817E1,1.290865241E0,-2.885307979E0,4.783464746E0,5.733486738E0
1.016044417E1,1.086132587E0,-2.666541422E0,3.740042561E0,4.719962448E0
1.017043017E1,1.141591088E0,-2.356469131E0,2.674453874E0,3.742843906E0
1.018041517E1,1.215966502E0,-2.044731406E0,1.767185568E0,2.963519173E0
1.019040117E1,1.238288832E0,-1.810242856E0,1.238180074E0,2.518616351E0
1.020038717E1,1.445355111E0,-1.721720396E0,1.154055890E0,2.526898794E0
1.021037317E1,1.649456851E0,-1.823232153E0,1.390423443E0,2.824563814E0
1.022035917E1,1.835701779E0,-1.905558465E0,1.948400429E0,3.285912098E0
1.023034517E1,1.547805346E0,-1.843115464E0,2.674247468E0,3.597829279E0
1.024033117E1,6.869852740E-1,-1.964065412E0,3.303826240E0,3.904455088E0
1.025031617E1,-4.031824762E-1,-2.130600253E0,3.618654949E0,4.218610812E0
1.026030217E1,-1.370089166E0,-2.197062045E0,3.611543857E0,4.443813114E0
1.027028817E1,-2.142083015E0,-2.361160937E0,3.199314569E0,4.516548940E0
1.028027417E1,-2.934236310E0,-2.362574501E0,2.601541142E0,4.578156540E0
1.029026017E1,-3.173635937E0,-1.986322546E0,2.148657332E0,4.316731478E0
1.030024617E1,-2.956151090E0,-1.383188391E0,1.965112064E0,3.809685658E0
1.031023117E1,-2.811114414E0,-9.103872111E-1,1.759088636E0,3.438831480E0
1.032021717E1,-2.648168886E0,-6.780685624E-1,1.721435491E0,3.230466773E0
1.033020317E1,-2.627158086E0,-5.155829179E-1,2.112202574E0,3.410159097E0
1.034018917E1,-2.694270673E0,-7.169987395E-1,2.652100554E0,3.847962967E0
1.035017517E1,-2.854721779E0,-1.292485797E0,3.051198750E0,4.373759227E0
1.036016117E1,-3.066298015E0,-1.916673437E0,3.168261469E0,4.807671090E0
1.037014717E1,-3.228300387E0,-2.568253235E0,2.957136930E0,5.075677974E0
1.038013217E1,-3.280861593E0,-2.879230968E0,2.270484363E0,4.920276720E0
1.039011817E1,-2.960123688E0,-3.028442556E0,1.237340122E0,4.411893827E0
1.040010417E1,-2.358173887E0,-2.948357628E0,3.559665021E-1,3.792164149E0
1.041009017E1,-1.697929684E0,-2.454041326E0,-2.769998547E-1,2.997000661E0
1.042007617E1,-1.157545216E0,-1.945362508E0,-6.203742318E-1,2.347170723E0
1.043006217E1,-8.596249008E-1,-1.463743142E0,-6.337750268E-1,1.811951915E0
1.044004717E1,-9.665207738E-1,-1.053095526E0,-2.807868040E-1,1.456713363E0
1.045003317E1,-1.451984099E0,-1.015116398E0,1.759147985E-1,1.780355342E0
1.046001917E1,-2.120678113E0,-1.579575607E0,2.974211092E-1,2.660976151E0
1.047000517E1,-2.654038906E0,-2.259430202E0,1.475087325E-1,3.488653920E0
1.047999117E1,-2.690424959E0,-2.542796505E0,-3.122321065E-1,3.715062505E0
1.048997717E1,-2.437950958E0,-2.190516087E0,-8.254355000E-1,3.379838660E0
1.049996317E1,-2.090460872E0,-1.619906485E0,-1.387515184E0,2.986523408E0
1.050994817E1,-1.821792423E0,-1.063486320E0,-1.649159081E0,2.677621418E0
1.051993417E1,-1.881415311E0,-7.311457855E-1,-1.594229314E0,2.572132353E0
1.052992017E1,-2.296498041E0,-1.050315175E0,-1.514961097E0,2.944855233E0
1.053990617E1,-2.443246197E0,-1.696346550E0,-1.871921772E0,3.514418119E0
1.054989217E1,-1.947328634E0,-1.731239517E0,-2.318803414E0,3.487997757E0
1.055987817E1,-1.268679736E0,-1.276985267E0,-2.698948153E0,3.244157946E0
1.056986317E1,-1.165205069E0,-6.523248799E-1,-2.726431528E0,3.035895169E0
1.057984917E1,-1.395069641E0,-5.264255561E-1,-2.656834459E0,3.046655956E0
1.058983517E1,-1.553411071E0,-5.935333192E-1,-2.200018251E0,2.757797684E0
1.059982108E1,-1.796980348E0,-1.076033276E0,-1.793399367E0,2.757402268E0
1.060980708E1,-1.756033466E0,-1.342173535E0,-1.452326600E0,2.644680677E0
1.061979308E1,-1.337784469E0,-1.454894843E0,-1.676284315E0,2.591585498E0
1.062977908E1,-5.970089042E-1,-9.525121607E-1,-1.820492002E0,2.139600471E0
1.063976408E1,-1.109772295E-1,-5.047656055E-1,-1.468907111E0,1.557174480E0
1.064975008E1,9.764967084E-2,-3.655209256E-1,-9.549169743E-1,1.027135548E0
1.065973608E1,-1.882651412E-1,-3.979751652E-1,-2.725295122E-1,5.177840578E-1
1.066972208E1,-6.755054355E-1,-8.055214915E-1,1.661557956E-1,1.064321481E0
1.067970808E1,-8.166127825E-1,-1.257480271E0,-8.648163512E-2,1.501862891E0
1.068969408E1,-5.874820358E-1,-1.054582473E0,-5.303940614E-1,1.318558757E0
1.069968008E1,-1.630490237E-1,-1.031037489E0,-1.128726629E0,1.537415719E0
1.070966508E1,5.108916968E-1,-1.108676234E0,-1.658533484E0,2.059346167E0
1.071965108E1,1.084852046E0,-1.006030410E0,-1.984996397E0,2.475724509E0
1.072963708E1,1.353943834E0,-1.077453857E0,-2.391871244E0,2.952138000E0
1.073962308E1,1.370826500E0,-1.192007243E0,-2.950806735E0,3.465156121E0
1.074960908E1,1.508331962E0,-1.137852671E0,-3.816731426E0,4.258780669E0
1.075959508E1,1.852441188E0,-7.872121051E-1,-4.524736855E0,4.952220195E0
1.076958008E1,1.937615240E0,-6.469137204E-1,-5.031614438E0,5.430469044E0
1.077956608E1,1.918882515E0,-8.286115614E-1,-5.387217536E0,5.778479039E0
1.078955208E1,2.018357686E0,-7.660644802E-1,-5.138137844E0,5.573247082E0
1.079953808E1,2.038011348E0,-8.983109567E-1,-4.337389727E0,4.875797624E0
1.080952408E1,2.290000615E0,-1.366240529E0,-2.928244668E0,3.960471289E0
1.081951008E1,2.858593220E0,-1.712206538E0,-1.414273067E0,3.619858386E0
1.082949508E1,3.422140263E0,-1.727358136E0,-2.942574732E-1,3.844658317E0
1.083948108E1,3.751899837E0,-1.629305592E0,3.843936181E-1,4.108423974E0
1.084946708E1,3.685473713E0,-1.530092375E0,6.209006274E-1,4.038491891E0
1.085945308E1,3.280218984E0,-1.466304223E0,3.550511205E-1,3.610532641E0
1.086943908E1,2.729220650E0,-1.447303695E0,3.974118590E-2,3.089484214E0
1.087942508E1,2.246838807E0,-1.563582595E0,-1.746446371E-2,2.737403910E0
1.088941108E1,2.173577873E0,-1.794591468E0,2.556040156E-1,2.830253119E0
1.089939608E1,2.209873295E0,-1.802746872E0,6.929782315E-1,2.934902910E0
1.090938208E1,2.331702957E0,-1.815240910E0,1.496178378E0,3.312172697E0
1.091936808E1,2.249921460E0,-1.984062305E0,2.468945879E0,3.885143956E0
1.092935408E1,2.090343928E0,-2.225555527E0,3.851392550E0,4.914861109E0
1.093934008E1,1.504744111E0,-2.387078428E0,5.142647216E0,5.865937150E0
1.094932608E1,7.425414240E-1,-2.620068337E0,5.867890238E0,6.469023241E0
1.095931208E1,5.979011893E-2,-2.579067953E0,6.040774863E0,6.568571177E0
1.096929708E1,-2.238717610E-1,-2.266816843E0,6.160157465E0,6.567809159E0
1.097928308E1,-1.094575381E-1,-1.821248485E0,6.360398873E0,6.616917774E0
1.098926908E1,1.982609564E-1,-1.414861443E0,6.793456528E0,6.942059630E0
1.099925508E1,2.758920997E-1,-1.119420347E0,6.970125471E0,7.064833151E0
1.100924108E1,1.982650495E-1,-8.569053608E-1,6.888646860E0,6.944569921E0
1.101922708E1,-4.742091894E-3,-7.111994711E-1,6.417279418E0,6.456570475E0
1.102921208E1,-2.595082015E-1,-5.565992354E-1,5.577590014E0,5.611297317E0
1.103919808E1,-5.157057095E-1,-3.359430045E-1,4.640312920E0,4.680952261E0
1.104918408E1,-5.837585288E-1,-1.191950525E-1,3.776495565E0,3.823205492E0
1.105917008E1,-6.345825273E-1,-1.063009188E-2,2.960647599E0,3.027910531E0
1.106915608E1,-6.053347546E-1,8.302724630E-2,2.307448121E0,2.386973088E0
1.107914208E1,-7.018781322E-1,1.989512202E-1,1.757751378E0,1.903130160E0
1.108912808E1,-8.411845368E-1,2.499376251E-1,1.414190036E0,1.664329805E0
1.109911308E1,-9.878268582E-1,2.551249824E-1,1.205545009E0,1.579312961E0
1.110909908E1,-9.209066445E-1,2.290529788E-2,7.812909222E-1,1.207894534E0
1.111908508E1,-5.516941524E-1,-5.072751939E-2,3.059391868E-1,6.328811144E-1
1.112907108E1,-1.624526078E-1,2.145040829E-1,5.598478753E-2,2.748402223E-1
1.113905708E1,-1.450197190E-1,3.893760306E-1,1.776500694E-1,4.518893219E-1
1.114904308E1,-2.861416841E-1,2.436723335E-1,5.035154343E-1,6.283160526E-1
1.115902808E1,-4.603781855E-1,7.055177316E-2,1.018614203E0,1.120044874E0
1.116901408E1,-6.765906787E-1,-1.479095592E-1,1.407696118E0,1.568840510E0
1.117900008E1,-8.665123361E-1,-2.630836277E-1,1.540757697E0,1.787173999E0
1.118898608E1,-1.009316545E0,-2.364573079E-1,1.315351042E0,1.674747835E0
1.119897208E1,-1.139091403E0,-2.570361449E-1,1.078813627E0,1.589791070E0
1.120895808E1,-1.136432675E0,-3.301222475E-1,7.724277127E-1,1.413189475E0
1.121894408E1,-1.064563377E0,-2.139977141E-1,3.189504111E-1,1.131732995E0
1.122892908E1,-1.155243167E0,-3.886571154E-2,-2.443306021E-1,1.181437583E0
1.123891508E1,-1.602471550E0,5.469909444E-2,-7.732966089E-1,1.780138956E0
1.124890108E1,-2.007325745E0,-7.892922521E-2,-1.279312313E0,2.381643647E0
1.125888708E1,-2.068593455E0,-8.557020038E-2,-1.685787941E0,2.669884290E0
1.126887308E1,-2.011173797E0,1.597362837E-1,-2.040029222E0,2.869155790E0
1.127885908E1,-1.887537346E0,6.916364416E-2,-2.269386256E0,2.952574270E0
1.128884408E1,-1.461537865E0,-1.935831839E-1,-2.494339167E0,2.897463591E0
1.129883008E1,-8.454038876E-1,-5.251355141E-2,-2.806793321E0,2.931817551E0
1.130881608E1,-1.049879265E-1,-1.675839780E-1,-3.273136836E0,3.279105305E0
1.131880208E1,6.820338517E-1,-1.818918224E-1,-3.883375651E0,3.947006619E0
1.132878808E1,1.214124629E0,1.002743398E-1,-4.124542891E0,4.300698503E0
1.133877408E1,1.267139579E0,1.495466334E-1,-3.890429732E0,4.094319285E0
1.134876008E1,1.037452177E0,-3.189454409E-1,-3.305227525E0,3.478873698E0
1.135874508E1,8.219928056E-1,-7.929184029E-1,-2.444250748E0,2.697916508E0
1.136873108E1,7.751308805E-1,-1.078692589E0,-1.515265006E0,2.015051767E0
1.137871708E1,9.342113990E-1,-1.356495559E0,-7.472624660E-1,1.808654841E0
1.138870308E1,1.322143167E0,-1.533797171E0,-2.497988999E-1,2.040342081E0
1.139868908E1,1.837144872E0,-1.722322513E0,-8.611793831E-2,2.519704828E0
1.140867508E1,2.543035364E0,-1.886020578E0,-1.358894379E-1,3.169001171E0
1.141866108E1,3.362777576E0,-1.896870672E0,-1.314714280E-1,3.863117408E0
1.142864608E1,4.214225146E0,-1.969530220E0,2.014965132E-2,4.651789857E0
1.143863208E1,5.035292922E0,-2.200210479E0,3.790130103E-1,5.508062438E0
1.144861808E1,5.639283986E0,-2.455595516E0,1.037488138E0,6.237616119E0
1.145860408E1,5.719355757E0,-2.622602520E0,1.610932763E0,6.494934844E0
1.146859008E1,5.140566192E0,-2.894904137E0,1.745158814E0,6.152354836E0
1.147857608E1,4.297162052E0,-2.964947641E0,2.065176050E0,5.614398306E0
1.148856108E1,3.573914686E0,-3.048907226E0,2.386638132E0,5.269226037E0
1.149854708E1,3.012497199E0,-3.172916145E0,2.907758071E0,5.253341150E0
1.150853308E1,2.685010437E0,-3.166080750E0,3.548942105E0,5.461532608E0
1.151851908E1,2.570708481E0,-3.147901171E0,3.840481938E0,5.591701476E0
1.152850508E1,2.799483717E0,-3.121762948E0,3.645567051E0,5.556318215E0
1.153849108E1,3.445256646E0,-2.942804235E0,3.382640275E0,5.654391687E0
1.154847708E1,4.037131695E0,-2.650243770E0,3.257669197E0,5.825344020E0
1.155846208E1,4.020965313E0,-2.309364400E0,3.212672533E0,5.641151548E0
1.156844808E1,3.341473246E0,-2.082038543E0,3.093295779E0,5.006875944E0
1.157843408E1,2.446819430E0,-2.056187271E0,2.903452474E0,4.317970320E0
1.158842008E1,1.555141262E0,-2.065799217E0,2.671791637E0,3.718126047E0
1.159840558E1,7.564601362E-1,-2.143895652E0,2.176294197E0,3.147185558E0
1.160839158E1,1.032396090E-1,-2.031966058E0,1.743790273E0,2.679617322E0
1.161837658E1,-3.411464417E-1,-2.047481790E0,1.595401973E0,2.617989693E0
1.162836258E1,-6.881032616E-1,-2.027479197E0,1.877018497E0,2.847341994E0
1.163834858E1,-7.894694227E-1,-2.089689917E0,2.026307268E0,3.015955415E0
1.164833458E1,-7.661969197E-1,-1.987442288E0,2.151453763E0,3.027496963E0
1.165832058E1,-8.520767301E-1,-1.576665156E0,2.271580423E0,2.893438333E0
1.166830658E1,-1.146713249E0,-1.206916766E0,2.190582453E0,2.751408883E0
1.167829258E1,-1.369947664E0,-1.147123139E0,1.972116443E0,2.661182324E0
1.168827758E1,-1.637806274E0,-1.018804237E0,1.998125443E0,2.777206645E0
1.169826358E1,-1.964922321E0,-9.289649847E-1,2.151888796E0,3.058516154E0
1.170824958E1,-2.185264703E0,-9.414470360E-1,2.326641022E0,3.327906668E0
1.171823558E1,-2.421624362E0,-7.681709397E-1,2.573827386E0,3.616481516E0
1.172822158E1,-2.338971630E0,-5.414705881E-1,2.809128115E0,3.695291524E0
1.173820758E1,-1.882560196E0,-5.026129165E-1,2.981326277E0,3.561595008E0
1.174819258E1,-1.036481540E0,-7.843156868E-1,3.322591709E0,3.567780927E0
1.175817858E1,-2.928221279E-1,-1.146810605E0,3.721638742E0,3.905318718E0
1.176816458E1,4.594625115E-2,-1.472484145E0,3.778817202E0,4.055832844E0
1.177815058E1,1.813315129E-1,-1.761129022E0,3.364504259E0,3.801887091E0
1.178813658E1,4.620118976E-2,-1.949792651E0,2.703759534E0,3.333787868E0
1.179812258E1,-6.461933434E-2,-2.085110670E0,1.718717413E0,2.702933907E0
1.180810858E1,-6.055844307E-2,-2.172008480E0,5.985984698E-1,2.253798636E0
1.181809358E1,-7.856611311E-2,-2.052145822E0,8.619146705E-2,2.055457146E0
1.182807958E1,-1.492022324E-1,-2.044533332E0,-7.294693887E-3,2.049983186E0
1.183806558E1,-5.454428941E-1,-2.069089299E0,-2.643093503E-1,2.156037548E0
1.184805158E1,-1.262565887E0,-1.985707127E0,-2.769524923E-1,2.369347609E0
1.185803758E1,-1.918623483E0,-1.863778647E0,2.204947016E-1,2.683915950E0
1.186802358E1,-2.329320801E0,-2.080504233E0,5.810844509E-1,3.176773898E0
1.187800958E1,-2.449984528E0,-2.569668261E0,6.629665200E-1,3.611806164E0
1.188799458E1,-2.422323105E0,-2.981626531E0,2.078136988E-1,3.847198010E0
1.189798058E1,-2.180407421E0,-3.277659658E0,-9.163509326E-1,4.041896632E0
1.190796658E1,-1.723555691E0,-2.803183250E0,-1.759621317E0,3.731587831E0
1.191795258E1,-1.574409592E0,-2.024855697E0,-2.016213659E0,3.262502671E0
1.192793858E1,-1.963671602E0,-1.427881584E0,-1.994713154E0,3.142249600E0
1.193792458E1,-2.364766037E0,-1.271318876E0,-1.813533815E0,3.239949845E0
1.194790958E1,-2.708795741E0,-1.291826816E0,-1.325477396E0,3.280744004E0
1.195789558E1,-2.889277654E0,-1.365877709E0,-6.088648649E-1,3.253346539E0
1.196788158E1,-3.094454697E0,-1.598043453E0,-2.525237024E-1,3.491870698E0
1.197786758E1,-3.243987297E0,-1.718045275E0,-3.824653526E-1,3.690719834E0
1.198785358E1,-3.147957305E0,-1.977635922E0,-1.325739205E0,3.946930893E0
1.199783958E1,-2.860705234E0,-1.602936696E0,-2.242408372E0,3.972585530E0
1.200782558E1,-2.600617574E0,-7.348853722E-1,-2.712062581E0,3.828648811E0
1.201781058E1,-2.499144993E0,-4.859489366E-1,-2.693114094E0,3.706040419E0
1.202779658E1,-2.654191518E0,-6.041363677E-1,-2.278711395E0,3.549963237E0
1.203778258E1,-2.950930111E0,-9.043286186E-1,-1.884695745E0,3.616334722E0
1.204776858E1,-3.187003841E0,-1.206346955E0,-1.763834821E0,3.837105646E0
1.205775458E1,-2.936166476E0,-1.223323761E0,-1.888047223E0,3.698961600E0
1.206774058E1,-2.266266766E0,-8.429551468E-1,-1.933640156E0,3.096046300E0
1.207772558E1,-1.591573509E0,-6.194461325E-1,-1.900644464E0,2.555243457E0
1.208771158E1,-9.990242761E-1,-6.320584305E-1,-1.806956867E0,2.159314818E0
1.209769758E1,-4.028433377E-1,-6.262699062E-1,-1.448921181E0,1.629070084E0
1.210768358E1,1.381170809E-1,-5.929353318E-1,-1.197655946E0,1.343513454E0
1.211766958E1,6.555488884E-1,-5.796131818E-1,-1.285316234E0,1.554906301E0
1.212765558E1,1.020237975E0,-3.195536976E-1,-1.400701533E0,1.762091052E0
1.213764158E1,1.157865059E0,-3.212147453E-1,-1.651619444E0,2.042468407E0
1.214762658E1,1.423718074E0,-5.092427820E-1,-1.768110159E0,2.326481227E0
1.215761258E1,1.663185529E0,-5.803305987E-1,-1.807992994E0,2.524244119E0
1.216759858E1,1.856359992E0,-5.857980376E-1,-1.769726475E0,2.630810438E0
1.217758458E1,1.890278521E0,-6.767400751E-1,-1.720735141E0,2.644250260E0
1.218757058E1,2.046824856E0,-1.035848871E0,-1.865703843E0,2.956911514E0
1.219755658E1,2.676685172E0,-1.026456196E0,-2.176303260E0,3.599243214E0
1.220754158E1,3.158248404E0,-7.069111231E-1,-2.632752117E0,4.172006715E0
1.221752758E1,3.351481925E0,-5.963575244E-1,-2.918980340E0,4.484252403E0
1.222751358E1,3.220501370E0,-6.722654933E-1,-2.971685972E0,4.433338188E0
1.223749958E1,2.936586306E0,-7.716713753E-1,-2.900545238E0,4.199068769E0
1.224748558E1,2.781999958E0,-8.382901651E-1,-2.527741971E0,3.851198987E0
1.225747158E1,2.677506706E0,-8.852567554E-1,-1.803571183E0,3.347475271E0
1.226745758E1,2.530713526E0,-1.054101539E0,-1.043888061E0,2.933486542E0
1.227744258E1,2.493807655E0,-1.152137419E0,-2.524677153E-1,2.758665837E0
1.228742858E1,2.467333801E0,-1.105276663E0,7.849232125E-1,2.815222378E0
1.229741458E1,2.348304371E0,-1.230148046E0,2.201547006E0,3.445955144E0
1.230740058E1,2.124935471E0,-1.467772458E0,3.433046490E0,4.295988239E0
1.231738658E1,1.731738870E0,-1.590343840E0,4.110362223E0,4.735313152E0
1.232737258E1,1.466112726E0,-1.661302725E0,4.492842633E0,5.009495802E0
1.233735758E1,1.366082069E0,-1.580502099E0,4.442053717E0,4.908768515E0
1.234734358E1,1.948498662E0,-1.518333625E0,4.610162337E0,5.230256285E0
1.235732958E1,2.724545217E0,-1.311538657E0,4.761775961E0,5.640726069E0
1.236731558E1,3.011497909E0,-1.053059565E0,4.764784938E0,5.734215693E0
1.237730158E1,2.846569591E0,-1.162148729E0,4.670414386E0,5.591629337E0
1.238728758E1,2.322411731E0,-1.209770207E0,4.341475761E0,5.070064298E0
1.239727358E1,1.753178270E0,-1.061994549E0,3.800542824E0,4.318054218E0
1.240725858E1,1.168298246E0,-9.329342209E-1,3.290964997E0,3.614655953E0
1.241724458E1,6.381002122E-1,-8.389259036E-1,2.963706862E0,3.145556694E0
1.242723058E1,1.810432452E-1,-7.597448096E-1,2.878607655E0,2.982678471E0
1.243721658E1,-1.241574383E-1,-7.968918782E-1,2.791256100E0,2.905436688E0
1.244720258E1,-3.234755713E-1,-6.549080336E-1,2.626772754E0,2.726440185E0
1.245718858E1,-4.263362807E-1,-4.492961039E-1,2.537320880E0,2.611824431E0
1.246717358E1,-4.930863404E-1,-1.973536147E-1,2.337928487E0,2.397497070E0
1.247715958E1,-6.804024786E-1,-9.358468652E-3,2.186945193E0,2.290363375E0
1.248714558E1,-1.011604561E0,9.028217912E-2,2.261627001E0,2.479203773E0
1.249713158E1,-1.335537384E0,1.136603706E-1,2.370125595E0,2.722879748E0
1.250711758E1,-1.537521263E0,1.264090548E-1,2.188387116E0,2.677496789E0
1.251710358E1,-1.469764313E0,2.087138776E-1,1.801451129E0,2.334308203E0
1.252708958E1,-1.123216213E0,2.369019887E-1,1.229403988E0,1.682014084E0
1.253707458E1,-7.339226282E-1,4.784699093E-1,5.947062707E-1,1.058891603E0
1.254706058E1,-4.690186161E-1,6.762470086E-1,3.264687610E-1,8.853645186E-1
1.255704658E1,-3.954705834E-1,5.696098749E-1,4.395901644E-1,8.210310010E-1
1.256703258E1,-3.716063422E-1,4.359874025E-1,5.698989101E-1,8.080600574E-1
1.257701858E1,-4.012686825E-1,4.327965769E-1,6.850808358E-1,9.042484084E-1
1.258700458E1,-4.572382307E-1,4.108568005E-1,9.187192011E-1,1.105402678E0
1.259699158E1,-3.694545668E-1,1.762681165E-1,9.872614324E-1,1.068762023E0
1.260697658E1,-1.003972775E-1,5.391191304E-2,9.762406003E-1,9.828691762E-1
1.261696258E1,1.667614210E-1,1.287992504E-1,8.714327681E-1,8.965454187E-1
1.262694858E1,1.831014651E-1,1.353000386E-1,6.687308514E-1,7.064228186E-1
1.263693458E1,1.108632088E-2,6.861882985E-2,5.648913181E-1,5.691516947E-1
1.264692058E1,-2.354170883E-1,3.438411310E-2,4.041350241E-1,4.689654469E-1
1.265690658E1,-4.873163080E-1,9.564773038E-2,2.152020760E-1,5.412371069E-1
1.266689158E1,-6.923325527E-1,1.035622291E-1,1.236545777E-1,7.108726703E-1
1.267687758E1,-8.631291372E-1,8.024689525E-2,7.459994674E-2,8.700555291E-1
1.268686358E1,-1.023646317E0,7.804629564E-2,-4.429733634E-2,1.027572508E0
1.269684958E1,-1.458321896E0,1.037310675E-1,-8.280534446E-2,1.464349553E0
1.270683558E1,-1.911836620E0,2.344441116E-2,-3.837551022E-1,1.950112017E0
1.271682158E1,-2.145295476E0,1.871722966E-2,-7.093315780E-1,2.259600474E0
1.272680758E1,-2.149601950E0,-1.742748007E-2,-1.317950714E0,2.521524607E0
1.273679258E1,-1.466209790E0,-7.919892803E-2,-2.305811486E0,2.733644129E0
1.274677858E1,-3.039686751E-1,1.666383371E-1,-3.185228627E0,3.204036001E0
1.275676458E1,5.399061656E-1,4.585282727E-1,-3.704166092E0,3.771285362E0
1.276675058E1,1.070339257E0,3.997156620E-1,-4.011018029E0,4.170571228E0
1.277673658E1,1.136950738E0,4.638566941E-2,-4.246666667E0,4.396474314E0
1.278672258E1,1.093131704E0,-2.359401217E-1,-4.312140280E0,4.454790507E0
1.279670758E1,1.415917304E0,-6.352765918E-1,-4.668433349E0,4.919620727E0
1.280669358E1,2.275366788E0,-1.167021798E0,-5.160626235E0,5.759452842E0
1.281667958E1,3.543837193E0,-1.665724682E0,-5.203260623E0,6.512091974E0
1.282666558E1,4.385952607E0,-2.309305197E0,-4.518503723E0,6.707186195E0
1.283665158E1,4.546441135E0,-3.057654076E0,-3.022775434E0,6.257519218E0
1.284663758E1,4.150922604E0,-3.906810999E0,-8.855336210E-1,5.768665395E0
1.285662358E1,3.450127376E0,-4.741962671E0,1.099668014E0,5.966477908E0
1.286660858E1,3.434394273E0,-5.491652316E0,2.272797229E0,6.864321993E0
1.287659458E1,4.226776194E0,-5.775354542E0,2.495101936E0,7.579306746E0
1.288658058E1,5.461833270E0,-5.339828192E0,2.505899405E0,8.038962596E0
1.289656658E1,6.370282422E0,-4.847282134E0,2.690521438E0,8.444853334E0
1.290655258E1,6.541829204E0,-4.588802458E0,3.267384346E0,8.632985451E0
1.291653858E1,6.309732749E0,-4.713966787E0,4.305363942E0,8.976099872E0
1.292652358E1,5.871195084E0,-4.896412194E0,5.334831161E0,9.322349898E0
1.293650958E1,5.321023546E0,-4.847848145E0,6.275237685E0,9.549530419E0
1.294649558E1,4.827406864E0,-4.734824390E0,6.829486486E0,9.610634979E0
1.295648158E1,4.144186612E0,-4.107378097E0,6.880124543E0,9.021139132E0
1.296646758E1,3.370053851E0,-3.759367316E0,6.430552597E0,8.175702556E0
1.297645358E1,2.566083918E0,-3.803538353E0,5.583620832E0,7.226929657E0
1.298643958E1,1.697389986E0,-3.682139631E0,4.271248947E0,5.889214938E0
1.299642458E1,1.095913224E0,-3.402378429E0,2.625868190E0,4.435356639E0
1.300641058E1,6.485883629E-1,-2.719865690E0,1.204415327E0,3.044495445E0
1.301639658E1,1.852386224E-1,-2.236899126E0,2.073519149E-1,2.254113099E0
1.302638258E1,-3.903384823E-1,-2.015859464E0,-3.019630802E-1,2.075387966E0
1.303636858E1,-1.093086095E0,-1.808520412E0,-2.960989076E-1,2.133836418E0
1.304635458E1,-1.899018939E0,-1.852860726E0,-9.303212464E-2,2.654810874E0
1.305633958E1,-2.766340529E0,-1.545852376E0,4.118305081E-1,3.195606963E0
1.306632558E1,-3.334560667E0,-1.166458127E0,1.099320104E0,3.699787034E0
1.307631158E1,-3.346797135E0,-8.808365527E-1,1.865943871E0,3.931751598E0
1.308629758E1,-2.835535895E0,-7.028999332E-1,2.596204680E0,3.908274666E0
1.309628358E1,-2.005752259E0,-8.812961438E-1,3.201293267E0,3.879175634E0
1.310626958E1,-1.585686532E0,-1.087299398E0,3.660805480E0,4.134987125E0
1.311625558E1,-1.687466092E0,-1.100477268E0,3.523176057E0,4.058492522E0
1.312624058E1,-1.967291028E0,-1.185504847E0,2.481688423E0,3.381483870E0
1.313622658E1,-2.242300199E0,-1.071256393E0,1.368255479E0,2.836833357E0
1.314621258E1,-2.618578466E0,-6.741336787E-1,7.027672014E-1,2.793795114E0
1.315619858E1,-2.883388923E0,-4.761744386E-1,1.643922754E-1,2.927063135E0
1.316618458E1,-2.938475541E0,-2.442610019E-1,-1.458166945E-1,2.952213484E0
1.317617058E1,-2.932613123E0,-1.469452071E-1,-2.224888945E-1,2.944709482E0
1.318615658E1,-2.956622375E0,-2.336553222E-1,-8.215922713E-2,2.966978399E0
1.319614158E1,-2.869303565E0,-3.376240790E-1,1.980978191E-1,2.895882545E0
1.320612758E1,-2.435105118E0,-8.852672803E-1,4.362945275E-1,2.627506044E0
1.321611358E1,-1.627487692E0,-1.472220435E0,8.007808614E-1,2.336107700E0
1.322609958E1,-1.010722800E0,-1.698316770E0,8.568205762E-1,2.154061728E0
1.323608558E1,-8.873067892E-1,-1.496048716E0,9.934383579E-1,2.003096321E0
1.324607158E1,-9.852955985E-1,-1.397105057E0,1.087493234E0,2.026166698E0
1.325605658E1,-1.188739527E0,-1.719143382E0,9.434073150E-1,2.293157865E0
1.326604258E1,-1.142478696E0,-1.770634256E0,1.016036750E0,2.339387508E0
1.327602858E1,-9.751144266E-1,-1.568938352E0,8.549746102E-1,2.035533660E0
1.328601458E1,-9.427337158E-1,-1.319023970E0,6.065778726E-1,1.731042405E0
1.329600058E1,-1.148179146E0,-1.072252466E0,5.815576734E-1,1.675186566E0
1.330598658E1,-1.469469613E0,-1.247556669E0,2.777520990E-1,1.947533007E0
1.331597158E1,-1.597721856E0,-1.603512939E0,-1.166970489E-1,2.266624600E0
1.332595758E1,-1.150370682E0,-2.323551353E0,-1.198672777E0,2.856406838E0
1.333594358E1,-4.471342421E-1,-1.855846606E0,-2.580824749E0,3.210101563E0
1.334592958E1,-2.620722055E-2,-4.846455923E-1,-3.607561904E0,3.640064705E0
1.335591558E1,-3.750760800E-1,5.676462337E-1,-3.841755754E0,3.901537080E0
1.336590158E1,-1.466476423E0,8.749402204E-1,-3.116908590E0,3.554038920E0
1.337588758E1,-2.706214195E0,4.479472974E-1,-1.931149973E0,3.354637428E0
1.338587258E1,-3.773629845E0,8.134061694E-2,-6.980354152E-1,3.838509078E0
1.339585858E1,-4.475179948E0,-1.167726973E-1,2.915491160E-1,4.486186835E0
1.340584458E1,-4.840508135E0,-5.288636988E-1,9.242138296E-1,4.956247272E0
1.341583058E1,-4.534426276E0,-1.279229282E0,4.311280739E-1,4.731101418E0
1.342581658E1,-3.046312231E0,-1.458414575E0,-1.038214070E0,3.533394931E0
1.343580258E1,-1.251132826E0,-6.571359690E-1,-2.508734427E0,2.879393939E0
1.344578858E1,-3.285626489E-1,6.528489366E-2,-3.552731978E0,3.568489882E0
1.345577358E1,-9.867117941E-2,1.398348467E-1,-3.879478481E0,3.883251611E0
1.346575958E1,-2.265456927E-1,-7.477127016E-5,-3.401502516E0,3.409038328E0
1.347574558E1,-1.466727269E-1,-7.182287744E-1,-2.855598276E0,2.948187066E0
1.348573158E1,4.679468215E-1,-9.652689580E-1,-2.264553532E0,2.505777542E0
1.349571758E1,9.235279512E-1,-6.970994952E-1,-1.617024100E0,1.988370821E0
1.350570358E1,9.766399652E-1,-6.600004468E-1,-8.420399114E-1,1.448605337E0
1.351568858E1,7.479021513E-1,-8.946180745E-1,-1.468463892E-1,1.175271453E0
1.352567458E1,7.237876493E-1,-1.694726579E0,-4.194079514E-1,1.889939091E0
1.353566058E1,1.509686762E0,-1.733603839E0,-1.768145973E0,2.900151129E0
1.354564658E1,2.230111678E0,-7.859162159E-1,-3.011904291E0,3.829181355E0
1.355563258E1,2.002181364E0,-5.843914899E-1,-4.009384902E0,4.519448077E0
1.356561858E1,1.741640545E0,-1.066039069E0,-4.729642587E0,5.151627906E0
1.357560458E1,2.094229403E0,-1.430161998E0,-5.082441945E0,5.679997910E0
1.358558958E1,3.084761183E0,-1.617468342E0,-4.480654696E0,5.675228797E0
1.359557521E1,3.947367579E0,-1.883459205E0,-2.986960069E0,5.296325125E0
1.360556121E1,4.625504261E0,-2.442236675E0,-9.813803760E-1,5.321927948E0
1.361554721E1,5.241096786E0,-2.766634060E0,1.571056799E0,6.131197192E0
1.362553321E1,5.203626659E0,-3.024797109E0,3.572535328E0,6.999295438E0
1.363551921E1,4.602509501E0,-3.185347325E0,4.404347363E0,7.122345609E0
1.364550421E1,3.702338253E0,-2.969698504E0,4.284760108E0,6.394183836E0
1.365549021E1,2.811716092E0,-2.717664798E0,3.703565876E0,5.385893569E0
1.366547621E1,1.769381490E0,-2.360311921E0,3.222177182E0,4.368547701E0
1.367546221E1,4.415367025E-1,-2.061578697E0,3.024666424E0,3.686959229E0
1.368544821E1,-3.966183919E-1,-1.769356201E0,3.708853805E0,4.128380319E0
1.369543421E1,-3.548388666E-1,-1.740292761E0,5.272512707E0,5.563624696E0
1.370542021E1,1.354519200E-1,-2.057780491E0,6.558855711E0,6.875419697E0
1.371540521E1,8.284072012E-1,-2.099176439E0,6.973451368E0,7.329517323E0
1.372539121E1,1.494324372E0,-1.674453405E0,6.589997982E0,6.961671706E0
1.373537721E1,2.083472865E0,-1.123438700E0,5.805771757E0,6.269765497E0
1.374536321E1,2.191568586E0,-8.404029103E-1,4.869695681E0,5.405847385E0
1.375534921E1,1.798967816E0,-8.348072711E-1,4.018438146E0,4.481186619E0
1.376533521E1,1.230115010E0,-7.579476678E-1,3.468344961E0,3.757270868E0
1.377532021E1,7.144823903E-1,-5.961677822E-1,3.228020890E0,3.359467216E0
1.378530621E1,3.099819517E-1,-5.007884391E-1,3.162064590E0,3.216446850E0
1.379529221E1,-2.470214725E-1,-5.454560503E-1,2.952695385E0,3.012798027E0
1.380527821E1,-7.972701931E-1,-4.458272432E-1,2.538210826E0,2.697575928E0
1.381526421E1,-1.153871410E0,-2.228034747E-1,2.117729362E0,2.421949271E0
1.382525021E1,-1.328075752E0,-7.506348476E-2,1.536496246E0,2.032299300E0
1.383523621E1,-1.298102340E0,5.656464860E-2,9.464561263E-1,1.607497572E0
1.384522121E1,-6.737407458E-1,-2.141604128E-1,4.007144395E-1,8.126274282E-1
1.385520721E1,3.599107414E-1,-7.163467750E-2,9.014535427E-2,3.778802108E-1
1.386519321E1,8.402384573E-1,2.819157551E-1,9.137911677E-2,8.909698654E-1
1.387517921E1,7.920106226E-1,2.407534765E-1,4.217620039E-1,9.290458819E-1
1.388516521E1,4.230951691E-1,-1.316378544E-1,8.849621288E-1,9.896949106E-1
1.389515121E1,-5.054508626E-2,-2.571766973E-1,1.244176540E0,1.271483355E0
1.390513721E1,-4.072117925E-1,-2.196296791E-1,1.350077655E0,1.427153921E0
1.391512221E1,-6.783752489E-1,-1.748451235E-1,1.381516964E0,1.548984480E0
1.392510821E1,-9.390949935E-1,-1.685258183E-1,1.367906985E0,1.667773929E0
1.393509421E1,-1.196810439E0,-2.351068204E-1,1.249190966E0,1.745883304E0
1.394508021E1,-1.341400387E0,-2.493368237E-1,9.507303679E-1,1.662952820E0
1.395506621E1,-1.200446822E0,-2.076018103E-1,5.309412146E-1,1.328935536E0
1.396505221E1,-9.493387306E-1,-1.982386639E-1,-3.564579606E-2,9.704706157E-1
1.397503721E1,-6.237388659E-1,-9.148297794E-2,-5.153701158E-1,8.142638788E-1
1.398502321E1,-4.216672790E-1,8.621485591E-2,-6.033250666E-1,7.411055468E-1
1.399500921E1,-5.728061092E-1,1.217049699E-1,-3.479619197E-1,6.811728386E-1
1.400499521E1,-8.720057952E-1,5.160869479E-2,-1.548202372E-1,8.871453489E-1
1.401498121E1,-1.064484440E0,1.002825259E-1,7.516833264E-2,1.071836735E0
1.402496721E1,-1.082139523E0,1.417467400E-1,3.823622954E-1,1.156425099E0
1.403495221E1,-1.106228882E0,-2.342979312E-2,4.163404655E-1,1.182214311E0
1.404493821E1,-1.015823327E0,-2.562922329E-1,1.621619829E-1,1.060131713E0
1.405492421E1,-6.669521284E-1,-3.267456266E-1,-2.771451581E-1,7.927151347E-1
1.406491021E1,-3.033365911E-1,-2.599675003E-1,-8.436713576E-1,9.334760567E-1
1.407489621E1,1.274348027E-1,-4.786998510E-2,-1.486819471E0,1.493038280E0
1.408488221E1,2.449574053E-1,1.813923240E-1,-1.888669367E0,1.913107232E0
1.409486821E1,3.891626072E-1,1.004108723E-1,-1.998528024E0,2.038539708E0
1.410485321E1,3.811291176E-1,8.154980108E-2,-1.887367777E0,1.927191454E0
1.411483921E1,1.764052337E-1,1.660170704E-3,-1.944536004E0,1.952521916E0
1.412482521E1,5.098848063E-1,-2.099303909E-1,-2.169817529E0,2.238785696E0
1.413481121E1,1.144676664E0,-2.220597088E-1,-2.414012457E0,2.680867644E0
1.414479721E1,1.612243416E0,-4.059838772E-1,-2.808305411E0,3.263545775E0
1.415478321E1,1.973248757E0,-6.825896296E-1,-3.083018128E0,3.723525216E0
1.416476921E1,2.223914214E0,-1.053285268E0,-3.412777702E0,4.207404892E0
1.417475421E1,2.400814707E0,-1.263518983E0,-3.466567408E0,4.401986037E0
1.418474021E1,2.629201103E0,-1.562679785E0,-2.792302752E0,4.141451582E0
1.419472621E1,3.057889718E0,-2.258401530E0,-1.559129502E0,4.108765241E0
1.420471221E1,3.736578378E0,-2.916678876E0,-1.829649326E-1,4.743681040E0
1.421469821E1,4.605120867E0,-3.244077929E0,9.514308643E-1,5.712827715E0
1.422468421E1,5.604220573E0,-3.532992362E0,1.843818007E0,6.876698925E0
1.423466921E1,6.279363481E0,-3.549008471E0,2.648177072E0,7.683665053E0
1.424465521E1,6.352796323E0,-3.584439966E0,3.416954952E0,8.054924714E0
1.425464121E1,6.012426392E0,-3.820693499E0,4.076812654E0,8.207762871E0
1.426462721E1,5.401257285E0,-3.877472302E0,4.584503585E0,8.076264287E0
1.427461321E1,4.666571011E0,-3.763900370E0,4.848163894E0,7.710286904E0
1.428459921E1,3.872282898E0,-3.494044059E0,5.032643548E0,7.247787235E0
1.429458521E1,3.116234406E0,-3.140380483E0,5.109839659E0,6.758947239E0
1.430457021E1,2.366609665E0,-2.759927888E0,5.036213858E0,6.211400267E0
1.431455621E1,1.798772519E0,-2.384396017E0,4.501595037E0,5.402340680E0
1.432454221E1,1.626967290E0,-2.169291718E0,3.778363751E0,4.650686159E0
1.433452821E1,1.756673151E0,-2.051516662E0,2.757906798E0,3.860138738E0
1.434451421E1,1.837843614E0,-2.089414074E0,1.664309948E0,3.242413904E0
1.435450021E1,1.733073789E0,-2.222837741E0,7.183129013E-1,2.908698301E0
1.436448521E1,1.479224523E0,-2.204618841E0,3.659386361E-1,2.679992632E0
1.437447121E1,1.124363437E0,-2.038195827E0,6.879342771E-1,2.427280152E0
1.438445721E1,7.606566828E-1,-1.992750975E0,1.207350630E0,2.450989714E0
1.439444321E1,3.431578839E-1,-2.017865936E0,1.825907985E0,2.742896323E0
1.440442921E1,2.325086832E-2,-2.127383700E0,2.490068945E0,3.275171043E0
1.441441521E1,-4.566652036E-1,-2.143265907E0,2.928820619E0,3.657884918E0
1.442440121E1,-9.888659084E-1,-2.017873245E0,3.011496155E0,3.757496149E0
1.443438621E1,-1.371935132E0,-2.000743242E0,2.756388861E0,3.671901289E0
1.444437221E1,-1.995978638E0,-1.742811157E0,2.050218287E0,3.350330801E0
1.445435821E1,-2.571330040E0,-1.414397027E0,1.152968308E0,3.153029186E0
1.446434421E1,-2.716196562E0,-1.124850510E0,6.154092148E-1,3.003621303E0
1.447433021E1,-2.501783257E0,-9.489288408E-1,4.381941417E-1,2.711346440E0
1.448431621E1,-2.222422004E0,-7.234333080E-1,5.626073956E-1,2.403963893E0
1.449430121E1,-2.134472280E0,-5.566151690E-1,7.984112772E-1,2.345901304E0
1.450428721E1,-2.125461720E0,-3.156853259E-1,1.270963658E0,2.496516247E0
1.451427321E1,-2.245927811E0,-2.396808779E-1,1.552240459E0,2.740636623E0
1.452425921E1,-2.708654823E0,-2.596982360E-1,1.215551934E0,2.980238351E0
1.453424521E1,-3.171564853E0,-1.728495419E-2,8.613232246E-1,3.286487500E0
1.454423121E1,-3.256643595E0,7.568343580E-2,9.820691049E-1,3.402339668E0
1.455421721E1,-3.208464877E0,-1.287977886E-1,1.349986439E0,3.483288550E0
1.456420221E1,-3.101552047E0,-3.636079359E-1,1.928838569E0,3.670456928E0
1.457418821E1,-2.645820059E0,-6.360039854E-1,2.847447842E0,3.938632259E0
1.458417421E1,-2.331128175E0,-1.050656360E0,3.681991696E0,4.482755872E0
1.459416021E1,-2.112264555E0,-1.733911110E0,4.051246873E0,4.886789387E0
1.460414567E1,-1.889659885E0,-2.563215859E0,4.106203684E0,5.196325501E0
1.461413167E1,-1.373173572E0,-3.732975909E0,3.347363731E0,5.198611232E0
1.462411667E1,-7.466134250E-1,-4.383616937E0,2.080484937E0,4.909373344E0
1.463410267E1,-3.591652215E-1,-3.675325286E0,6.163551481E-1,3.743916303E0
1.464408867E1,-3.880025196E-1,-2.327057928E0,-9.606997244E-1,2.547290427E0
1.465407467E1,-8.368406403E-1,-9.760757089E-1,-2.190493283E0,2.539938360E0
1.466406067E1,-1.408682544E0,2.510823637E-2,-2.834897379E0,3.165700567E0
1.467404667E1,-1.956381878E0,5.746807265E-1,-2.733700787E0,3.410397042E0
1.468403267E1,-2.328553646E0,5.553814065E-1,-2.029554520E0,3.138423512E0
1.469401767E1,-2.502508312E0,1.935445923E-1,-9.637825958E-1,2.688658448E0
1.470400367E1,-2.669173838E0,-6.647149837E-1,-3.627847210E-1,2.774517570E0
1.471398967E1,-2.530976651E0,-1.680011476E0,-7.412269700E-1,3.126931209E0
1.472397567E1,-1.659767246E0,-2.026383575E0,-1.805306783E0,3.181224651E0
1.473396167E1,-2.826620060E-1,-1.444386812E0,-2.780814142E0,3.146280084E0
1.474394767E1,5.881948113E-1,-2.567579636E-1,-3.224767499E0,3.288012045E0
1.475393267E1,1.972318465E-1,3.221155089E-1,-2.941665198E0,2.965814043E0
1.476391867E1,-8.508078843E-1,2.278955224E-1,-1.993009422E0,2.178966953E0
1.477390467E1,-1.826633332E0,-4.244278957E-1,-9.084807265E-1,2.083762366E0
1.478389067E1,-2.419780151E0,-1.069390400E0,-2.902558215E-1,2.661424477E0
1.479387667E1,-2.559529774E0,-1.198205730E0,-1.074788404E-1,2.828151576E0
1.480386267E1,-2.220500609E0,-1.287422693E0,-6.711936986E-1,2.653032440E0
1.481384867E1,-1.529999405E0,-9.906754754E-1,-1.321882381E0,2.251601454E0
1.482383367E1,-8.013813704E-1,-6.060690187E-1,-1.941473233E0,2.186058112E0
1.483381967E1,-4.214854306E-1,-3.471389607E-1,-2.398697430E0,2.460061948E0
1.484380567E1,-3.765413922E-1,-5.289351080E-1,-2.765413746E0,2.840610666E0
1.485379167E1,-1.101732373E-1,-6.440168636E-1,-2.774068794E0,2.849974305E0
1.486377767E1,1.534438026E-1,-7.028614146E-1,-2.668031877E0,2.763322867E0
1.487376367E1,7.555491400E-1,-7.260648474E-1,-2.294857897E0,2.522775739E0
1.488374867E1,1.660906284E0,-5.528063659E-1,-1.455093648E0,2.276291301E0
1.489373467E1,2.072630373E0,-5.079353446E-1,-4.196862058E-1,2.174840566E0
1.490372067E1,1.861234231E0,-7.281435326E-1,2.535446993E-1,2.014614301E0
1.491370667E1,1.647189885E0,-1.102742187E0,8.211716373E-2,1.983940039E0
1.492369267E1,1.824103827E0,-1.139373824E0,-8.138996744E-1,2.299556514E0
1.493367867E1,1.976642480E0,-7.081763144E-1,-1.825339344E0,2.782174133E0
1.494366467E1,1.781568257E0,-5.275087528E-1,-2.346135639E0,2.992758489E0
1.495364967E1,1.355141344E0,-7.260834123E-1,-2.544617035E0,2.972991934E0
1.496363567E1,1.220886934E0,-8.740644537E-1,-2.467884024E0,2.888772253E0
1.497362167E1,1.696363800E0,-9.947467455E-1,-1.679477041E0,2.586080888E0
1.498360767E1,2.265477392E0,-1.100826347E0,-9.773493055E-1,2.701743534E0
1.499359367E1,2.808806518E0,-1.236529405E0,-2.311099561E-1,3.077630718E0
1.500357967E1,3.282896424E0,-1.228268459E0,6.102772598E-1,3.557877270E0
1.501356567E1,3.640626739E0,-1.330209986E0,1.357791156E0,4.106971936E0
1.502355067E1,3.744718287E0,-1.433186178E0,1.942850837E0,4.455514229E0
1.503353667E1,3.711970371E0,-1.558527385E0,2.249650733E0,4.611795753E0
1.504352267E1,3.740960281E0,-1.444889088E0,2.441490862E0,4.695036308E0
1.505350867E1,3.653141534E0,-1.328383608E0,2.780639895E0,4.779330948E0
1.506349467E1,3.355055158E0,-1.411002719E0,3.429580261E0,5.000934368E0
1.507348067E1,2.735713398E0,-1.615922484E0,3.742718539E0,4.909508666E0
1.508346567E1,1.968415448E0,-1.585980355E0,3.955883464E0,4.694572083E0
1.509345167E1,1.263933551E0,-1.525844373E0,4.190631630E0,4.635420427E0
1.510343767E1,5.626904261E-1,-1.472568052E0,4.452738919E0,4.723553860E0
1.511342367E1,5.541581690E-2,-1.363205970E0,4.663070283E0,4.858562122E0
1.512340967E1,-2.852447212E-1,-1.197352622E0,4.531089270E0,4.695294221E0
1.513339567E1,-3.554130632E-1,-1.127380308E0,4.302677146E0,4.462099890E0
1.514338167E1,-3.111724448E-1,-8.587565893E-1,3.980432414E0,4.083887042E0
1.515336667E1,-3.064484793E-1,-5.658733580E-1,3.542728561E0,3.600701180E0
1.516335267E1,-3.713514036E-1,-3.561862113E-1,3.152925099E0,3.194637251E0
1.517333867E1,-5.179516250E-1,-1.680077550E-1,2.703166627E0,2.757464470E0
1.518332467E1,-7.043550128E-1,-2.839890316E-2,2.303626381E0,2.409069735E0
1.519331067E1,-9.077755523E-1,1.583697894E-1,2.088433642E0,2.282694137E0
1.520329667E1,-9.580978596E-1,2.270715766E-1,2.144120185E0,2.359399156E0
1.521328167E1,-8.965980148E-1,1.094095910E-1,1.936218925E0,2.136539769E0
1.522326767E1,-8.116455728E-1,4.760729894E-2,1.634540604E0,1.825584283E0
1.523325367E1,-6.102434921E-1,1.675327418E-1,1.424898042E0,1.559101911E0
1.524323967E1,-4.189220113E-1,2.825865769E-1,1.150964175E0,1.257008097E0
1.525322567E1,-4.600039637E-1,3.260397215E-1,9.288629508E-1,1.086596488E0
1.526321167E1,-5.741211480E-1,3.261577622E-1,7.737673098E-1,1.017206876E0
1.527319767E1,-5.449534822E-1,2.268744524E-1,7.963048178E-1,9.912354300E-1
1.528318267E1,-3.798403913E-1,1.757723457E-1,6.880781186E-1,8.053732909E-1
1.529316867E1,-2.567915851E-1,2.872912467E-1,5.248297048E-1,6.510947685E-1
1.530315467E1,-2.853558183E-1,3.559703759E-1,4.738104093E-1,6.577531114E-1
1.531314067E1,-4.206182885E-1,2.982531680E-1,5.889374443E-1,7.827656163E-1
1.532312667E1,-6.075034869E-1,1.308169053E-1,7.633896714E-1,9.843461483E-1
1.533311267E1,-7.479132611E-1,1.813418917E-2,8.769548786E-1,1.152715470E0
1.534309767E1,-8.010007167E-1,8.637411945E-2,8.183722097E-1,1.148388310E0
1.535308367E1,-7.997616917E-1,1.503510641E-1,8.807199007E-1,1.199121241E0
1.536306967E1,-7.021500278E-1,-2.228023052E-2,9.728205639E-1,1.199954549E0
1.537305567E1,-5.699760568E-1,-9.186977126E-2,9.585416633E-1,1.118979392E0
1.538304167E1,-4.245259827E-1,-4.735776901E-2,9.251704341E-1,1.019021786E0
1.539302767E1,-2.915526974E-1,-9.682660215E-2,8.908361685E-1,9.423202457E-1
1.540301367E1,-1.159543794E-1,-1.506179895E-1,6.920811224E-1,7.177098835E-1
1.541299867E1,1.347987860E-1,-9.578309342E-2,4.620493563E-1,4.907491430E-1
1.542298467E1,3.060853672E-1,-1.766801991E-2,2.991389116E-1,4.283509068E-1
1.543297067E1,2.237086236E-1,-3.752362937E-2,5.204489708E-2,2.327278289E-1
1.544295667E1,-1.014877832E-1,-7.073493719E-2,-2.106857415E-1,2.443188146E-1
1.545294267E1,-5.866721964E-1,-1.193369206E-1,-5.462474710E-1,8.104393044E-1
1.546292867E1,-1.187708078E0,-3.506341338E-2,-8.384404385E-1,1.454256611E0
1.547291467E1,-1.823491039E0,1.013873573E-1,-1.074769692E0,2.119086798E0
1.548289967E1,-2.552106734E0,4.710370749E-3,-1.366428809E0,2.894891822E0
1.549288567E1,-2.994480173E0,-2.766437593E-1,-2.033811293E0,3.630403786E0
1.550287167E1,-2.318503452E0,-5.212206571E-1,-2.885834813E0,3.738338107E0
1.551285767E1,-7.930689687E-1,-3.505692297E-1,-3.623479779E0,3.725783526E0
1.552284367E1,5.873153901E-1,6.671965420E-3,-4.363495206E0,4.402848429E0
1.553282967E1,1.479696978E0,1.391779120E-1,-4.796534150E0,5.021515059E0
1.554281467E1,1.891618702E0,-1.969858249E-1,-4.774022369E0,5.138902053E0
1.555280067E1,2.028531842E0,-6.434344809E-1,-4.269333399E0,4.770341396E0
1.556278667E1,2.075381488E0,-1.492599444E0,-3.863393376E0,4.632587808E0
1.557277267E1,2.398888049E0,-2.092874895E0,-3.573562099E0,4.785930972E0
1.558275867E1,3.243438243E0,-2.633778888E0,-3.128279085E0,5.219464810E0
1.559274467E1,4.463692508E0,-3.253574976E0,-2.534605433E0,6.077378188E0
1.560273121E1,5.410253811E0,-3.766953202E0,-1.653477689E0,6.796673539E0
1.561271621E1,5.848079286E0,-4.190588946E0,-3.211767384E-1,7.201681855E0
1.562270221E1,6.095518835E0,-4.464992637E0,1.614510967E0,7.726458100E0
1.563268821E1,6.117952262E0,-4.741384381E0,3.822473976E0,8.632576268E0
1.564267421E1,5.840202502E0,-4.704059557E0,5.816791420E0,9.490585019E0
1.565266021E1,5.684246151E0,-4.690760357E0,6.968151451E0,1.014243667E1
1.566264621E1,5.371533549E0,-4.328963889E0,7.486698908E0,1.018056784E1
1.567263121E1,4.701137996E0,-3.596546626E0,7.814300859E0,9.803017087E0
1.568261721E1,4.046545127E0,-3.245718657E0,7.844405833E0,9.404462768E0
1.569260321E1,3.415072734E0,-3.107483170E0,7.400155438E0,8.722469486E0
1.570258921E1,2.674951472E0,-3.092120196E0,6.343591636E0,7.547034354E0
1.571257521E1,1.900278429E0,-2.993433521E0,5.079386775E0,6.194503399E0
1.572256121E1,1.356017257E0,-2.681395396E0,4.039006897E0,5.034107745E0
1.573254721E1,1.144488384E0,-2.536876199E0,3.161156225E0,4.211710245E0
1.574253221E1,1.466800359E0,-2.620770003E0,2.772454670E0,4.087351661E0
1.575251821E1,1.924133899E0,-2.594152892E0,2.541142327E0,4.109662373E0
1.576250421E1,1.986678641E0,-2.240231600E0,2.280175246E0,3.763605824E0
1.577249021E1,1.839172686E0,-2.062323193E0,2.073115107E0,3.454495530E0
1.578247621E1,1.817177800E0,-2.237721536E0,1.998719520E0,3.507764609E0
1.579246221E1,1.898740026E0,-2.679600009E0,2.257563478E0,3.985230577E0
1.580244721E1,2.252931021E0,-3.180007940E0,3.050151221E0,4.948895953E0
1.581243321E1,2.780857412E0,-3.502171689E0,4.020714175E0,6.013694119E0
1.582241921E1,3.029961662E0,-3.838017337E0,4.734138804E0,6.806108651E0
1.583240521E1,2.311721851E0,-3.980528016E0,5.141933856E0,6.901314728E0
1.584239121E1,5.367989552E-1,-3.989782989E0,4.946121129E0,6.377353341E0
1.585237721E1,-2.301542434E0,-3.675848904E0,3.681341486E0,5.688693864E0
1.586236321E1,-5.350303479E0,-2.889965579E0,1.640481082E0,6.298319343E0
1.587234821E1,-7.568689735E0,-2.008743110E0,-9.502950427E-1,7.888166698E0
1.588233421E1,-8.281138464E0,-1.011979367E0,-2.928256363E0,8.841721655E0
1.589232021E1,-7.251598738E0,1.352460980E-1,-2.964999096E0,7.835508625E0
1.590230621E1,-5.045520287E0,2.062236947E-1,-2.003550490E0,5.432680530E0
1.591229221E1,-2.956145827E0,-2.716815197E-1,-7.532239947E-1,3.062671283E0
1.592227821E1,-1.418899968E0,-2.981126887E-1,6.833067906E-1,1.602827647E0
1.593226321E1,-6.446584493E-1,-9.845980257E-1,1.578694724E0,1.969084767E0
1.594224921E1,-7.629107845E-1,-1.764280964E0,2.038763592E0,2.802013056E0
1.595223521E1,-1.291490893E0,-1.983067986E0,2.328951549E0,3.320319666E0
1.596222121E1,-1.797449294E0,-2.102304992E0,2.473776848E0,3.710806131E0
1.597220721E1,-2.343522518E0,-2.318237696E0,2.198574135E0,3.962329118E0
1.598219321E1,-2.603022534E0,-2.918447074E0,1.326014024E0,4.129330796E0
1.599217921E1,-2.451679051E0,-3.134056134E0,2.849435896E-2,3.979177044E0
1.600216421E1,-2.126873823E0,-2.109678623E0,-1.256608744E0,3.248599958E0
1.601215021E1,-1.560003222E0,-6.911008367E-1,-2.157931309E0,2.750981271E0
1.602213621E1,-1.048842553E0,4.034988105E-1,-2.497178575E0,2.738390554E0
1.603212221E1,-1.069104325E0,8.457468268E-1,-2.405650939E0,2.765036743E0
1.604210821E1,-1.345843102E0,6.341030556E-1,-1.488012157E0,2.104176922E0
1.605209421E1,-1.708459935E0,2.499816254E-1,5.831779003E-2,1.727636283E0
1.606207921E1,-1.991544694E0,-3.189869562E-1,1.448753951E0,2.483322564E0
1.607206521E1,-2.235115725E0,-8.789891249E-1,2.187380226E0,3.248537584E0
1.608205121E1,-2.562214231E0,-1.436281402E0,2.165353764E0,3.649192096E0
1.609203721E1,-2.883374305E0,-1.581728260E0,9.613570976E-1,3.426356540E0
1.610202321E1,-2.702743288E0,-8.965334031E-1,-6.367512596E-1,2.917883752E0
1.611200921E1,-1.941779042E0,2.079416066E-2,-1.927733738E0,2.736255764E0
1.612199521E1,-1.201736133E0,8.120116085E-1,-2.807638829E0,3.160121577E0
1.613198021E1,-8.345742595E-1,1.198371645E0,-3.089429015E0,3.417188967E0
1.614196621E1,-9.094466865E-1,1.181498043E0,-2.645796963E0,3.036984107E0
1.615195221E1,-1.149980673E0,7.833751622E-1,-1.477218489E0,2.029361145E0
1.616193821E1,-1.029206434E0,1.402969229E-1,-3.222390313E-1,1.087560161E0
1.617192421E1,-6.035197788E-1,-3.462553002E-1,5.597153628E-1,8.929782437E-1
1.618191021E1,-1.808274829E-1,-8.011354950E-1,8.055054116E-1,1.150371952E0
1.619189621E1,3.156262690E-1,-7.698543531E-1,8.268293300E-1,1.173005715E0
1.620188121E1,6.627123123E-1,-7.049566913E-1,4.286946090E-1,1.058267742E0
1.621186721E1,7.405580485E-1,-5.996097457E-1,-4.826861903E-2,9.540901058E-1
1.622185321E1,6.773379529E-1,-5.877301770E-1,-3.726475851E-1,9.711228995E-1
1.623183921E1,6.407139176E-1,-6.073076051E-1,-5.954395115E-1,1.064840393E0
1.624182521E1,3.384549683E-1,-6.467744105E-1,-1.002784621E0,1.240341041E0
1.625181121E1,4.339511096E-2,-7.369951207E-1,-2.097307231E0,2.223452847E0
1.626179621E1,8.488636851E-2,-1.937179622E-1,-3.085849349E0,3.093088837E0
1.627178221E1,-5.202501655E-2,2.469228372E-1,-3.553805526E0,3.562753319E0
1.628176821E1,-4.629351729E-1,2.411271319E-1,-3.864891433E0,3.899979109E0
1.629175421E1,-6.002774978E-1,1.458225234E-1,-3.818243515E0,3.867891005E0
1.630174021E1,-7.684913671E-1,2.006522118E-1,-3.177595671E0,3.275355636E0
1.631172621E1,-1.117495297E0,-1.506067153E-1,-2.689918005E0,2.916699676E0
1.632171221E1,-1.265858454E0,-3.696588539E-1,-2.380728936E0,2.721564910E0
1.633169721E1,-1.112232803E0,-4.504277594E-1,-2.017146874E0,2.347089365E0
1.634168321E1,-6.965127271E-1,-5.817027209E-1,-1.621538150E0,1.858196439E0
1.635166921E1,2.520149946E-2,-6.815350112E-1,-8.756320191E-1,1.109890319E0
