"Time (s)","Linear Acceleration x (m/s^2)","Linear Acceleration y (m/s^2)","Linear Acceleration z (m/s^2)","Absolute acceleration (m/s^2)"
2.198791713E-3,8.964857483E-1,4.408794755E-1,-1.562911043E-1,1.011181644E0
1.218479167E-2,9.894746035E-1,4.489492178E-1,-3.725002353E-1,1.148639115E0
2.217079169E-2,1.107246882E0,4.553595203E-1,-5.831498337E-1,1.331695040E0
3.215679171E-2,1.128293935E0,4.955275530E-1,-5.496280387E-1,1.349327885E0
4.214379168E-2,1.120508952E0,6.410208964E-1,-4.433361831E-1,1.364915775E0
5.212979170E-2,1.306815861E0,7.481781399E-1,-4.851152699E-1,1.582047739E0
6.211579166E-2,1.408160387E0,8.344783652E-1,-6.120852189E-1,1.747546318E0
7.210179168E-2,1.467037171E0,1.016191117E0,-6.952199078E-1,1.915247547E0
8.208879171E-2,1.681519473E0,1.130354494E0,-4.888327834E-1,2.084266420E0
9.207479167E-2,1.972753497E0,1.261446145E0,-1.184552336E-1,2.344575523E0
1.020607917E-1,2.299514034E0,1.513172872E0,-9.824053198E-2,2.754470573E0
1.120467917E-1,2.878600638E0,1.716713279E0,-2.579614668E-1,3.361545810E0
1.220337917E-1,3.622592171E0,2.057987190E0,-1.171159288E-1,4.167997296E0
1.320197917E-1,3.722742112E0,2.224818778E0,1.132254839E-2,4.336906227E0
1.420057917E-1,3.526057565E0,2.139552341E0,-8.608855605E-2,4.125309371E0
1.519917917E-1,3.278499610E0,1.861934143E0,-6.263888240E-1,3.822004893E0
1.619787917E-1,3.115554959E0,1.525183053E0,-1.575990679E0,3.810067279E0
1.719647917E-1,3.458339206E0,8.219197154E-1,-2.184857737E0,4.172441181E0
1.819507917E-1,2.622784368E0,7.791157579E-1,-2.072878733E0,3.432614958E0
1.919367917E-1,2.355286824E0,5.538032430E-1,-6.245446122E-1,2.498825730E0
2.019237917E-1,4.148042558E0,-5.283128911E-1,1.591424113E0,4.474148219E0
2.119097917E-1,4.083731957E0,-1.064915965E0,2.171788917E0,4.746322767E0
2.218957917E-1,2.284464178E0,-7.856722409E-1,1.808951937E0,3.018006720E0
2.318817917E-1,1.453691486E0,-5.958494014E-1,1.500678688E0,2.172623292E0
2.418687917E-1,1.480754154E0,-8.463505518E-1,1.325383840E0,2.159996400E0
2.518547917E-1,1.118713418E0,-1.238217496E0,1.839463878E0,2.483612216E0
2.618407917E-1,5.499089243E-1,-1.486562194E0,2.318735586E0,2.808701070E0
2.718277917E-1,1.865324103E-1,-1.681247578E0,2.772366085E0,3.247676318E0
2.818137917E-1,1.265027199E-1,-1.698691576E0,3.109254584E0,3.545281382E0
2.917997917E-1,-4.609737610E-1,-1.700658579E0,2.564332677E0,3.111356375E0
3.017857917E-1,-5.521538531E-1,-1.551638196E0,2.016197140E0,2.603364338E0
3.117727917E-1,-3.927990637E-1,-1.728574356E0,2.488796591E0,3.055547231E0
3.217587917E-1,-8.519070147E-1,-2.269944665E0,3.087546211E0,3.925727442E0
3.317447917E-1,-1.345940166E0,-2.469289110E0,3.138867223E0,4.214431288E0
3.417307917E-1,-2.033807200E0,-3.107547197E0,3.005422068E0,4.777633631E0
3.517177917E-1,-3.106924177E0,-3.729555872E0,2.785024137E0,5.596331324E0
3.617037917E-1,-3.243430642E0,-4.128303235E0,2.953205262E0,6.023632729E0
3.716897917E-1,-3.162254039E0,-4.922290217E0,3.812422028E0,6.983076206E0
3.816762500E-1,-3.082339266E0,-5.963171786E0,4.823211486E0,8.265809225E0
3.916632500E-1,-2.345962854E0,-6.701771017E0,5.602381039E0,9.044553598E0
4.016492500E-1,-2.344543296E0,-7.100462247E0,5.034214110E0,9.014253108E0
4.116352500E-1,-2.657210728E0,-7.349146083E0,3.558236547E0,8.586720231E0
4.216212500E-1,-2.903608010E0,-7.227456754E0,1.797104309E0,7.993538297E0
4.316082500E-1,-2.661047378E0,-6.543137226E0,-5.846033784E-1,7.087706189E0
4.415942500E-1,-2.634417989E0,-6.822311953E0,-1.317942528E0,7.431088145E0
4.515802500E-1,-3.357479998E0,-7.737843252E0,-1.173480048E0,8.516099198E0
4.615672500E-1,-4.205378016E0,-9.216853182E0,-1.516516456E0,1.024379856E1
4.715532500E-1,-4.439812187E0,-1.108457490E1,-3.619895728E-1,1.194616128E1
4.815392500E-1,-2.643926438E0,-1.161878471E1,1.341387377E0,1.199107273E1
4.915252500E-1,5.754584062E-1,-1.015849405E1,9.054425132E-1,1.021498801E1
5.015122500E-1,3.069000013E0,-7.700235715E0,-2.176150063E0,8.570182043E0
5.114982500E-1,5.248892879E0,-3.896610239E0,-6.547246649E0,9.252074713E0
5.214842500E-1,6.833929201E0,-1.390191894E0,-1.060849811E1,1.269548951E1
5.314702500E-1,6.321978573E0,-8.774279183E-1,-1.229728041E1,1.385497738E1
5.414572500E-1,4.644928127E0,-1.396775274E0,-1.175422961E1,1.271566955E1
5.514432500E-1,3.661904756E0,-3.535470997E0,-9.280837508E0,1.058503880E1
5.614292500E-1,2.430287012E0,-6.369345698E0,-5.797260550E0,8.948915547E0
5.714152500E-1,6.082349735E-1,-8.593661031E0,-3.041071372E0,9.136141132E0
5.814022500E-1,3.065882277E-1,-9.575821352E0,-1.214439794E0,9.657391724E0
5.913882500E-1,1.168557277E0,-9.877416058E0,-9.072341001E-1,9.987589689E0
6.013742500E-1,2.441156986E0,-9.182343500E0,-1.056334591E0,9.559839033E0
6.113602500E-1,3.568577932E0,-7.617187711E0,-1.933844955E0,8.631109627E0
6.213472500E-1,4.984748420E0,-5.295644876E0,-3.406820558E0,8.031064549E0
6.313332500E-1,6.352543139E0,-3.309407992E0,-5.408321307E0,8.975350965E0
6.413192500E-1,7.109225469E0,-1.634089491E0,-7.883856997E0,1.074088155E1
6.513052500E-1,7.275626702E0,-8.666897260E-1,-9.426913819E0,1.193953932E1
6.612922500E-1,7.273007149E0,-1.630566251E0,-8.858908274E0,1.157737600E1
6.712782500E-1,6.728854151E0,-3.460778080E0,-7.061543180E0,1.034987223E1
6.812642500E-1,6.054608206E0,-4.823504139E0,-5.546506215E0,9.523035435E0
6.912512500E-1,6.105409400E0,-6.287196996E0,-4.768723330E0,9.977253740E0
7.012372500E-1,6.811218030E0,-6.064107592E0,-5.285835003E0,1.054068990E1
7.112232500E-1,8.379085758E0,-4.821160283E0,-6.555349721E0,1.168012305E1
7.212092500E-1,1.008443088E1,-3.123541671E0,-8.376069764E0,1.347630526E1
7.311962500E-1,1.282345614E1,-1.344560076E0,-9.808131815E0,1.620025675E1
7.411822500E-1,1.478356445E1,-1.985907394E-1,-9.417347190E0,1.752939372E1
7.511682500E-1,1.544608673E1,1.160970515E-1,-8.564462959E0,1.766196760E1
7.611542500E-1,1.591490011E1,-1.405165297E0,-7.305785471E0,1.756795481E1
7.711412500E-1,1.504799542E1,-4.033103548E0,-5.497372647E0,1.652056889E1
7.811272500E-1,1.301099155E1,-6.851848578E0,-4.330243844E0,1.532921204E1
7.911132500E-1,1.103507822E1,-7.886867144E0,-3.345656928E0,1.397029151E1
8.010992500E-1,1.315538269E1,-8.415129164E0,-3.464905629E0,1.599637658E1
8.110862500E-1,1.507687833E1,-7.818766378E0,-2.853246526E0,1.722168353E1
8.210722500E-1,1.680192155E1,-4.290472253E0,-1.355250102E0,1.739394788E1
8.310582500E-1,1.838474880E1,-3.694300962E0,1.416219605E0,1.880565143E1
8.410452500E-1,1.744460774E1,-5.619023384E0,6.654257712E0,1.949786933E1
8.510312500E-1,1.272064104E1,-8.001900587E0,1.247949485E1,1.953414736E1
8.610172500E-1,6.913564185E0,-8.836957827E0,1.837511258E1,2.152983873E1
8.710032500E-1,1.234343277E0,-8.547248756E0,2.255023623E1,2.414730251E1
8.809902500E-1,-1.234357018E0,-7.701301078E0,2.171572161E1,2.307392989E1
8.909762500E-1,-1.048868574E0,-5.841257340E0,1.640918396E1,1.744940488E1
9.009622500E-1,-6.493900162E-1,-3.053493489E0,9.381373365E0,9.887148026E0
9.109482500E-1,7.055269410E-1,-4.850695154E-1,4.281327792E0,4.366099903E0
9.209352500E-1,2.532967628E0,1.761434539E0,1.872595371E0,3.609042818E0
9.309212500E-1,3.457657713E0,2.975956779E0,1.578873941E0,4.827479521E0
9.409072500E-1,2.795122279E0,2.294780713E0,2.495788692E0,4.394051464E0
9.508932500E-1,1.102972568E0,3.581764573E-1,3.134201145E0,3.341864102E0
9.608802500E-1,-5.663613081E-1,-1.494458274E0,3.425267939E0,3.779766013E0
9.708662500E-1,-1.710593291E0,-2.334326017E0,3.810336910E0,4.784754407E0
9.808522500E-1,-1.911008800E0,-2.138696308E0,4.063923052E0,4.974077513E0
9.908382500E-1,-1.209974129E0,-1.784840358E0,3.170764369E0,3.834506381E0
1.000825250E0,-5.952658492E-1,-1.205161432E0,1.411037217E0,1.948789762E0
1.010811250E0,-2.360442021E-1,-6.792523313E-1,-6.113281506E-1,9.438340440E-1
1.020797250E0,1.304842718E-1,-3.892280960E-1,-2.191157527E0,2.229281491E0
1.030784250E0,3.122088638E-1,-2.060538331E-1,-2.713430829E0,2.739094635E0
1.040770250E0,3.140071750E-1,-8.368067265E-2,-2.070573322E0,2.095919093E0
1.050756250E0,2.005375698E-1,-3.307293347E-1,-9.974870431E-1,1.069849340E0
1.060742250E0,-8.016620368E-2,-6.571574575E-1,-3.748790288E-1,7.608001251E-1
1.070729250E0,-3.362046674E-1,-7.351242310E-1,-2.915187836E-1,8.593162483E-1
1.080715250E0,-4.773386192E-1,-7.141227865E-1,-6.353233695E-1,1.068390984E0
1.090701250E0,-3.083473626E-1,-2.897880077E-1,-1.047551488E0,1.129787284E0
1.100687250E0,4.093469033E-1,4.554916674E-1,-1.570484356E0,1.685662677E0
1.110674250E0,1.194408987E0,1.072013315E0,-2.284136442E0,2.791613272E0
1.120660250E0,1.426310729E0,1.299367678E0,-2.908072359E0,3.489928868E0
1.130646250E0,1.194115165E0,1.176844536E0,-3.538811511E0,3.915872955E0
1.140632250E0,1.190639872E0,9.648280048E-1,-4.038513392E0,4.319503073E0
1.150619250E0,1.265596206E0,7.988460177E-1,-3.973505217E0,4.246013711E0
1.160605250E0,1.235954916E0,8.205093670E-1,-3.641909618E0,3.932470704E0
1.170591250E0,1.426604260E0,9.979010260E-1,-3.419845816E0,3.837492876E0
1.180578250E0,1.999024160E0,1.340064299E0,-3.373856295E0,4.144246158E0
1.190564250E0,2.803612436E0,1.938702822E0,-3.501241981E0,4.886461576E0
1.200550250E0,4.017156729E0,2.763854293E0,-3.777013628E0,6.167841656E0
1.210536250E0,5.588452971E0,3.725220746E0,-4.354310399E0,8.004254823E0
1.220523250E0,6.543964022E0,4.061186555E0,-5.081342084E0,9.226957176E0
1.230509250E0,6.766539456E0,3.823246393E0,-5.497493684E0,9.519753463E0
1.240495250E0,6.972532185E0,2.789120112E0,-5.785058581E0,9.479572715E0
1.250481250E0,7.165885574E0,1.584783137E0,-5.563698784E0,9.209570989E0
1.260468250E0,7.809210273E0,1.145174262E0,-5.294991742E0,9.504321477E0
1.270454250E0,8.815176948E0,1.000853285E0,-5.612770371E0,1.049820190E1
1.280440250E0,1.000833989E1,9.075059956E-1,-6.277098269E0,1.184872977E1
1.290426250E0,1.083148519E1,4.626270247E-1,-6.079757080E0,1.242974421E1
1.300413250E0,1.095905272E1,-1.246244554E0,-4.939137214E0,1.208507503E1
1.310399250E0,8.780856716E0,-3.901337128E0,-3.725701972E0,1.030556797E1
1.320385250E0,5.523743005E0,-6.375570644E0,-2.959150711E0,8.939586721E0
1.330371250E0,1.852940540E0,-8.145092466E0,-2.415695286E0,8.695487545E0
1.340358250E0,-1.701530107E0,-8.405769526E0,-2.405469675E0,8.907213391E0
1.350344250E0,-4.262410003E0,-8.330414704E0,-3.079578211E0,9.851281649E0
1.360330250E0,-5.192577760E0,-8.302510622E0,-2.301972642E0,1.005950419E1
1.370317250E0,-4.711112176E0,-7.715239670E0,1.490285701E-1,9.041112245E0
1.380303125E0,-4.098221357E0,-7.086389169E0,2.238528745E0,8.486656626E0
1.390289125E0,-4.549565887E0,-7.233772917E0,2.722441388E0,8.968707124E0
1.400275125E0,-5.182200707E0,-7.466721895E0,2.930086541E0,9.549478895E0
1.410262125E0,-4.761074295E0,-7.484915507E0,3.711502594E0,9.615978374E0
1.420248125E0,-3.482579423E0,-7.113001601E0,4.132585736E0,8.933163834E0
1.430234125E0,-2.462508094E0,-7.189680818E0,4.322627554E0,8.743029529E0
1.440220125E0,-2.339350530E0,-7.677121671E0,5.253820912E0,9.592361140E0
1.450207125E0,-2.354442194E0,-8.240433657E0,6.441272882E0,1.072092073E1
1.460193125E0,-5.795830321E-1,-8.424249067E0,7.225355265E0,1.111348944E1
1.470179125E0,1.843465127E0,-8.127882941E0,7.324460893E0,1.109543024E1
1.480166125E0,3.006016729E0,-7.909378924E0,6.535704830E0,1.069157842E1
1.490152125E0,1.692251453E0,-8.277547688E0,4.461505065E0,9.554398891E0
1.500138125E0,-7.610867456E-1,-8.833306825E0,1.419732027E0,8.978986665E0
1.510124125E0,-2.097827487E0,-9.411214045E0,-9.028276384E-1,9.684365117E0
1.520111125E0,-1.755776481E0,-1.032495025E1,-1.353593001E0,1.056028232E1
1.530097125E0,-1.129434581E0,-1.155371338E1,-1.526064082E-1,1.160978915E1
1.540083125E0,-1.142642271E0,-1.319287621E1,1.499401510E0,1.332688332E1
1.550069125E0,-2.390744851E-1,-1.465736283E1,2.887415900E0,1.494097093E1
1.560056125E0,1.431066562E0,-1.446606181E1,4.110223060E0,1.510658232E1
1.570042125E0,1.991717480E0,-1.373413425E1,4.365424787E0,1.454820662E1
1.580028125E0,3.028893084E0,-1.234739455E1,3.283050206E0,1.313052795E1
1.590014125E0,4.765943564E0,-9.250995074E0,-1.182796709E-1,1.040716666E1
1.600001125E0,4.922107784E0,-7.377668216E0,-7.080220356E0,1.134842075E1
1.609987125E0,4.794082412E0,-6.151624038E0,-1.196541701E1,1.428274864E1
1.619973125E0,5.887663767E0,-6.805303572E0,-1.194901089E1,1.495846257E1
1.629960125E0,5.732800845E0,-8.577280056E0,-6.715040689E0,1.230961048E1
1.639946125E0,5.584525981E0,-9.909796768E0,-9.717154402E-1,1.141644574E1
1.649932125E0,6.806625627E0,-1.082486380E1,2.306228392E0,1.299332591E1
1.659918125E0,8.816498419E0,-1.037612742E1,1.551308413E0,1.370405861E1
1.669905125E0,1.142790586E1,-6.276284337E0,-2.883964874E0,1.335312813E1
1.679891125E0,1.216562099E1,-1.103588864E0,-8.580348090E0,1.492791398E1
1.689877125E0,1.294253937E1,2.438209697E0,-1.332765687E1,1.873714571E1
1.699863125E0,1.398084933E1,2.444407161E0,-1.478524143E1,2.049494178E1
1.709850125E0,1.199204523E1,5.017001662E-1,-1.077937948E1,1.613244785E1
1.719836125E0,9.988163491E0,-1.361203445E0,-5.090732712E0,1.129299979E1
1.729822125E0,9.212376553E0,-4.385500617E0,-2.712969484E0,1.055749501E1
1.739809125E0,7.416627045E0,-7.508222508E0,-2.375957608E0,1.081780646E1
1.749795125E0,5.114544913E0,-8.908956347E0,-2.578223907E0,1.059128469E1
1.759781125E0,4.559031944E0,-8.512409291E0,-4.200252639E0,1.053033743E1
1.769767125E0,6.783193495E0,-6.839916165E0,-6.669514267E0,1.171659454E1
1.779754125E0,9.980636955E0,-3.729617853E0,-9.724834135E0,1.442551775E1
1.789740125E0,1.317807340E1,-1.422781935E0,-1.335726951E1,1.881761344E1
1.799726125E0,1.612784868E1,-1.155135798E0,-1.486447354E1,2.196347913E1
1.809712125E0,1.773610430E1,-1.900075384E0,-1.357057594E1,2.241294745E1
1.819699125E0,1.885261493E1,-3.647784023E0,-9.447577295E0,2.140056388E1
1.829685125E0,1.835089225E1,-5.445679168E0,-4.536600856E0,1.967209738E1
1.839671125E0,1.628914998E1,-6.946629020E0,-1.231255801E0,1.775128312E1
1.849657125E0,1.382366214E1,-7.523585483E0,8.936013168E-1,1.576377166E1
1.859644125E0,1.280129286E1,-5.954675782E0,4.505501854E-1,1.412565956E1
1.869630125E0,1.431183916E1,-4.963596702E0,-2.624875917E0,1.537387413E1
1.879616125E0,1.667141989E1,-3.838492131E0,-3.915588546E0,1.754998850E1
1.889603125E0,1.931579159E1,-4.164236130E0,-1.420012693E0,1.981053011E1
1.899589125E0,1.928040658E1,-7.195350278E0,4.150933129E0,2.099374643E1
1.909575125E0,1.432828738E1,-9.021411753E0,1.036006629E1,1.984985296E1
1.919561125E0,8.676941169E0,-7.867198280E0,1.522167527E1,1.920628842E1
1.929548125E0,4.896033295E0,-6.894196452E0,1.686179587E1,1.886322472E1
1.939534125E0,2.465898310E0,-6.117183353E0,1.518980093E1,1.655991059E1
1.949520125E0,1.201253884E0,-4.634285610E0,1.230733411E1,1.320568389E1
1.959506125E0,1.383740514E0,-2.714964554E0,1.060216090E1,1.103139094E1
1.969493125E0,2.380949230E0,-6.405829400E-1,9.772238681E0,1.007848771E1
1.979479125E0,3.586646413E0,1.196507553E0,8.117578393E0,8.954928352E0
1.989465125E0,4.024246770E0,2.066544591E0,6.253644503E0,7.718370176E0
1.999452125E0,3.143458165E0,1.653976164E0,5.142121552E0,6.249670426E0
2.009438125E0,1.366000793E0,2.214480901E-1,4.081101587E0,4.309337256E0
2.019424125E0,-2.969909003E-1,-1.408059815E0,3.144567674E0,3.458199227E0
2.029410125E0,-1.281426373E0,-2.230661316E0,2.937169273E0,3.904467543E0
2.039397125E0,-1.676811295E0,-2.342263028E0,2.866367678E0,4.063736689E0
2.049383125E0,-1.629092753E0,-2.058295923E0,2.810920871E0,3.846011109E0
2.059369125E0,-1.116935426E0,-1.566216474E0,2.347983359E0,3.035392008E0
2.069355125E0,-5.372924602E-1,-9.178707701E-1,1.344230440E0,1.714096092E0
2.079342125E0,5.429899871E-2,-2.959813786E-1,4.796471000E-2,3.047194958E-1
2.089328125E0,4.119562232E-1,-9.447463274E-2,-1.179407955E0,1.252851352E0
2.099314125E0,4.222613561E-1,-3.215875053E-1,-1.761031666E0,1.839281301E0
2.109300125E0,6.154486835E-3,-7.760968405E-1,-1.898734764E0,2.051233260E0
2.119287125E0,-6.385633117E-1,-1.210812766E0,-1.458956904E0,2.000596387E0
2.129273125E0,-1.134268620E0,-1.563890451E0,-5.765483272E-1,2.016116718E0
2.139259125E0,-1.225222644E0,-1.581263114E0,8.624876976E-2,2.002249338E0
2.149246125E0,-1.108314876E0,-1.524738665E0,9.401153326E-3,1.885014123E0
2.159232125E0,-7.951233879E-1,-1.282661598E0,-5.245876300E-1,1.597696516E0
2.169218125E0,-1.622520483E-1,-5.817926949E-1,-1.212801989E0,1.354879010E0
2.179204125E0,5.481244272E-1,2.591252089E-1,-2.063619813E0,2.150840067E0
2.189191125E0,1.077238095E0,7.628324318E-1,-2.838031486E0,3.129980503E0
2.199177125E0,1.415417951E0,1.126949075E0,-3.344941229E0,3.802900738E0
2.209163125E0,1.369548006E0,1.103122841E0,-3.751814468E0,4.143507397E0
2.219149125E0,1.066830928E0,7.719002938E-1,-3.832262215E0,4.052183606E0
2.229136125E0,9.307176876E-1,5.050532520E-1,-3.490200099E0,3.647301871E0
2.239122125E0,1.238833208E0,5.989542729E-1,-3.174995415E0,3.460354002E0
2.249108125E0,1.658967932E0,8.683226341E-1,-3.209318570E0,3.715627065E0
2.259095125E0,2.373176088E0,1.460271943E0,-3.429141719E0,4.418525978E0
2.269081125E0,3.512565114E0,2.331349785E0,-3.770161861E0,5.655742742E0
2.279067125E0,4.624842649E0,2.930730904E0,-4.579894225E0,7.138191947E0
2.289053125E0,5.519780931E0,3.283409809E0,-5.635572758E0,8.544497751E0
2.299040125E0,6.375901011E0,3.542558407E0,-6.491194071E0,9.764089012E0
2.309026125E0,6.943386739E0,3.556614529E0,-6.744187304E0,1.031233188E1
2.319012125E0,7.355547615E0,3.276894842E0,-6.557503835E0,1.038474733E1
2.328998125E0,8.473002566E0,2.765223126E0,-6.532144461E0,1.105021007E1
2.338985125E0,1.021882796E1,2.687648701E0,-6.822839956E0,1.257772020E1
2.348971125E0,1.162379811E1,2.903200459E0,-7.729080030E0,1.425762720E1
2.358957125E0,1.254562803E1,1.801004401E0,-8.581602318E0,1.530621762E1
2.368944125E0,1.274211085E1,-1.215051413E-3,-7.826827349E0,1.495394987E1
2.378930125E0,1.187338534E1,-2.144014351E0,-5.861558872E0,1.341387153E1
2.388916125E0,9.848103966E0,-4.429141896E0,-2.858073110E0,1.117009541E1
2.398902125E0,7.855795625E0,-5.883525692E0,-4.047088918E-1,9.823094663E0
2.408889125E0,5.783160574E0,-6.722002383E0,-1.011945453E-1,8.867948050E0
2.418875125E0,3.245045935E0,-7.693021420E0,-1.116469696E0,8.423740634E0
2.428861125E0,9.107333663E-1,-8.042203106E0,-1.531965823E0,8.237316635E0
2.438847125E0,-5.075535214E-1,-8.075470839E0,-9.511149685E-1,8.147113571E0
2.448834125E0,-8.999853069E-1,-8.215121060E0,2.909890989E-1,8.269393100E0
2.458820125E0,-1.604383297E0,-8.783177476E0,1.615727772E0,9.073523493E0
2.468806125E0,-3.154971625E0,-9.167139570E0,2.425501066E0,9.993665457E0
2.478793125E0,-4.912975602E0,-9.533226140E0,2.313132200E0,1.097134041E1
2.488779125E0,-5.787300988E0,-9.453103498E0,2.110432183E0,1.128308214E1
2.498765125E0,-5.117110671E0,-9.276081383E0,2.079593383E0,1.079607411E1
2.508751125E0,-4.932360876E0,-9.100005932E0,1.950782585E0,1.053298839E1
2.518738125E0,-4.823796793E0,-8.607068111E0,2.286213227E0,1.012805055E1
2.528724125E0,-4.123210310E0,-8.213904839E0,2.741934251E0,9.591000960E0
2.538710125E0,-3.273218113E0,-8.122672487E0,3.162447290E0,9.310898883E0
2.548696125E0,-2.637481345E0,-7.926884319E0,3.837258076E0,9.193277565E0
2.558683125E0,-1.847996135E0,-7.670614890E0,4.649581926E0,9.158167644E0
2.568669125E0,-1.664646748E0,-8.018111408E0,5.748832156E0,1.000551001E1
2.578655125E0,-2.114791136E0,-8.557439284E0,6.754671947E0,1.110530062E1
2.588642125E0,-2.610280682E0,-9.346015837E0,7.142353454E0,1.204885016E1
2.598628125E0,-2.375933635E0,-1.021367072E1,7.139156781E0,1.268588545E1
2.608614125E0,-1.886031688E0,-1.095776165E1,6.764751962E0,1.301504995E1
2.618600125E0,-1.382332651E0,-1.131579135E1,6.147132207E0,1.295164900E1
2.628587125E0,-3.369241673E-1,-1.081192274E1,5.272084690E0,1.203353931E1
2.638573125E0,2.627282631E-1,-1.076406328E1,3.603753612E0,1.135434386E1
2.648559125E0,-1.527292728E-2,-1.118619132E1,1.283767891E0,1.125962564E1
2.658545125E0,-5.601720303E-2,-1.118846238E1,-2.160185118E-1,1.119068775E1
2.668532125E0,-1.735672876E-1,-1.167953611E1,-6.502349389E-1,1.169890998E1
2.678518125E0,-6.072306412E-1,-1.331314174E1,-1.481017864E-1,1.332780575E1
2.688504125E0,-1.115425090E-1,-1.475064930E1,1.239220294E0,1.480303224E1
2.698491125E0,2.230940667E0,-1.474997103E1,3.157793491E0,1.524829175E1
2.708477125E0,4.551151944E0,-1.341375361E1,3.862594646E0,1.468200965E1
2.718463125E0,5.231703819E0,-1.244191129E1,1.584748639E0,1.358982375E1
2.728449125E0,4.342621815E0,-1.172300899E1,-2.094704343E0,1.267576784E1
2.738436125E0,4.123955246E0,-1.057509063E1,-4.676925845E0,1.227652980E1
2.748422125E0,5.544777194E0,-1.070543559E1,-6.594446543E0,1.374182049E1
2.758408125E0,7.274792889E0,-1.135805268E1,-7.548106366E0,1.545645115E1
2.768395125E0,9.314770070E0,-1.140044383E1,-6.375957144E0,1.604331295E1
2.778381125E0,1.142764157E1,-1.009341922E1,-4.087890204E0,1.578540306E1
2.788367125E0,1.301730304E1,-7.583253980E0,-2.780245793E0,1.531945449E1
2.798353125E0,1.344542681E1,-5.621480384E0,-4.051063271E0,1.512586055E1
2.808340125E0,1.365514071E1,-2.974088008E0,-7.058197403E0,1.565650720E1
2.818326125E0,1.396128455E1,-1.479143831E0,-1.036599770E1,1.745162574E1
2.828312125E0,1.320535417E1,-1.573335166E0,-1.242260144E1,1.819829082E1
2.838298125E0,1.217129279E1,-2.964406773E0,-1.143840746E1,1.696364468E1
2.848285125E0,9.789341202E0,-4.791314340E0,-8.192894624E0,1.363493369E1
2.858271125E0,7.189064521E0,-5.901157386E0,-4.194438168E0,1.020292207E1
2.868257125E0,6.041147330E0,-6.192444620E0,-1.674972200E0,8.811774130E0
2.878243125E0,6.856273751E0,-6.232679896E0,-1.358484782E0,9.364842195E0
2.888230125E0,7.616868453E0,-5.941473938E0,-2.413361077E0,9.957013070E0
2.898216125E0,7.810192605E0,-5.162091547E0,-4.313814923E0,1.030802100E1
2.908202125E0,8.952213464E0,-3.996797016E0,-6.198999349E0,1.159931486E1
2.918189125E0,1.068626023E1,-2.231826227E0,-7.730484531E0,1.337675585E1
2.928175125E0,1.225784796E1,-1.746046129E0,-8.562397138E0,1.505384198E1
2.938161125E0,1.339876135E1,-1.715484633E0,-8.171473934E0,1.578742156E1
2.948147125E0,1.358369358E1,-2.083230205E0,-6.833850848E0,1.534790203E1
2.958134125E0,1.248725294E1,-3.001224352E0,-5.992447625E0,1.417209448E1
2.968120125E0,1.168991492E1,-4.053456828E0,-4.694145895E0,1.323327732E1
2.978106125E0,1.164715540E1,-4.343611164E0,-2.911315225E0,1.276710394E1
2.988093125E0,1.202569010E1,-4.447145473E0,-1.134455731E0,1.287172542E1
2.998079125E0,1.283491084E1,-5.131377293E0,5.923784941E-1,1.383534898E1
3.008065125E0,1.324068538E1,-6.529525493E0,1.355560589E0,1.482524864E1
3.018051125E0,1.184632793E1,-7.675800785E0,1.939461790E0,1.424833026E1
3.028038125E0,1.022678719E1,-7.338716989E0,3.993433698E0,1.320573572E1
3.038024125E0,9.145435874E0,-7.153128119E0,7.967304366E0,1.408134149E1
3.048010125E0,6.964934313E0,-7.043762382E0,1.265873306E1,1.607384276E1
3.057996125E0,3.523611382E0,-6.660069845E0,1.556036471E1,1.728864707E1
3.067983125E0,5.345629799E-1,-6.139277058E0,1.510664417E1,1.631524374E1
3.077969125E0,-1.168600839E0,-5.808421715E0,1.185367671E1,1.325190712E1
3.087955125E0,-1.589921086E0,-5.216254306E0,8.996013787E0,1.051976340E1
3.097942125E0,-1.234314480E0,-3.857375129E0,7.571932601E0,8.587027334E0
3.107928125E0,5.443778238E-1,-8.849974313E-1,7.049593225E0,7.125751350E0
3.117914125E0,3.165405981E0,1.836958638E0,5.911546719E0,6.952740228E0
3.127900125E0,4.972044175E0,3.101126370E0,4.735245389E0,7.533973516E0
3.137887125E0,5.133844818E0,3.390776383E0,3.835068294E0,7.249929373E0
3.147873125E0,3.835109517E0,3.030270980E0,2.238167971E0,5.375872309E0
3.157859125E0,1.959539082E0,1.473876075E0,1.161139500E0,2.712996321E0
3.167845125E0,5.077534962E-1,-3.760142657E-1,1.170286299E0,1.329951263E0
3.177832125E0,-1.165814933E0,-1.699143274E0,1.405810976E0,2.494497309E0
3.187818125E0,-2.434036247E0,-2.421481690E0,1.188917282E0,3.633404785E0
3.197804125E0,-2.735040384E0,-2.564294378E0,4.152669168E-1,3.772068156E0
3.207791125E0,-2.517912217E0,-2.250133713E0,-1.652060616E-1,3.380869223E0
3.217777125E0,-1.676319837E0,-1.463603686E0,-4.243745399E-1,2.265453088E0
3.227763125E0,-5.891008374E-1,-6.030210114E-1,-4.219906300E-1,9.427355030E-1
3.237749125E0,2.917871708E-1,-3.854806155E-2,-5.546072352E-1,6.278653450E-1
3.247736125E0,9.254318047E-1,4.345986888E-1,-8.942374939E-1,1.358293319E0
3.257722125E0,1.182752563E0,6.938414267E-1,-1.011120411E0,1.703726514E0
3.267708125E0,9.531227562E-1,5.076497081E-1,-1.100964049E0,1.542165053E0
3.277694125E0,5.973278698E-1,-1.617190745E-1,-8.757480133E-1,1.072328413E0
3.287681125E0,-8.752200097E-2,-8.791809136E-1,-1.327172357E0,1.594366848E0
3.297667125E0,-6.130396307E-1,-1.014117694E0,-1.520387751E0,1.927649138E0
3.307653125E0,-5.239707488E-1,-8.610390499E-1,-1.385811160E0,1.713594515E0
3.317640125E0,-1.938702822E-2,-6.549340537E-1,-1.689493321E0,1.812098826E0
3.327626125E0,7.063389730E-1,-1.381808156E-1,-2.583371796E0,2.681756611E0
3.337612125E0,1.545490433E0,7.992561999E-1,-3.836475719E0,4.212587933E0
3.347598125E0,2.264054765E0,1.477313360E0,-5.033991331E0,5.713971252E0
3.357585125E0,2.681311489E0,1.760427648E0,-5.752752129E0,6.586554021E0
3.367571125E0,2.930056136E0,1.792955709E0,-6.066320763E0,6.971381982E0
3.377557125E0,2.912002857E0,1.424030315E0,-6.241607425E0,7.033156206E0
3.387542875E0,2.535645068E0,9.640772223E-1,-6.237909061E0,6.802238620E0
3.397529875E0,2.771594837E0,8.012310970E-1,-6.102979882E0,6.750560914E0
3.407515875E0,3.310468385E0,5.081961304E-1,-6.149426070E0,7.002349978E0
3.417501875E0,3.658503723E0,2.894669956E-1,-6.370637348E0,7.352105879E0
3.427488875E0,3.909446046E0,1.790733182E-1,-6.908191763E0,7.939707115E0
3.437474875E0,4.838849572E0,2.206750882E-1,-6.766397953E0,8.321496496E0
3.447460875E0,6.055504584E0,5.862319010E-1,-5.600225755E0,8.268937786E0
3.457446875E0,6.762219533E0,5.109694648E-1,-4.609244909E0,8.199624469E0
3.467433875E0,7.423439051E0,-7.599860072E-2,-4.190973693E0,8.525109009E0
3.477419875E0,7.864909095E0,-1.319102615E0,-4.045555778E0,8.942222785E0
3.487405875E0,7.423196976E0,-2.942269800E0,-3.120313131E0,8.573048405E0
3.497391875E0,5.924635711E0,-3.651432978E0,-2.644708503E0,7.445048970E0
3.507378875E0,4.886155886E0,-4.544757137E0,-2.846261735E0,7.254691078E0
3.517364875E0,4.720492864E0,-4.635881900E0,-1.439946144E0,6.771107647E0
3.527350875E0,4.393821790E0,-3.776628882E0,-2.605168462E-2,5.793899751E0
3.537337875E0,3.698240816E0,-3.732683548E0,-5.364060223E-1,5.281821942E0
3.547323875E0,2.234032528E0,-4.257310939E0,-9.485294759E-1,4.900541392E0
3.557309875E0,1.503188459E0,-4.290839458E0,-1.500056398E-1,4.548997746E0
3.567295875E0,1.020130678E0,-4.747625699E0,1.429388119E0,5.061992372E0
3.577282875E0,-9.442838126E-1,-5.225053781E0,2.859781959E0,6.030854979E0
3.587268875E0,-2.740270134E0,-5.540483583E0,2.804293637E0,6.787495970E0
3.597254875E0,-3.843868938E0,-6.107842426E0,2.354304784E0,7.591035406E0
3.607241875E0,-4.516877028E0,-6.067035293E0,2.297396173E0,7.905006294E0
3.617227875E0,-4.396637224E0,-5.729262110E0,1.814001300E0,7.446171091E0
3.627213875E0,-3.388095143E0,-5.460274402E0,1.323888561E0,6.560980580E0
3.637199875E0,-2.350102682E0,-4.713952169E0,1.854189798E0,5.584115639E0
3.647186875E0,-1.313419999E0,-4.305912411E0,3.270292458E0,5.564239979E0
3.657172875E0,-9.757950425E-1,-4.455091839E0,4.855981037E0,6.661874443E0
3.667158875E0,-2.117394902E0,-5.134845276E0,6.409778609E0,8.481465616E0
3.677145875E0,-3.919454141E0,-5.981556602E0,7.928451957E0,1.067714805E1
3.687131875E0,-4.692680583E0,-6.907457353E0,8.669981228E0,1.203755759E1
3.697117875E0,-3.749956223E0,-8.083084499E0,7.782650465E0,1.183081041E1
3.707103875E0,-1.436308883E0,-8.209510657E0,5.354114694E0,9.905836289E0
3.717090875E0,6.880991685E-1,-7.823220202E0,5.636041705E0,9.666499930E0
3.727076875E0,2.811559679E0,-6.931263707E0,7.634656268E0,1.068808967E1
3.737062875E0,3.931766330E0,-7.003307835E0,8.361763381E0,1.159414481E1
3.747048875E0,2.356523218E0,-8.340526294E0,7.306269035E0,1.133574646E1
3.757035875E0,2.680960071E-1,-9.277306960E0,4.874384564E0,1.048331650E1
3.767021875E0,-6.027926776E-1,-9.829296981E0,1.700407734E0,9.993489111E0
3.777007875E0,-2.707604371E-1,-1.054408284E1,-1.167104244E0,1.061193321E1
3.786994875E0,2.150679007E-3,-1.155302107E1,-1.996558682E0,1.172427171E1
3.796980875E0,3.160771989E-1,-1.277931434E1,3.881076233E-1,1.278911285E1
3.806966875E0,1.299122972E0,-1.349431655E1,5.148251188E0,1.450133752E1
3.816952875E0,2.603947563E0,-1.352819999E1,8.274479070E0,1.607046178E1
3.826939875E0,3.945334502E0,-1.364692420E1,7.669703894E0,1.614399462E1
3.836925875E0,5.233618197E0,-1.203010358E1,3.705628481E0,1.363252853E1
3.846911875E0,4.895480441E0,-9.543888538E0,-3.013754350E0,1.114155521E1
3.856897875E0,5.301641196E0,-7.596182758E0,-9.684779538E0,1.340165462E1
3.866884875E0,7.834850898E0,-5.331513451E0,-1.356897497E1,1.655074035E1
3.876870875E0,1.004246541E1,-3.189283671E0,-1.453595475E1,1.795317861E1
3.886856875E0,1.037180516E1,-2.976763110E0,-1.305764298E1,1.693922964E1
3.896843875E0,9.676558937E0,-3.118039441E0,-9.474592016E0,1.389697293E1
3.906829875E0,8.441635178E0,-3.888962080E0,-5.575287380E0,1.083831444E1
3.916815875E0,7.176091889E0,-5.367500140E0,-3.906186808E0,9.775717259E0
3.926801875E0,6.066171659E0,-6.270945829E0,-4.189400207E0,9.678547116E0
3.936788875E0,5.477248285E0,-6.610338106E0,-5.093877929E0,9.982204717E0
3.946774875E0,5.545433251E0,-7.000232785E0,-6.138277184E0,1.083667549E1
3.956760875E0,5.410864261E0,-7.193699609E0,-6.937969878E0,1.136495456E1
3.966747875E0,5.710804204E0,-6.795043463E0,-7.329095396E0,1.151093131E1
3.976733875E0,6.187586753E0,-6.484472111E0,-7.608488808E0,1.175685801E1
3.986719875E0,6.512103714E0,-5.895679715E0,-7.840538485E0,1.177457336E1
3.996705875E0,6.375781143E0,-5.663669214E0,-7.948267586E0,1.165773099E1
4.006692875E0,5.980164379E0,-5.973416108E0,-7.746296571E0,1.146512872E1
4.016678875E0,5.824251298E0,-6.158554743E0,-7.114880311E0,1.106667166E1
4.026664875E0,6.541877736E0,-6.569863679E0,-6.459622030E0,1.129982256E1
4.036650875E0,7.518784919E0,-6.617722555E0,-5.897922707E0,1.162376319E1
4.046637875E0,7.959167381E0,-6.131831798E0,-5.141763117E0,1.128651561E1
4.056623875E0,8.833113282E0,-5.923691971E0,-4.935373362E0,1.172484230E1
4.066609875E0,1.011405288E1,-5.158164557E0,-4.691396534E0,1.228454023E1
4.076596875E0,1.096213069E1,-4.104375259E0,-4.796102625E0,1.264977494E1
4.086582875E0,1.181383379E1,-3.297777295E0,-5.319771658E0,1.336944181E1
4.096568875E0,1.288255746E1,-2.731778222E0,-4.986823012E0,1.408159447E1
4.106554875E0,1.422735859E1,-2.261919069E0,-3.981877261E0,1.494621547E1
4.116541875E0,1.498941685E1,-2.537118274E0,-3.827858092E0,1.567711977E1
4.126527875E0,1.546038668E1,-3.452637586E0,-3.604942351E0,1.624622639E1
4.136513875E0,1.522944271E1,-4.975885211E0,-2.505865783E0,1.621649537E1
4.146500875E0,1.445402005E1,-6.191359962E0,-2.144115508E-1,1.572569891E1
4.156486875E0,1.340347772E1,-6.380809164E0,3.711192691E0,1.530166304E1
4.166472875E0,1.181726143E1,-6.124398817E0,8.278277421E0,1.567436779E1
4.176458875E0,9.218117350E0,-5.563523952E0,1.110524481E1,1.546780361E1
4.186445875E0,6.402821592E0,-5.075666192E0,1.083903043E1,1.357361751E1
4.196431875E0,4.052431811E0,-4.548636764E0,8.652228497E0,1.058174645E1
4.206417875E0,2.563399169E0,-4.155927236E0,7.116430993E0,8.630546713E0
4.216403875E0,2.431994984E0,-3.182597380E0,6.904896272E0,7.982550859E0
4.226390875E0,2.564434711E0,-1.941267411E0,6.309152121E0,7.081683771E0
4.236376875E0,2.396830414E0,-8.619392288E-1,5.127804644E0,5.725566848E0
4.246362875E0,2.298477908E0,-5.259225494E-1,4.208313611E0,4.823846874E0
4.256349875E0,1.637884626E0,-7.082831722E-1,4.507647783E0,4.848011926E0
4.266335875E0,7.817715633E-1,-5.043048084E-1,4.718311268E0,4.809152871E0
4.276321875E0,4.632167163E-1,-6.999187303E-1,4.262233125E0,4.344086459E0
4.286307875E0,1.659431031E-1,-8.298403537E-1,3.592591277E0,3.690919155E0
4.296294875E0,-2.979305479E-1,-8.897591114E-1,3.068486627E0,3.208744937E0
4.306280875E0,-6.162588152E-1,-1.017395643E0,2.331156827E0,2.617090173E0
4.316266875E0,-9.365321589E-1,-1.531338417E0,1.359067749E0,2.251478399E0
4.326253875E0,-1.304224083E0,-1.977732986E0,4.793845600E-1,2.417072150E0
4.336239875E0,-1.593548991E0,-1.845881197E0,-1.830377305E-1,2.445440367E0
4.346225875E0,-1.380415057E0,-1.475312735E0,-3.687108010E-1,2.053787002E0
4.356211875E0,-7.269197103E-1,-1.220644274E0,5.865809798E-2,1.421909098E0
4.366198875E0,-3.210787976E-1,-1.041145864E0,2.530195463E-1,1.118523667E0
4.376184875E0,-2.205245224E-1,-8.940726024E-1,1.444542933E-1,9.321287069E-1
4.386173250E0,-1.512101662E-1,-1.094314011E0,1.563837826E-1,1.115725574E0
4.396159250E0,-3.189776006E-1,-1.276523775E0,3.108917785E-1,1.352003460E0
4.406146250E0,-6.231386492E-1,-1.183387570E0,2.729626447E-1,1.364996895E0
4.416132250E0,-4.034420925E-1,-9.590404308E-1,-7.870410740E-2,1.043416698E0
4.426118250E0,4.797055721E-3,-8.158093750E-1,-9.551315671E-1,1.256122708E0
4.436105250E0,6.038624257E-2,-8.087377524E-1,-2.258678250E0,2.399860556E0
4.446091250E0,3.897841662E-2,-5.670284754E-1,-3.039838194E0,3.092516266E0
4.456077250E0,2.699808571E-1,-2.025294238E-1,-3.147471986E0,3.165515398E0
4.466063250E0,8.342944703E-1,3.099211407E-1,-3.110828070E0,3.235637442E0
4.476050250E0,1.173970630E0,6.254257876E-1,-3.421156177E0,3.670650357E0
4.486036250E0,1.552751213E0,7.372859466E-1,-3.962750434E0,4.319492782E0
4.496022250E0,2.168909164E0,1.090827316E0,-4.247051999E0,4.891985474E0
4.506009250E0,2.914580018E0,1.609761858E0,-4.563643643E0,5.649155089E0
4.515995250E0,3.460096294E0,1.942031057E0,-4.838853373E0,6.257655548E0
4.525981250E0,3.685002135E0,2.167666338E0,-5.002575996E0,6.580561122E0
4.535967250E0,4.263960685E0,2.563390691E0,-5.363691264E0,7.315840111E0
4.545954250E0,5.003725559E0,2.592053157E0,-6.125001081E0,8.322959045E0
4.555940250E0,5.149668553E0,1.869664747E0,-6.637200215E0,8.606227929E0
4.565926250E0,4.901524707E0,1.124647611E0,-6.303577386E0,8.063799636E0
4.575912250E0,4.696193883E0,2.127766693E-1,-5.685780460E0,7.377507054E0
4.585899250E0,4.602343148E0,-7.286958021E-1,-5.102509004E0,6.910004209E0
4.595885250E0,4.649469659E0,-8.702615708E-1,-4.875292051E0,6.792893044E0
4.605871250E0,4.804619679E0,-6.383908188E-1,-5.257321056E0,7.150618000E0
4.615858250E0,4.823479289E0,-7.081831849E-1,-5.353930507E0,7.240997704E0
4.625844250E0,4.689122260E0,-1.274776627E0,-5.009440627E0,6.979070025E0
4.635830250E0,4.177283022E0,-2.121003218E0,-4.064746048E0,6.202459877E0
4.645816250E0,3.068494521E0,-2.633443258E0,-2.744011767E0,4.886745604E0
4.655803250E0,2.687841659E0,-2.840070995E0,-1.807022356E0,4.307647367E0
4.665789250E0,2.507488970E0,-3.582428817E0,-1.502958956E0,4.623870974E0
4.675775250E0,1.454708463E0,-4.796697287E0,-1.371472033E0,5.196673658E0
4.685762250E0,1.315910035E-1,-5.657943036E0,-3.752338817E-1,5.671898805E0
4.695748250E0,-1.392381676E0,-6.100714670E0,5.946606624E-1,6.285782968E0
4.705734250E0,-2.387681860E0,-6.123510625E0,1.305861011E0,6.701020820E0
4.715720250E0,-2.832271394E0,-5.770476794E0,2.277467108E0,6.819605568E0
4.725707250E0,-3.189826585E0,-5.393102174E0,2.696316614E0,6.821339163E0
4.735693250E0,-3.218039400E0,-4.960964870E0,2.176251512E0,6.301033302E0
4.745679250E0,-2.416955068E0,-4.398872615E0,1.795363593E0,5.330579941E0
4.755665250E0,-1.278054869E0,-4.095389843E0,2.119673269E0,4.785254119E0
4.765652250E0,-7.420628294E-1,-4.380514112E0,2.840618879E0,5.273393285E0
4.775638250E0,-9.038839379E-1,-4.617924516E0,3.614122772E0,5.933305690E0
4.785624250E0,-1.112499144E0,-4.667872016E0,4.704401034E0,6.719975640E0
4.795611250E0,-1.316088668E0,-4.760377307E0,6.092489977E0,7.842940495E0
4.805597250E0,-1.525340051E0,-5.344337565E0,6.311761733E0,8.409931180E0
4.815583250E0,-1.913430279E0,-6.395143613E0,5.590170298E0,8.706841059E0
4.825569250E0,-2.357574255E0,-7.198634074E0,5.440019647E0,9.325894202E0
4.835556250E0,-2.353887877E0,-7.775644332E0,5.102325402E0,9.593495579E0
4.845542250E0,-1.473619674E0,-8.269911225E0,4.070853172E0,9.334604017E0
4.855528250E0,1.311124089E-1,-8.380839922E0,3.660787938E0,9.146422065E0
4.865515250E0,1.487645098E0,-8.353886012E0,3.814888968E0,9.303433629E0
4.875501250E0,2.012448198E0,-8.445228876E0,3.976539922E0,9.549068451E0
4.885487250E0,1.539949904E0,-7.707683313E0,2.425569479E0,8.225765318E0
4.895473250E0,7.114076319E-1,-8.050173445E0,-1.355968853E-2,8.081557844E0
4.905460250E0,-6.168461680E-2,-9.044149235E0,-1.404689480E0,9.152791537E0
4.915446250E0,-3.596301482E-1,-1.017222332E1,-1.678784730E0,1.031609321E1
4.925432250E0,-4.308872417E-1,-1.193419054E1,-9.373308885E-1,1.197869595E1
4.935419250E0,-3.535497017E-2,-1.381893291E1,1.257330290E0,1.387605983E1
4.945405250E0,1.270694832E0,-1.591595611E1,4.266158946E0,1.652671887E1
4.955391250E0,2.598952287E0,-1.774214447E1,5.802993160E0,1.884709455E1
4.965377250E0,5.135155764E0,-1.730625443E1,4.382279971E0,1.857634638E1
4.975364250E0,7.402720612E0,-1.432820318E1,2.369982485E-1,1.612928538E1
4.985350250E0,9.442767375E0,-8.613554428E0,-6.517294872E0,1.434692678E1
4.995336250E0,1.092790343E1,-4.313668742E0,-1.453280778E1,1.868767812E1
5.005322250E0,1.001736799E1,-2.355008204E0,-2.078160552E1,2.318984375E1
5.015309250E0,8.971492903E0,-1.214551476E0,-2.157545393E1,2.339792795E1
5.025295250E0,9.305712733E0,-3.160311302E0,-1.616790913E1,1.892049531E1
5.035281250E0,9.464461130E0,-5.993099005E0,-8.251797720E0,1.391349797E1
5.045268250E0,8.222224842E0,-6.216846220E0,-1.179909647E0,1.037527566E1
5.055254250E0,7.888909577E0,-5.818646157E0,2.523665292E0,1.012227365E1
5.065240250E0,8.934361914E0,-5.434311596E0,2.477196300E0,1.074667701E1
5.075226250E0,8.725159648E0,-4.501378106E0,-7.695520520E-2,9.818184040E0
5.085213250E0,7.581355389E0,-3.574640618E0,-2.388442583E0,8.715484097E0
5.095199250E0,6.620208791E0,-2.950261189E0,-3.719114499E0,8.146349991E0
5.105185250E0,6.184414054E0,-2.325371007E0,-4.618265408E0,8.061184956E0
5.115172250E0,6.397374911E0,-1.726962425E0,-5.900125353E0,8.872445218E0
5.125158250E0,6.621677611E0,-1.389466839E0,-7.905950117E0,1.040582912E1
5.135144250E0,6.997882204E0,-2.082625895E0,-9.056110300E0,1.163274773E1
5.145130250E0,7.176552064E0,-3.207101599E0,-8.742669135E0,1.175681351E1
5.155117250E0,7.080733157E0,-4.664431807E0,-7.728828599E0,1.147294634E1
5.165103250E0,7.171302434E0,-5.794605330E0,-6.260680457E0,1.114455694E1
5.175089250E0,7.593736283E0,-5.873715819E0,-4.977920626E0,1.081411402E1
5.185076250E0,8.454652834E0,-5.449009157E0,-4.225645342E0,1.091003822E1
5.195062250E0,9.644620861E0,-4.713853936E0,-3.323998257E0,1.123779760E1
5.205048250E0,1.053938870E1,-2.743997734E0,-3.021663294E0,1.130215407E1
5.215034250E0,1.190410778E1,-1.210478524E0,-3.261853464E0,1.240212596E1
5.225021250E0,1.265834948E1,-1.845210594E-1,-3.922585325E0,1.325347257E1
5.235007250E0,1.248226058E1,-1.796349433E-1,-5.968245415E0,1.383687289E1
5.244993250E0,1.290488330E1,-1.496242844E0,-6.571683333E0,1.455890715E1
5.254979250E0,1.387738168E1,-3.356295353E0,-4.573253542E0,1.499203418E1
5.264966250E0,1.446660092E1,-5.837229778E0,-2.137434479E0,1.574561589E1
5.274952250E0,1.264714739E1,-7.555345219E0,1.778214294E0,1.483899001E1
5.284938250E0,1.059684578E1,-7.154423862E0,6.536976600E0,1.436004820E1
5.294925250E0,9.169115344E0,-6.510029122E0,1.049862893E1,1.538422454E1
5.304911250E0,7.065865442E0,-5.731056620E0,1.232838993E1,1.532190141E1
5.314897250E0,4.440860008E0,-4.507208949E0,1.051868488E1,1.227513347E1
5.324883250E0,3.441144007E0,-3.936025150E0,7.620653356E0,9.241651564E0
5.334870250E0,3.306361008E0,-3.991211464E0,6.759278968E0,8.517607894E0
5.344856250E0,2.399481249E0,-3.066823387E0,7.156069853E0,8.146916698E0
5.354842250E0,1.784885674E0,-1.729299119E0,7.580153786E0,7.977156369E0
5.364829250E0,1.593356325E0,-1.011935513E0,7.844778886E0,8.068664922E0
5.374815250E0,1.101959538E0,-7.380279583E-1,7.343025218E0,7.461837538E0
5.384798625E0,4.837533072E-1,-4.340470040E-1,5.911370718E0,5.946992335E0
5.394784625E0,1.991070485E-1,-2.618044031E-1,4.246598255E0,4.259317070E0
5.404771625E0,-1.823191077E-1,-4.623405111E-1,3.225708316E0,3.263769775E0
5.414757625E0,-7.528161514E-1,-8.235183442E-1,2.658082255E0,2.882761852E0
5.424743625E0,-1.362115611E0,-1.257886945E0,2.078570559E0,2.785335540E0
5.434730625E0,-1.794934407E0,-1.714658568E0,1.064390885E0,2.700883464E0
5.444716625E0,-1.859868029E0,-1.940109077E0,2.722796899E-1,2.701345692E0
5.454702625E0,-1.808105260E0,-1.867784282E0,-2.520225960E-1,2.611776818E0
5.464688625E0,-1.685711342E0,-1.798826314E0,-4.532018977E-1,2.506549580E0
5.474675625E0,-1.421901929E0,-1.560046492E0,-2.758768970E-1,2.128769178E0
5.484661625E0,-8.885528308E-1,-1.153159804E0,-3.650364107E-1,1.500851508E0
5.494647625E0,-3.719729626E-1,-6.646699601E-1,-8.124144816E-1,1.113628004E0
5.504634625E0,-9.698630422E-2,-2.978659362E-1,-1.480982780E0,1.513750460E0
5.514620625E0,-9.154108465E-2,-3.021747494E-1,-1.976467064E0,2.001527268E0
5.524606625E0,-1.546845818E-1,-5.345583022E-1,-1.921211461E0,2.000183335E0
5.534592625E0,-1.474746725E-1,-8.815613151E-1,-1.700981930E0,1.921519883E0
5.544579625E0,-2.290184802E-1,-1.170692096E0,-1.920518566E0,2.260831928E0
5.554565625E0,-4.091399118E-1,-1.282013142E0,-2.983512551E0,3.272965063E0
5.564551625E0,-2.972999257E-1,-1.027602543E0,-4.446711609E0,4.573576103E0
5.574537625E0,3.705591059E-1,-3.650352412E-1,-5.050538952E0,5.077254030E0
5.584524625E0,1.279393589E0,4.490433580E-1,-4.883223215E0,5.067973644E0
5.594510625E0,1.927833433E0,8.874032682E-1,-5.248967723E0,5.661774321E0
5.604496625E0,2.302970324E0,1.309706140E0,-5.635680932E0,6.227351126E0
5.614483625E0,2.561489761E0,1.677373797E0,-5.824994479E0,6.580681829E0
5.624469625E0,2.867792060E0,1.802466205E0,-6.075093341E0,6.955564306E0
5.634455625E0,3.159995552E0,1.817243289E0,-6.183304253E0,7.177826728E0
5.644441625E0,3.719274420E0,1.587485136E0,-5.980801726E0,7.219632993E0
5.654428625E0,4.105349405E0,1.100066501E0,-5.428198332E0,6.894155291E0
5.664414625E0,3.903997318E0,4.590613925E-1,-4.852767407E0,6.245100795E0
5.674400625E0,4.142774802E0,1.324604845E-1,-5.312652088E0,6.738278789E0
5.684387625E0,4.279147658E0,-1.899978467E0,-5.013250088E0,6.859569906E0
5.694373625E0,3.136704631E0,-1.462014413E0,-2.675085958E0,4.374069840E0
5.704359625E0,3.447420408E0,-1.579721788E0,-1.746016308E0,4.174781592E0
5.714345625E0,3.735576458E0,-1.607120671E0,-9.897804129E-1,4.185335541E0
5.724332625E0,3.690064362E0,-1.985844828E0,-8.116005492E-1,4.268354499E0
5.734318625E0,2.574506248E0,-2.887998283E0,-5.951051970E-1,3.914430571E0
5.744304625E0,1.354434854E0,-3.433278624E0,-4.686988465E-1,3.720426655E0
5.754291625E0,2.375329763E-1,-3.919451802E0,6.173127759E-1,3.974870992E0
5.764277625E0,-7.639330970E-1,-4.080518035E0,2.127352125E0,4.664745253E0
5.774263625E0,-1.576616624E0,-4.238060151E0,2.917269444E0,5.381201988E0
5.784249625E0,-2.059033842E0,-4.339398245E0,3.206229486E0,5.774937663E0
5.794236625E0,-2.269944372E0,-4.132569948E0,3.747727849E0,6.022976495E0
5.804222625E0,-2.339614532E0,-3.938559333E0,4.311168473E0,6.290645386E0
5.814208625E0,-2.302333854E0,-3.663287623E0,4.604402245E0,6.318301783E0
5.824194625E0,-1.910449514E0,-3.314590672E0,4.698773382E0,6.059273881E0
5.834181625E0,-1.607343303E0,-3.304227651E0,4.764277400E0,6.016627960E0
5.844167625E0,-1.685593959E0,-3.677445486E0,4.889761279E0,6.346227042E0
5.854153625E0,-1.918948150E0,-3.966513702E0,5.201860215E0,6.817253306E0
5.864140625E0,-1.391394227E0,-3.952477461E0,5.062166725E0,6.571422062E0
5.874126625E0,-3.582485973E-1,-3.795992521E0,4.104702119E0,5.602363855E0
5.884112625E0,7.683866289E-1,-3.042951837E0,2.851087442E0,4.240126589E0
5.894098625E0,1.602277276E0,-2.545349107E0,1.948219165E0,3.583525144E0
5.904085625E0,1.551124810E0,-2.563687729E0,2.173998288E0,3.701992910E0
5.914071625E0,7.752335722E-1,-2.838487569E0,3.360895942E0,4.466947538E0
5.924057625E0,2.587416315E-1,-3.656855101E0,4.077661377E0,5.483325521E0
5.934044625E0,-9.872468144E-2,-4.741362746E0,4.150387292E0,6.302061720E0
5.944030625E0,-5.653749559E-1,-5.616372256E0,4.199199556E0,7.035379383E0
5.954016625E0,-8.992785247E-1,-6.617346579E0,4.307881753E0,7.947063785E0
5.964002625E0,-2.396080435E-1,-7.751974218E0,4.165354702E0,8.803447966E0
5.973989625E0,7.533415237E-1,-8.521649061E0,3.511390994E0,9.247480353E0
5.983975625E0,1.015560275E0,-8.421203837E0,2.112605447E0,8.741346493E0
5.993961625E0,1.538382119E0,-7.654786477E0,1.050625370E0,7.878209773E0
6.003948625E0,2.492380350E0,-6.452198405E0,7.825474888E-1,6.960977276E0
6.013934625E0,2.632922271E0,-5.770104911E0,6.846118160E-1,6.379269842E0
6.023920625E0,2.151743200E0,-6.436604465E0,-3.724917568E-2,6.786844874E0
6.033906625E0,1.168037460E0,-7.401581574E0,-1.046106057E0,7.565848213E0
6.043893625E0,8.437315840E-1,-8.270203586E0,-1.722140665E0,8.489635964E0
6.053879625E0,9.994262722E-1,-9.176833084E0,-2.297817757E0,9.512785332E0
6.063865625E0,1.290508561E0,-9.832128203E0,-2.917581686E0,1.033675192E1
6.073852625E0,1.945482668E0,-1.019820834E1,-3.078285391E0,1.082885946E1
6.083838625E0,3.305784765E0,-9.434010000E0,-3.369102509E0,1.054891508E1
6.093824625E0,4.548387088E0,-7.402115425E0,-4.677100092E0,9.866833491E0
6.103810625E0,5.480044423E0,-5.372840402E0,-6.318178468E0,9.940708225E0
6.113797625E0,6.650156475E0,-3.633314211E0,-8.109181792E0,1.109884600E1
6.123783625E0,7.128665122E0,-2.179968295E0,-1.004257417E1,1.250693504E1
6.133769625E0,7.523260378E0,-9.775842905E-1,-1.128150094E1,1.359512343E1
6.143755625E0,7.614567574E0,-6.990884256E-1,-1.155719014E1,1.385781396E1
6.153742625E0,8.119333143E0,-1.423107917E0,-1.112340158E1,1.384481381E1
6.163728625E0,7.915604455E0,-2.288017239E0,-9.392705854E0,1.249458843E1
6.173714625E0,7.216096784E0,-3.135018586E0,-6.703086056E0,1.033594490E1
6.183701625E0,6.470953934E0,-4.176107147E0,-4.629317231E0,8.985749481E0
6.193687625E0,5.635120769E0,-4.999285183E0,-3.577407812E0,8.339381576E0
6.203673625E0,4.747812810E0,-5.174352574E0,-3.184564383E0,7.710843102E0
6.213659625E0,4.013173313E0,-5.142023318E0,-3.738335466E0,7.518052667E0
6.223646625E0,3.636734832E0,-4.934197487E0,-4.723772568E0,7.738615661E0
6.233632625E0,3.553648821E0,-4.349429728E0,-5.239816246E0,7.681252059E0
6.243618625E0,3.682872287E0,-3.927317476E0,-5.552600183E0,7.734257536E0
6.253605625E0,4.222659754E0,-3.480930508E0,-5.642839093E0,7.860621199E0
6.263591625E0,5.018199756E0,-3.508631693E0,-5.108398905E0,7.974243821E0
6.273577625E0,4.723966110E0,-3.141600504E0,-4.773672998E0,7.414409176E0
6.283563625E0,4.670050689E0,-3.182827175E0,-4.807726597E0,7.419838091E0
6.293550625E0,5.380026630E0,-3.570180946E0,-3.998928326E0,7.594886852E0
6.303536625E0,5.804238617E0,-3.162884077E0,-3.165728747E0,7.329042237E0
6.313522625E0,6.136369237E0,-2.939621888E0,-3.017567319E0,7.443259823E0
6.323509625E0,6.421192959E0,-2.492939636E0,-3.208016980E0,7.598541965E0
6.333495625E0,7.079888819E0,-1.980279156E0,-3.538393435E0,8.158833209E0
6.343481625E0,7.770856631E0,-1.408260375E0,-3.963694759E0,8.836305009E0
6.353467625E0,8.557576109E0,-1.177747127E0,-4.225819589E0,9.616483159E0
6.363454625E0,9.243776686E0,-1.191833142E0,-4.301065069E0,1.026484459E1
6.373440625E0,1.015810814E1,-1.193470144E0,-5.103120039E0,1.143037034E1
6.383426625E0,1.212195516E1,-1.411420795E0,-5.506245797E0,1.338852674E1
6.393414375E0,1.497869305E1,-2.911464036E0,-4.194318885E0,1.582498592E1
6.403400375E0,1.565876400E1,-4.950144013E0,-1.360493301E0,1.647882756E1
6.413386375E0,1.473658558E1,-5.300091684E0,1.939919043E0,1.578040596E1
6.423372375E0,1.351396553E1,-5.255591449E0,4.816762592E0,1.527906109E1
6.433359375E0,1.134174129E1,-5.340733341E0,6.172477548E0,1.397347513E1
6.443345375E0,8.116704819E0,-5.233862026E0,6.235751438E0,1.149603431E1
6.453331375E0,5.461014660E0,-4.719479542E0,6.002355732E0,9.387461989E0
6.463318375E0,3.823283231E0,-4.740924205E0,5.654448155E0,8.310634207E0
6.473304375E0,2.683538108E0,-5.242657408E0,5.805666507E0,8.269981685E0
6.483290375E0,1.451764390E0,-5.181415426E0,6.489193153E0,8.429965210E0
6.493276375E0,2.073976694E-1,-3.905054787E0,7.020275286E0,8.035964894E0
6.503263375E0,6.471247318E-1,-2.840474453E0,7.142114303E0,7.713420918E0
6.513249375E0,1.335398805E-1,-2.421675818E0,7.780994534E0,8.150228377E0
6.523235375E0,-3.956087239E-1,-1.879592734E0,7.481601890E0,7.724230832E0
6.533222375E0,-5.914047866E-1,-1.758165361E0,5.498846730E0,5.803293928E0
6.543208375E0,-7.451177803E-1,-1.434228444E0,3.313549867E0,3.686709164E0
6.553194375E0,-9.949316637E-1,-1.174339004E0,1.849529859E0,2.406184077E0
6.563180375E0,-1.167322418E0,-1.413301844E0,1.024944983E0,2.100137126E0
6.573167375E0,-1.324633350E0,-1.815074556E0,1.179331357E0,2.537709914E0
6.583153375E0,-1.438661072E0,-1.888507399E0,2.150564402E0,3.203300348E0
6.593139375E0,-1.217156849E0,-1.897195192E0,2.572005978E0,3.419946658E0
6.603126375E0,-8.770555969E-1,-1.831912783E0,2.241337162E0,3.024685643E0
6.613112375E0,-8.348366533E-1,-1.455682463E0,1.618656058E0,2.331525489E0
6.623098375E0,-6.417143762E-1,-1.080422781E0,8.730039150E-1,1.530113251E0
6.633084375E0,-3.942910539E-1,-9.639187628E-1,2.671364790E-1,1.075158925E0
6.643071375E0,-3.862935247E-1,-1.116738667E0,-5.009789121E-1,1.283474896E0
6.653057375E0,-6.325988594E-1,-1.427778965E0,-1.636839144E0,2.262294515E0
6.663043375E0,-7.795167308E-1,-1.292979010E0,-2.430947748E0,2.861633800E0
6.673030375E0,-6.245298479E-1,-9.410771996E-1,-2.556798540E0,2.795153413E0
6.683016375E0,-2.339361347E-1,-7.229117364E-1,-2.326677859E0,2.447602369E0
6.693002375E0,1.809216231E-2,-5.392460150E-1,-2.318006439E0,2.379972151E0
6.702988375E0,3.410359293E-2,-4.360134226E-1,-2.713991577E0,2.749003645E0
6.712975375E0,-1.253401838E-1,-3.739195007E-1,-3.105291926E0,3.130233841E0
6.722961375E0,-4.513100311E-2,-1.955554497E-1,-3.711049435E0,3.716472339E0
6.732947375E0,4.036088844E-1,2.374951887E-1,-4.686390148E0,4.709730005E0
6.742933375E0,1.179315423E0,7.122885150E-1,-5.239252574E0,5.417370888E0
6.752920375E0,2.411613783E0,1.734525068E0,-5.548365630E0,6.293553798E0
6.762906375E0,3.464131458E0,2.368022352E0,-6.239650946E0,7.519373681E0
6.772892375E0,4.038614548E0,2.438871310E0,-6.365094187E0,7.922936624E0
6.782879375E0,4.076904455E0,2.122436956E0,-5.503220447E0,7.170169026E0
6.792865375E0,4.188184571E0,1.442840808E0,-4.535370601E0,6.339737068E0
6.802851375E0,3.751557190E0,7.928970605E-1,-3.741117279E0,5.357128484E0
6.812837375E0,3.046496419E0,1.329130590E-1,-3.726499532E0,4.815143308E0
6.822824375E0,2.905151090E0,-4.077655238E-1,-4.080813904E0,5.025854922E0
6.832810375E0,3.011621286E0,-1.025709799E0,-3.906239433E0,5.037921185E0
6.842796375E0,2.162167909E0,-1.764393230E0,-2.932073425E0,4.047852283E0
6.852783375E0,6.764170164E-1,-2.144478620E0,-1.428034050E0,2.663758581E0
6.862769375E0,-4.698821767E-1,-2.158240626E0,1.384152889E-2,2.208842106E0
6.872755375E0,-7.218196958E-1,-2.085332864E0,6.535749415E-1,2.301477141E0
6.882741375E0,-5.666638284E-1,-1.870596793E0,1.203665714E0,2.295441441E0
6.892728375E0,5.549767792E-2,-1.380708879E0,2.623259162E0,2.964949516E0
6.902714375E0,6.403987527E-1,-1.016051368E0,3.627274622E0,3.820941262E0
6.912700375E0,1.314609761E0,-1.511267264E0,3.492381111E0,4.026022031E0
6.922687375E0,1.558119542E0,-1.769688469E0,4.118384603E0,4.745590113E0
6.932673375E0,1.958281931E0,-2.006774937E0,5.285447332E0,5.983140252E0
6.942659375E0,2.789248751E0,-1.949609048E0,5.131653866E0,6.157495874E0
6.952645375E0,3.156290172E0,-2.298684899E0,5.029275552E0,6.367081945E0
6.962632375E0,2.328223863E0,-3.366886999E0,5.593951693E0,6.931727776E0
6.972618375E0,2.153511983E-1,-4.440763822E0,5.976225695E0,7.448626250E0
6.982604375E0,-2.358664468E0,-5.912143135E0,4.696400582E0,7.910304226E0
6.992591375E0,-4.651243705E0,-6.845476282E0,2.411371124E0,8.620285623E0
7.002577375E0,-5.084552790E0,-7.074845595E0,4.477289039E-1,8.723908438E0
7.012563375E0,-3.191801189E0,-7.285697946E0,6.673274466E-1,7.982124737E0
7.022549375E0,-7.226986054E-1,-7.277981375E0,2.203458899E0,7.638490512E0
7.032536375E0,1.262968029E0,-7.294065312E0,3.299324176E0,8.104567665E0
7.042522375E0,1.967326258E0,-6.731696482E0,3.775762909E0,7.965079766E0
7.052508375E0,1.062884276E0,-6.703344503E0,2.553423527E0,7.251518615E0
7.062495375E0,-6.827856575E-1,-7.752720323E0,4.637590456E-1,7.796533916E0
7.072481375E0,-1.774175476E0,-9.371886258E0,-3.671267537E-1,9.545403747E0
7.082467375E0,-1.733190587E0,-1.078267965E1,5.849659423E-1,1.093674152E1
7.092453375E0,-6.038806982E-1,-1.165987426E1,1.871096145E0,1.182448056E1
7.102440375E0,2.822597176E-1,-1.303144160E1,2.656724532E0,1.330249323E1
7.112426375E0,1.560118412E0,-1.323870201E1,2.061226548E0,1.348873067E1
7.122412375E0,3.681604026E0,-1.159362063E1,-2.580271018E-1,1.216687410E1
7.132399375E0,5.311889611E0,-8.894682709E0,-3.961745297E0,1.109175268E1
7.142385375E0,6.524267092E0,-6.232176450E0,-7.892987425E0,1.198771600E1
7.152371375E0,7.928385299E0,-2.622614214E0,-1.118180474E1,1.395600788E1
7.162357375E0,9.522038662E0,-2.264451206E-2,-1.310543578E1,1.619944999E1
7.172344375E0,9.837631602E0,5.001100159E-1,-1.273071579E1,1.609659064E1
7.182330375E0,1.070969470E1,-5.813629246E-1,-1.268901462E1,1.661465123E1
7.192316375E0,9.542648343E0,-2.552868041E0,-1.082909250E1,1.465771187E1
7.202303375E0,7.017690817E0,-4.059156402E0,-6.847830371E0,1.061214002E1
7.212289375E0,5.366800813E0,-5.903927797E0,-3.394565379E0,8.670754783E0
7.222275375E0,4.237120503E0,-7.496496502E0,-8.813837059E-1,8.656066497E0
7.232261375E0,3.682608578E0,-7.560010128E0,-2.491359718E-1,8.412932176E0
7.242248375E0,3.411738067E0,-7.375690688E0,-1.627843203E0,8.287981856E0
7.252234375E0,3.541069706E0,-7.030411434E0,-3.369004861E0,8.562479393E0
7.262220375E0,3.661494282E0,-6.202002479E0,-4.177702852E0,8.326138135E0
7.272207375E0,3.975734176E0,-5.646132245E0,-4.211084021E0,8.088170387E0
7.282193375E0,4.272595561E0,-5.803684886E0,-4.416052904E0,8.452180448E0
7.292179375E0,4.494782154E0,-5.846758400E0,-4.429655866E0,8.602877512E0
7.302165375E0,4.278009498E0,-5.928695433E0,-4.412069780E0,8.539154206E0
7.312152375E0,4.422219377E0,-6.188434600E0,-4.472045256E0,8.823374399E0
7.322138375E0,4.936328797E0,-5.971111135E0,-4.271505640E0,8.846879145E0
7.332124375E0,5.717454243E0,-5.706694781E0,-3.837887821E0,8.943435093E0
7.342111375E0,6.426285299E0,-4.990634227E0,-3.793491082E0,8.977424315E0
7.352097375E0,7.195439156E0,-3.791416198E0,-3.799156742E0,8.976790817E0
7.362083375E0,8.457634329E0,-3.267448665E0,-3.401990466E0,9.684076536E0
7.372069375E0,9.354402498E0,-2.718212682E0,-3.609056744E0,1.038839819E1
7.382056375E0,9.791465496E0,-2.521854410E0,-3.874151083E0,1.082781570E1
7.392042042E0,1.006157879E1,-2.686160585E0,-3.713611684E0,1.105629858E1
7.402028042E0,1.036681982E1,-2.925487121E0,-2.924776100E0,1.116170880E1
7.412014042E0,1.053624056E1,-2.908194566E0,-1.643728334E0,1.105313546E1
7.422001042E0,1.071368484E1,-2.584597957E0,-3.690119326E-2,1.102109573E1
7.431987042E0,1.057059880E1,-1.961312104E0,-1.366149312E-1,1.075188205E1
7.441973042E0,1.082222553E1,-1.207231054E0,-1.951453260E0,1.106282704E1
7.451960042E0,1.215765708E1,-1.177177389E0,-3.430160304E0,1.268701589E1
7.461946042E0,1.382400596E1,-1.836761587E0,-2.789879665E0,1.422182345E1
7.471932042E0,1.464145021E1,-2.604565029E0,-1.379956927E0,1.493519683E1
7.481918042E0,1.427859891E1,-3.485362698E0,1.627613407E-1,1.469872890E1
7.491905042E0,1.291071180E1,-5.731479374E0,2.387496504E0,1.432607673E1
7.501891042E0,9.900124304E0,-8.718782090E0,6.412409856E0,1.466794541E1
7.511877042E0,5.272043760E0,-9.119886466E0,1.019311659E1,1.465832188E1
7.521864042E0,2.039397430E0,-7.730909624E0,1.174686212E1,1.420967540E1
7.531850042E0,1.747598273E-1,-6.913964134E0,1.239132001E1,1.419078055E1
7.541836042E0,-1.139256295E0,-6.325421999E0,1.270219658E1,1.423568286E1
7.551822042E0,-1.517255983E0,-5.157469908E0,1.137188135E1,1.257860274E1
7.561809042E0,-9.487566403E-1,-3.288271769E0,7.763131875E0,8.484048968E0
7.571795042E0,7.216545850E-2,-8.209718817E-1,3.575657741E0,3.669404715E0
7.581781042E0,1.405403717E0,8.770870256E-1,4.930114961E-1,1.728439063E0
7.591768042E0,2.136596573E0,1.194234155E0,8.493548512E-2,2.449174181E0
7.601754042E0,1.557666675E0,6.419874412E-1,1.302190713E0,2.129359997E0
7.611740042E0,8.070151627E-2,-5.260248756E-1,2.527061940E0,2.582490455E0
7.621726042E0,-1.490426911E0,-1.699499661E0,3.258169718E0,3.965519057E0
7.631713042E0,-2.469304313E0,-2.461460858E0,3.320845438E0,4.815004441E0
7.641699042E0,-2.711497155E0,-2.670829770E0,2.650235876E0,4.637811842E0
7.651685042E0,-2.373888571E0,-2.635906690E0,1.525212874E0,3.861298400E0
7.661672042E0,-1.881178499E0,-2.150320573E0,1.871190870E-1,2.863166894E0
7.671658042E0,-1.251421679E0,-1.375779092E0,-8.888551319E-1,2.061283040E0
7.681644042E0,-5.308979452E-1,-8.187160259E-1,-1.601969274E0,1.875754278E0
7.691630042E0,-3.903747350E-2,-6.083688748E-1,-2.044744416E0,2.133686092E0
7.701617042E0,-1.099115744E-1,-5.629155439E-1,-2.229775463E0,2.302358156E0
7.711603042E0,-4.287386093E-1,-7.220492721E-1,-1.840074912E0,2.022633834E0
7.721589042E0,-6.768956110E-1,-1.038143318E0,-1.117609903E0,1.668826268E0
7.731576042E0,-8.469624630E-1,-1.313216223E0,-6.654593343E-1,1.698445874E0
7.741562042E0,-1.058427602E0,-1.655519244E0,-7.506678843E-1,2.103453168E0
7.751548042E0,-1.319621263E0,-1.675238394E0,-1.143408403E0,2.419753444E0
7.761534042E0,-1.144670817E0,-1.274394220E0,-1.721663532E0,2.428678081E0
7.771521042E0,-2.597131464E-1,-6.256725401E-1,-2.300872343E0,2.398526753E0
7.781507042E0,7.013562682E-1,1.509920651E-1,-2.771081452E0,2.862445044E0
7.791493042E0,1.294845149E0,6.602161360E-1,-3.134449067E0,3.455036940E0
7.801480042E0,1.537522725E0,7.218013501E-1,-3.419672738E0,3.818263343E0
7.811466042E0,1.525756080E0,6.319202900E-1,-3.387169821E0,3.768311859E0
7.821452042E0,1.714439005E0,7.612998766E-1,-3.130016293E0,3.649093120E0
7.831438042E0,2.275512091E0,9.904084039E-1,-3.186879296E0,4.039190975E0
7.841425042E0,2.849725918E0,1.177726296E0,-3.669023157E0,4.792672319E0
7.851411042E0,3.559361843E0,1.534193612E0,-4.444642280E0,5.897257987E0
7.861397042E0,4.951315795E0,2.446181499E0,-5.322576567E0,7.670016515E0
7.871384042E0,6.621121541E0,3.261362883E0,-5.860063155E0,9.424228271E0
7.881370042E0,8.100732565E0,3.351364396E0,-5.679911025E0,1.044580780E1
7.891356042E0,8.430127273E0,2.149121309E0,-5.104706973E0,1.008681325E1
7.901342042E0,7.354581070E0,-2.611261261E-1,-4.655516850E0,8.708150590E0
7.911329042E0,5.949460065E0,-1.910235652E0,-3.706412008E0,7.265161064E0
7.921315042E0,4.730748296E0,-2.634766483E0,-2.854403690E0,6.121241237E0
7.931301042E0,3.750378976E0,-3.149079970E0,-3.024068254E0,5.755609084E0
7.941288042E0,3.460525480E0,-2.777964794E0,-3.283169489E0,5.520102072E0
7.951274042E0,3.065911221E0,-2.932956355E0,-3.044834640E0,5.222361782E0
7.961260042E0,1.664280566E0,-3.362468843E0,-2.600771356E0,4.565089064E0
7.971246042E0,3.628724293E-1,-3.418511481E0,-2.082035034E0,4.019050514E0
7.981233042E0,2.463783518E-1,-3.141994314E0,-1.285036883E0,3.403549670E0
7.991219042E0,5.398300056E-1,-3.137970845E0,1.170038085E-1,3.186215208E0
8.001205042E0,-5.599632847E-1,-4.126668938E0,1.012940357E0,4.285907555E0
8.011192042E0,-3.060894603E0,-5.129050101E0,2.076528127E0,6.323622361E0
8.021178042E0,-4.840921241E0,-5.357886733E0,3.068455637E0,7.845819823E0
8.031164042E0,-5.005215429E0,-5.420195832E0,3.410563946E0,8.127893379E0
8.041150042E0,-4.734444613E0,-5.937142906E0,3.168370519E0,8.228195636E0
8.051137042E0,-4.257220599E0,-6.103116707E0,2.674621105E0,7.907310467E0
8.061123042E0,-3.481246550E0,-6.447615942E0,2.021722028E0,7.601196540E0
8.071109042E0,-2.513425941E0,-6.887140033E0,1.524231126E0,7.488209954E0
8.081096042E0,-1.479608685E0,-7.040164590E0,2.155302401E0,7.509892659E0
8.091082042E0,-4.398424718E-1,-6.735581957E0,3.178035967E0,7.460659375E0
8.101068042E0,6.408431411E-2,-6.878891950E0,3.681567773E0,7.802384413E0
8.111054042E0,-6.933882675E-1,-7.604350734E0,3.358933032E0,8.342024244E0
8.121041042E0,-1.920662553E0,-8.396086537E0,2.158482116E0,8.879316349E0
8.131027042E0,-2.745139987E0,-9.388642623E0,6.264777017E-1,9.801779337E0
8.141013042E0,-2.929258575E0,-1.035572181E1,-1.272588015E-1,1.076279354E1
8.151000042E0,-2.136212849E0,-1.080802382E1,1.091211917E0,1.107102198E1
8.160986042E0,-8.765641384E-1,-1.125347406E1,3.628482656E0,1.185642988E1
8.170972042E0,-2.330266003E-1,-1.237228264E1,5.732221971E0,1.363767018E1
8.180958042E0,-1.062303136E-1,-1.305234189E1,6.130474074E0,1.442073598E1
8.190945042E0,4.499841750E-1,-1.292426916E1,5.084072149E0,1.389557514E1
8.200931042E0,1.186392455E0,-1.250522026E1,3.054128205E0,1.292732609E1
8.210917042E0,2.738631744E0,-1.104193349E1,5.802420133E-1,1.139127209E1
8.220904042E0,4.826707537E0,-9.356008143E0,-2.893736740E0,1.091813658E1
8.230890042E0,6.640118560E0,-7.075393479E0,-6.688647527E0,1.178517599E1
8.240876042E0,8.773431337E0,-4.158811083E0,-8.909237598E0,1.317737916E1
8.250862042E0,1.027417303E1,-2.799042837E0,-9.237226050E0,1.409679458E1
8.260849042E0,1.170516913E1,-2.272841375E0,-8.174045539E0,1.445654913E1
8.270835042E0,1.225889344E1,-2.278808459E0,-6.375040301E0,1.400409137E1
8.280821042E0,1.199961620E1,-2.697837474E0,-4.769923179E0,1.319171267E1
8.290808042E0,1.142887416E1,-3.438597252E0,-3.723944592E0,1.250243492E1
8.300794042E0,1.074095158E1,-4.304154445E0,-3.020981216E0,1.195910171E1
8.310780042E0,9.892108941E0,-4.915565919E0,-3.051671497E0,1.145989994E1
8.320766042E0,9.324647187E0,-4.923101810E0,-3.082745063E0,1.098586791E1
8.330753042E0,8.881830529E0,-5.020068526E0,-3.217836210E0,1.069777881E1
8.340739042E0,8.222963930E0,-4.981883869E0,-3.722439811E0,1.030984291E1
8.350725042E0,7.485230672E0,-4.650577707E0,-4.386449328E0,9.843652215E0
8.360712042E0,6.962031171E0,-4.005050361E0,-5.162608441E0,9.547922933E0
8.370698042E0,6.629505279E0,-3.505594356E0,-5.937141151E0,9.564997495E0
8.380684042E0,6.422927828E0,-3.909981067E0,-6.474474542E0,9.922740268E0
8.390670250E0,6.102714418E0,-4.868461919E0,-6.600957418E0,1.022338904E1
8.400657250E0,5.974603677E0,-5.461538571E0,-6.348963473E0,1.028754732E1
8.410643250E0,6.182910735E0,-5.107942822E0,-6.150811860E0,1.010702486E1
8.420629250E0,6.923288105E0,-5.497434627E0,-6.046130912E0,1.071024765E1
8.430616250E0,7.529960117E0,-6.011009611E0,-5.675553095E0,1.118232708E1
8.440602250E0,7.751691797E0,-5.891697176E0,-4.779383097E0,1.084635073E1
8.450588250E0,8.005500133E0,-5.254338391E0,-3.323159181E0,1.013604909E1
8.460574250E0,8.984121135E0,-4.849152366E0,-1.662161096E0,1.034366911E1
8.470561250E0,9.440277046E0,-3.978506049E0,-2.680574155E-1,1.024788739E1
8.480547250E0,9.434467252E0,-3.000472984E0,7.217744529E-2,9.900364642E0
8.490533250E0,1.004341500E1,-1.877834915E0,-5.302834028E-1,1.023120957E1
8.500520250E0,1.058806092E1,-1.505543571E0,-1.236151090E0,1.076576820E1
8.510506250E0,1.077093142E1,-2.078739690E0,-6.093202168E-1,1.098660063E1
8.520492250E0,1.034164054E1,-3.141915962E0,1.714988351E-3,1.080838415E1
8.530478250E0,9.700431365E0,-3.653075753E0,-6.080911320E-1,1.038330901E1
8.540465250E0,1.028213460E1,-3.614347013E0,-9.570336664E-1,1.094082765E1
8.550451250E0,1.191832119E1,-4.046536356E0,1.977844083E-1,1.258808783E1
8.560437250E0,1.254585490E1,-4.066015186E0,1.427746221E0,1.326534636E1
8.570424250E0,1.260031587E1,-3.276189375E0,2.943041632E0,1.334776651E1
8.580410250E0,1.217393807E1,-3.120835287E0,4.342628832E0,1.329672163E1
8.590396250E0,1.069055209E1,-3.966641171E0,4.354555398E0,1.220591245E1
8.600382250E0,8.645759722E0,-5.309835484E0,4.155437239E0,1.096408558E1
8.610369250E0,6.344012636E0,-6.145324248E0,4.591398037E0,9.954518691E0
8.620355250E0,4.034215103E0,-5.942065676E0,5.792631310E0,9.227004579E0
8.630341250E0,2.648619998E0,-4.834176185E0,6.592801137E0,8.593571674E0
8.640328250E0,2.465738973E0,-3.723290581E0,6.759992328E0,8.101867545E0
8.650314250E0,2.512679836E0,-2.747777959E0,6.996234459E0,7.925347959E0
8.660300250E0,2.424845009E0,-1.501625206E0,6.597506976E0,7.187617816E0
8.670286250E0,2.040039454E0,-8.304753613E-1,5.771432814E0,6.177449881E0
8.680273250E0,1.417352356E0,-9.763031656E-1,4.395472459E0,4.720406096E0
8.690259250E0,1.776868703E-1,-1.757794647E0,2.508083632E0,3.067881704E0
8.700245250E0,-1.262037152E0,-2.469438799E0,9.146109474E-1,2.920167622E0
8.710232250E0,-2.181213021E0,-2.821338270E0,4.482282561E-1,3.594238229E0
8.720218250E0,-1.986106053E0,-2.855695340E0,1.522816685E0,3.797181031E0
8.730204250E0,-1.162606712E0,-2.712193558E0,3.320967060E0,4.442574758E0
8.740190250E0,-9.428256632E-1,-2.553206595E0,4.567223309E0,5.316701318E0
8.750177250E0,-1.369782187E0,-2.309916231E0,4.603040428E0,5.329164796E0
8.760163250E0,-1.366827735E0,-1.915320976E0,3.412777117E0,4.145325096E0
8.770149250E0,-9.496483406E-1,-1.482831085E0,2.032143082E0,2.688907865E0
8.780136250E0,-4.771799039E-1,-1.057056137E0,9.692479151E-1,1.511459513E0
8.790122250E0,-2.613883737E-1,-9.010307890E-1,-3.617128533E-1,1.005493189E0
8.800108250E0,-4.445712978E-1,-1.209127598E0,-1.558980544E0,2.022388075E0
8.810094250E0,-6.372399406E-1,-1.429675217E0,-1.859826806E0,2.430843828E0
8.820081250E0,-7.753921048E-1,-1.725280620E0,-1.593238796E0,2.473102504E0
8.830067250E0,-6.835548587E-1,-1.592054150E0,-1.080587672E0,2.041948427E0
8.840053250E0,-6.459388433E-1,-1.038989410E0,-9.175830871E-1,1.529279146E0
8.850040250E0,-3.984515671E-1,-7.364410239E-1,-1.099251400E0,1.381833084E0
8.860026250E0,1.510957070E-2,-3.423825431E-1,-1.472897835E0,1.512244074E0
8.870012250E0,6.851791421E-1,2.018762898E-1,-2.148191602E0,2.263835606E0
8.879998250E0,1.579202847E0,8.084336972E-1,-2.893294106E0,3.393905930E0
8.889985250E0,2.615833783E0,1.329241687E0,-3.374511768E0,4.471778116E0
8.899971250E0,3.504607054E0,1.637896906E0,-3.531085001E0,5.237703519E0
8.909957250E0,3.245743508E0,1.449959208E0,-3.637952222E0,5.086445615E0
8.919944250E0,2.131580247E0,5.398494476E-1,-3.491892868E0,4.126546689E0
8.929930250E0,1.388544148E0,-2.718966973E-1,-2.879478305E0,3.208329468E0
8.939916250E0,1.376218949E0,-3.510902166E-1,-1.926210830E0,2.393226086E0
8.949902250E0,1.611149402E0,-2.507139891E-1,-1.673554396E0,2.336545360E0
8.959889250E0,2.169772505E0,-7.280251265E-2,-1.975211667E0,2.935076500E0
8.969875250E0,2.265940053E0,-1.351005024E-1,-2.266362661E0,3.207668340E0
8.979861250E0,1.532778294E0,-3.268002981E-1,-1.920616507E0,2.478906109E0
8.989848250E0,6.399273940E-1,-5.139649934E-1,-1.536871929E0,1.742309505E0
8.999834250E0,8.898750325E-1,-4.079415250E-1,-1.118580833E0,1.486444395E0
9.009820250E0,1.740820911E0,2.904195070E-2,-5.493236911E-1,1.825666289E0
9.019806250E0,2.436874047E0,-1.565708935E-2,3.198664505E-2,2.437134262E0
9.029793250E0,2.271271544E0,-4.609284085E-1,4.217637581E-1,2.355634541E0
9.039779250E0,1.565408242E0,-8.787546515E-1,8.359365877E-1,1.980278435E0
9.049765250E0,6.285172105E-1,-1.541490937E0,1.497732568E0,2.239292531E0
9.059752250E0,-3.925038159E-1,-2.140501344E0,3.075144852E0,3.767269715E0
9.069738250E0,-9.065944878E-1,-2.525788416E0,5.425353661E0,6.052766561E0
9.079724250E0,-9.013153291E-1,-3.324323947E0,6.975312536E0,7.779362699E0
9.089711250E0,-9.157666495E-1,-4.449921146E0,6.731233383E0,8.120956201E0
9.099697250E0,-2.043192565E-2,-4.121223426E0,5.755761691E0,7.079102531E0
9.109683250E0,1.777624602E0,-3.680712326E0,4.593749202E0,6.148993754E0
9.119669250E0,2.856067808E0,-3.123951561E0,3.116322114E0,5.256202069E0
9.129656250E0,2.224867602E0,-2.250262937E0,7.217077947E-1,3.245701969E0
9.139642250E0,8.340502759E-1,-2.444312144E0,-2.237417043E0,3.417065516E0
9.149628250E0,6.977606691E-2,-2.831949213E0,-4.265131005E0,5.120170655E0
9.159614250E0,4.556134357E-1,-3.027392980E0,-4.058904387E0,5.084033505E0
9.169601250E0,7.850938050E-1,-3.803271720E0,-2.531701705E0,4.635812937E0
9.179587250E0,2.775664865E-1,-4.972427167E0,-7.775165445E-1,5.040496708E0
9.189573250E0,-4.711203977E-1,-6.507890210E0,4.740419590E-1,6.542117791E0
9.199560250E0,-1.176218592E0,-7.717511898E0,1.048462484E0,7.876722266E0
9.209546250E0,-1.372805490E0,-8.004493243E0,1.319879125E0,8.227915161E0
9.219532250E0,-1.034139291E0,-8.237872576E0,1.473714691E0,8.432308322E0
9.229519250E0,3.248658930E-1,-7.627841338E0,9.932647687E-1,7.699095806E0
9.239505250E0,1.476637861E0,-6.439088362E0,-1.839902602E-1,6.608794953E0
9.249491250E0,1.199917357E0,-6.199578223E0,-2.365748370E0,6.743243816E0
9.259477250E0,8.900231132E-1,-5.920119907E0,-4.213010094E0,7.320479144E0
9.269464250E0,1.189748172E0,-6.094151756E0,-4.601069916E0,7.728132420E0
9.279450250E0,1.389588461E0,-7.149004077E0,-4.023750926E0,8.320443913E0
9.289436250E0,1.698044289E0,-8.456420447E0,-3.381676946E0,9.264455740E0
9.299423250E0,1.336943055E0,-9.541087722E0,-2.854180326E0,1.004818974E1
9.309409250E0,1.482761503E0,-9.600298381E0,-2.379275318E0,1.000126301E1
9.319395250E0,3.022660829E0,-9.005632457E0,-2.396768433E0,9.797060444E0
9.329381250E0,5.026325632E0,-7.839100070E0,-3.515780498E0,9.953700406E0
9.339368250E0,6.846243437E0,-5.593233070E0,-5.598539418E0,1.046417455E1
9.349354250E0,7.482397111E0,-2.919499573E0,-7.878227883E0,1.125060971E1
9.359340250E0,8.406365942E0,-7.273097196E-1,-9.827888972E0,1.295312200E1
9.369327250E0,1.094374354E1,8.485628459E-1,-1.136909456E1,1.580322413E1
9.379313250E0,1.167273346E1,7.734191081E-1,-1.192499871E1,1.670498362E1
9.389298792E0,1.061355244E1,-1.879438367E-1,-1.031667878E1,1.480259029E1
9.399284792E0,8.470261976E0,-2.016915178E0,-5.699468792E0,1.040659547E1
9.409271792E0,6.993826575E0,-4.299798270E0,-2.216905303E0,8.503913478E0
9.419257792E0,5.235938373E0,-6.376210914E0,-1.093590125E0,8.322683198E0
9.429243792E0,2.613162775E0,-7.286335877E0,-1.044125605E0,7.810858370E0
9.439230792E0,1.383747092E0,-7.299595023E0,-1.690316024E0,7.619449572E0
9.449216792E0,1.651515656E0,-6.998518381E0,-2.133724421E0,7.500636199E0
9.459202792E0,2.170506331E0,-5.614735621E0,-2.656945556E0,6.579947835E0
9.469188792E0,3.544108504E0,-4.379263392E0,-3.325700966E0,6.542089870E0
9.479175792E0,4.862953842E0,-3.501239935E0,-4.067854135E0,7.242543642E0
9.489161792E0,5.754478812E0,-3.259504638E0,-4.537051091E0,8.020176400E0
9.499147792E0,6.102214481E0,-2.921966220E0,-5.207991021E0,8.538037166E0
9.509134792E0,6.640672292E0,-3.358490982E0,-4.852597253E0,8.884013185E0
9.519120792E0,6.844805607E0,-4.262238680E0,-2.980281379E0,8.596517868E0
9.529106792E0,6.820794600E0,-4.274286575E0,-1.639720652E0,8.214709278E0
9.539092792E0,6.748661009E0,-3.924112033E0,-1.188291923E0,7.896525714E0
9.549079792E0,6.791543904E0,-3.301057291E0,-1.407528303E0,7.681352990E0
9.559065792E0,7.096142909E0,-2.649319910E0,-1.819589776E0,7.790060791E0
9.569051792E0,7.766757733E0,-2.046139270E0,-1.772881633E0,8.225103093E0
9.579038792E0,8.852621933E0,-8.741610058E-1,-1.708802581E0,9.058315451E0
9.589024792E0,1.019194948E1,-1.205109319E-2,-1.567727979E0,1.031182576E1
9.599010792E0,1.167902272E1,4.047952113E-1,-1.987710090E0,1.185387794E1
9.608996792E0,1.233849275E1,-7.038012084E-1,-2.895340047E0,1.269317665E1
9.618983792E0,1.122086180E1,-3.049697185E0,-2.645910106E0,1.192515127E1
9.628969792E0,9.945725570E0,-4.652275738E0,-1.327364731E0,1.105997395E1
9.638955792E0,9.701356394E0,-5.443648430E0,-4.966508031E-2,1.112439170E1
9.648942792E0,1.007553142E1,-5.484265528E0,4.899779606E-1,1.148188051E1
9.658928792E0,9.422425497E0,-5.323815007E0,1.250900692E0,1.089448764E1
9.668914792E0,8.115504971E0,-4.675055321E0,1.591844820E0,9.500080690E0
9.678900792E0,7.393226488E0,-4.845726775E0,2.233391966E0,9.117505445E0
9.688887792E0,6.565981713E0,-5.440945262E0,3.131423718E0,9.084151897E0
9.698873792E0,5.628129838E0,-5.840270330E0,3.979702097E0,9.034524435E0
9.708859792E0,4.704731694E0,-5.863820575E0,4.891599936E0,8.969205204E0
9.718846792E0,3.365269367E0,-5.357935849E0,5.878564914E0,8.636552549E0
9.728832792E0,1.944967529E0,-4.321557221E0,6.532377180E0,8.070359789E0
9.738818792E0,1.103553196E0,-3.476985977E0,6.985913538E0,7.881005590E0
9.748804792E0,6.070396565E-1,-3.048910734E0,7.984255444E0,8.568120495E0
9.758791792E0,3.051601915E-1,-2.486845375E0,8.364047304E0,8.731254776E0
9.768777792E0,3.642638473E-1,-1.991949906E0,6.630351371E0,6.932684320E0
9.778763792E0,-1.541137473E-1,-1.984598787E0,3.031601222E0,3.626705028E0
9.788750792E0,-1.116822867E0,-2.422792051E0,-1.944164121E-1,2.674885490E0
9.798736792E0,-1.691760725E0,-2.751887382E0,-1.269711185E0,3.470893978E0
9.808722792E0,-1.671443113E0,-2.595372037E0,-3.278282386E-1,3.104375854E0
9.818708792E0,-1.039601760E0,-2.324897967E0,1.616504867E0,3.016456590E0
9.828695792E0,-5.061155449E-1,-1.930395098E0,3.504519930E0,4.032894509E0
9.838681792E0,-3.047485475E-1,-1.555593837E0,4.204480761E0,4.493373157E0
9.848667792E0,-4.305563624E-1,-1.426377388E0,3.223392819E0,3.551083285E0
9.858654792E0,-6.105471088E-1,-1.328925353E0,1.649597184E0,2.204536512E0
9.868640792E0,-5.559990187E-1,-1.185935787E0,5.991624337E-1,1.440338232E0
9.878626792E0,-4.359144585E-1,-1.121127003E0,8.147042513E-2,1.205646964E0
9.888612792E0,-6.671785618E-1,-1.321877119E0,-5.901623994E-1,1.593981809E0
9.898599792E0,-1.274189567E0,-1.877084278E0,-1.994037362E0,3.020461793E0
9.908585792E0,-1.944548576E0,-2.277785196E0,-3.071727154E0,4.290114483E0
9.918571792E0,-2.254642355E0,-2.118899975E0,-2.817707149E0,4.184808578E0
9.928558792E0,-1.896735016E0,-1.813944290E0,-1.626153358E0,3.087454024E0
9.938544792E0,-1.199582896E0,-1.524843915E0,-6.074988091E-1,2.033028010E0
9.948530792E0,-6.707282603E-1,-1.091433088E0,-6.363051170E-1,1.430379945E0
9.958516792E0,-2.228647242E-1,-4.954170406E-1,-1.470948958E0,1.568055346E0
9.968503792E0,2.693920425E-1,-1.724110007E-2,-2.422051209E0,2.437047679E0
9.978489792E0,6.249299437E-1,1.404302394E-1,-2.811467586E0,2.883506211E0
9.988475792E0,8.057802308E-1,2.947002536E-1,-2.658762871E0,2.793769859E0
9.998462792E0,7.949066024E-1,3.038920766E-1,-2.537630782E0,2.676527020E0
1.000844879E1,7.759769726E-1,1.104895717E-1,-2.616434877E0,2.731314642E0
1.001843479E1,6.191387151E-1,-3.372790933E-2,-3.027177218E0,3.090027869E0
1.002842079E1,3.321081081E-1,-6.418722510E-2,-3.732554909E0,3.747850310E0
1.003840779E1,5.418246371E-1,6.853053689E-2,-4.265822146E0,4.300640528E0
1.004839379E1,1.155657150E0,3.831931847E-1,-4.471365225E0,4.634165236E0
1.005837979E1,1.834170247E0,5.959856415E-1,-4.423227437E0,4.825382922E0
1.006836679E1,2.233182928E0,8.086599845E-1,-4.430014885E0,5.026536466E0
1.007835279E1,2.395531894E0,1.124538268E0,-4.439032461E0,5.167994636E0
1.008833879E1,2.578444932E0,1.176433477E0,-3.808053865E0,4.746962000E0
1.009832479E1,2.844821273E0,8.779535830E-1,-2.951211947E0,4.192071388E0
1.010831179E1,2.888915711E0,7.213101840E-1,-2.223039178E0,3.715915170E0
1.011829779E1,2.696930864E0,2.905341125E-1,-1.982623013E0,3.359857164E0
1.012828379E1,2.220479852E0,-3.719641918E-1,-1.963772028E0,2.987522169E0
1.013827079E1,1.598187587E0,-7.714880651E-1,-1.880066797E0,2.585352695E0
1.014825679E1,1.235079734E0,-9.865714610E-1,-1.673003004E0,2.301669882E0
1.015824279E1,8.462204513E-1,-1.224185933E0,-1.213717151E0,1.920372249E0
1.016822879E1,4.610155686E-1,-1.417712983E0,-8.001481926E-1,1.691946390E0
1.017821579E1,7.849271229E-2,-1.587324922E0,-8.331434458E-1,1.794405059E0
1.018820179E1,2.500474796E-1,-1.414919769E0,-5.287831534E-1,1.531056275E0
1.019818779E1,8.508771008E-1,-1.307684172E0,3.574180734E-1,1.600555346E0
1.020817479E1,1.098126615E0,-1.746128867E0,1.399343956E0,2.492591340E0
1.021816079E1,9.514520605E-1,-1.752887664E0,2.127548591E0,2.916220018E0
1.022814679E1,7.505570796E-1,-1.681858027E0,2.422820410E0,3.043360165E0
1.023813279E1,3.898976022E-1,-2.133166596E0,2.739650329E0,3.494009701E0
1.024811979E1,-3.495250632E-1,-2.625102205E0,3.792612830E0,4.625715235E0
1.025810579E1,-9.736994004E-1,-2.962117589E0,5.403810765E0,6.238862229E0
1.026809179E1,-1.247393239E0,-3.416241592E0,6.205387432E0,7.192602428E0
1.027807879E1,-1.125252506E0,-3.813456985E0,6.822614254E0,7.896626662E0
1.028806479E1,-8.219948521E-1,-4.467819473E0,7.249284410E0,8.555069307E0
1.029805079E1,3.397173822E-2,-5.267971759E0,6.873162264E0,8.659852195E0
1.030803679E1,1.164104623E0,-5.223797799E0,5.851833783E0,7.930142599E0
1.031802379E1,1.773529505E0,-4.719645018E0,4.749967801E0,6.926950997E0
1.032800979E1,1.805099207E0,-4.400254896E0,3.294547586E0,5.785729867E0
1.033799579E1,1.624454741E0,-4.088643910E0,1.740499607E0,4.731300150E0
1.034798279E1,1.412203737E0,-4.145463059E0,4.209270215E-1,4.399586677E0
1.035796879E1,1.340272459E0,-4.502905106E0,-1.007716162E0,4.804994955E0
1.036795479E1,1.222770322E0,-4.803994027E0,-1.912647629E0,5.313355515E0
1.037794079E1,1.184754649E0,-5.472086948E0,-1.823780476E0,5.888425457E0
1.038792779E1,6.934259089E-1,-6.793495705E0,-9.018008673E-1,6.888081604E0
1.039791375E1,-1.430294364E-1,-8.220514532E0,6.214175212E-1,8.245209295E0
1.040789975E1,-3.626330223E-1,-9.723771695E0,2.403674580E0,1.002301802E1
1.041788675E1,7.337263810E-1,-1.069559122E1,3.849874613E0,1.139102982E1
1.042787275E1,2.429107191E0,-1.015692466E1,3.908118728E0,1.115065345E1
1.043785875E1,3.311857098E0,-9.140405515E0,2.163191464E0,9.959659017E0
1.044784575E1,3.511663181E0,-8.271117505E0,-1.153805337E0,9.059493907E0
1.045783175E1,4.048188779E0,-6.971146395E0,-4.342355182E0,9.156460178E0
1.046781775E1,4.324702438E0,-6.382534093E0,-6.931958356E0,1.036782712E1
1.047780375E1,4.627173641E0,-6.246165329E0,-8.264031265E0,1.134546297E1
1.048779075E1,4.902730696E0,-6.506944715E0,-7.177381200E0,1.085780358E1
1.049777675E1,5.434058996E0,-7.604608596E0,-4.135419881E0,1.022060500E1
1.050776275E1,5.374857692E0,-8.300002166E0,-1.354535573E0,9.980676218E0
1.051774975E1,6.003103006E0,-8.362618829E0,-8.873097128E-1,1.033237426E1
1.052773575E1,7.039761717E0,-8.177542174E0,-2.496905510E0,1.107542226E1
1.053772175E1,7.743555982E0,-6.838345603E0,-5.677537056E0,1.178813203E1
1.054770775E1,9.014550630E0,-3.526508385E0,-8.773540095E0,1.306420263E1
1.055769475E1,1.139435220E1,-6.082203555E-1,-1.058412107E1,1.556357326E1
1.056768075E1,1.361403127E1,6.334671709E-1,-1.241090233E1,1.843294944E1
1.057766675E1,1.393262383E1,1.785099390E-1,-1.292562103E1,1.900582942E1
1.058765375E1,1.174729481E1,-1.558972943E0,-1.098713573E1,1.616002734E1
1.059763975E1,8.755325434E0,-4.156772451E0,-7.426410606E0,1.221008006E1
1.060762575E1,5.553774889E0,-6.758648053E0,-4.044539532E0,9.637532830E0
1.061761175E1,2.876742977E0,-8.211095252E0,-2.347514997E0,9.011579332E0
1.062759875E1,1.821645073E0,-8.651190616E0,-2.359653232E0,9.150379949E0
1.063758475E1,2.234740918E0,-8.634071138E0,-2.955024331E0,9.395393562E0
1.064757075E1,2.919375612E0,-8.273755184E0,-3.974767631E0,9.632058790E0
1.065755775E1,3.185817441E0,-6.637373877E0,-5.358431693E0,9.105874750E0
1.066754375E1,4.359930158E0,-5.807227714E0,-6.443880740E0,9.708577841E0
1.067752975E1,5.762195967E0,-5.291517327E0,-6.511141262E0,1.017831118E1
1.068751575E1,6.752489766E0,-4.354807413E0,-6.540638126E0,1.036052184E1
1.069750275E1,7.795385116E0,-4.148940106E0,-5.457768871E0,1.038118366E1
1.070748875E1,9.169103649E0,-4.901306606E0,-3.053021327E0,1.083587594E1
1.071747475E1,9.722605761E0,-5.296370516E0,-1.305255824E0,1.114828669E1
1.072746175E1,9.799169787E0,-4.869496876E0,1.199737555E-1,1.094303989E1
1.073744775E1,1.036093284E1,-3.843947875E0,1.283016524E0,1.112524139E1
1.074743375E1,1.180615405E1,-2.531599672E0,2.089459829E0,1.225398355E1
1.075741975E1,1.401640742E1,-1.280306339E0,2.727814395E0,1.433666044E1
1.076740675E1,1.551527800E1,-3.254097571E-1,1.834663898E0,1.562676341E1
1.077739275E1,1.577895936E1,-7.999882713E-2,-3.690411687E-1,1.578347711E1
1.078737875E1,1.534967316E1,-2.087446632E0,-1.076365982E0,1.552831167E1
1.079736575E1,1.379621414E1,-4.743023648E0,1.232362679E0,1.464071432E1
1.080735175E1,1.154346789E1,-6.279137778E0,4.832929559E0,1.400130102E1
1.081733775E1,8.233507630E0,-7.532912961E0,8.505546999E0,1.403138465E1
1.082732375E1,4.067994176E0,-7.946332158E0,1.111814026E1,1.425853478E1
1.083731075E1,7.912694880E-1,-7.239160541E0,1.136049799E1,1.349416419E1
1.084729675E1,-7.094578779E-1,-5.727145418E0,9.727929651E0,1.131088592E1
1.085728275E1,-5.865760097E-1,-4.070173725E0,7.859855347E0,8.870609429E0
1.086726975E1,4.850560668E-1,-2.824317134E0,6.861341532E0,7.435728229E0
1.087725575E1,7.310618779E-1,-1.798916945E0,6.144772271E0,6.444282730E0
1.088724175E1,6.245899281E-1,-4.518991381E-1,4.929651276E0,4.989567829E0
1.089722775E1,6.160032919E-1,5.882880744E-1,2.931260662E0,3.052512405E0
1.090721475E1,7.150083473E-1,9.537913853E-1,1.407309617E0,1.844308896E0
1.091720075E1,6.481240940E-1,7.023885942E-1,1.145352017E0,1.491725786E0
1.092718675E1,1.861037180E-1,-4.923004746E-2,1.177421656E0,1.193054881E0
1.093717375E1,-7.234771621E-1,-1.073182758E0,1.038143318E0,1.659181119E0
1.094715975E1,-1.786738365E0,-1.850391739E0,9.865942651E-1,2.754950420E0
1.095714575E1,-2.240960602E0,-2.188826827E0,1.036860439E0,3.299688904E0
1.096713175E1,-2.222963457E0,-2.220307651E0,1.185479119E0,3.358078816E0
1.097711875E1,-1.908854540E0,-2.100240340E0,1.201862433E0,3.082078592E0
1.098710475E1,-1.575821695E0,-1.807955571E0,3.849964660E-1,2.429020305E0
1.099709075E1,-1.284924470E0,-1.396036186E0,-8.286276412E-1,2.070403751E0
1.100707775E1,-9.488756311E-1,-9.814954931E-1,-1.732030061E0,2.205363122E0
1.101706375E1,-4.730701518E-1,-6.892019534E-1,-2.170194674E0,2.325626717E0
1.102704975E1,-1.218822867E-1,-5.848469880E-1,-2.175080608E0,2.255632271E0
1.103703575E1,3.555574894E-2,-4.574326506E-1,-1.890664437E0,1.945538705E0
1.104702275E1,9.085929930E-2,-3.714028591E-1,-1.702470632E0,1.744878720E0
1.105700875E1,3.620707029E-1,-3.373007280E-1,-1.988506481E0,2.049152264E0
1.106699475E1,7.807009381E-1,-2.647806358E-1,-2.654752851E0,2.779804928E0
1.107698175E1,7.843209493E-1,-3.866243309E-1,-3.319180736E0,3.432433318E0
1.108696775E1,4.869485182E-1,-5.536629099E-1,-3.796575488E0,3.867511722E0
1.109695375E1,2.888811046E-1,-6.572919434E-1,-4.167697096E0,4.229087854E0
1.110693975E1,2.673738760E-1,-6.437679183E-1,-4.527586203E0,4.580934703E0
1.111692675E1,5.412106794E-1,-5.040755975E-1,-4.525285324E0,4.585325340E0
1.112691275E1,9.034948057E-1,-1.940024292E-1,-4.541762193E0,4.634818618E0
1.113689875E1,1.370592027E0,3.169366300E-1,-4.786362918E0,4.988811613E0
1.114688575E1,2.142951912E0,9.741244930E-1,-4.796162267E0,5.342689764E0
1.115687175E1,3.266031300E0,1.668997076E0,-4.728158564E0,5.983978200E0
1.116685775E1,4.259767354E0,1.989825028E0,-5.009195044E0,6.870011393E0
1.117684375E1,4.874978641E0,2.106674032E0,-5.244433792E0,7.463750935E0
1.118683075E1,4.843952730E0,1.825907693E0,-5.489559013E0,7.545400924E0
1.119681675E1,4.652317838E0,1.306540457E0,-6.039242892E0,7.734569409E0
1.120680275E1,4.653455122E0,2.303592467E-1,-6.123187274E0,7.694227209E0
1.121678975E1,4.422767261E0,-1.420353586E0,-5.411403374E0,7.131729176E0
1.122677575E1,3.741318716E0,-2.402962974E0,-4.121107067E0,6.062608370E0
1.123676175E1,3.402536011E0,-2.060957576E0,-2.807835295E0,4.869161784E0
1.124674875E1,3.562419060E0,-1.711575916E0,-2.440107411E0,4.644830013E0
1.125673475E1,3.566366808E0,-1.881021209E0,-2.440479002E0,4.713082935E0
1.126672075E1,3.295738956E0,-2.179268383E0,-1.992574681E0,4.425094328E0
1.127670675E1,3.019177058E0,-2.348012010E0,-1.181917873E0,4.003188775E0
1.128669375E1,2.852097841E0,-2.735747312E0,-6.172006555E-1,3.999964012E0
1.129667975E1,2.066223286E0,-3.158946562E0,-4.475236666E-1,3.801118188E0
1.130666575E1,1.403699546E0,-3.206951033E0,-2.680622394E-1,3.510949260E0
1.131665275E1,1.323409820E0,-3.263943259E0,7.001492567E-3,3.522043181E0
1.132663875E1,5.793538944E-1,-3.652684282E0,4.062844241E-1,3.720594097E0
1.133662475E1,-2.228214183E-1,-3.600073375E0,9.687356991E-1,3.734786010E0
1.134661075E1,-5.263174557E-1,-3.325066543E0,1.032471446E0,3.521232010E0
1.135659775E1,-5.943186003E-1,-3.536745105E0,5.963698035E-1,3.635579387E0
1.136658375E1,-8.444983001E-1,-3.685698246E0,8.000914747E-1,3.864931475E0
1.137656975E1,-1.302076254E0,-3.786331751E0,1.369783064E0,4.231786425E0
1.138655675E1,-1.394906504E0,-3.798283460E0,1.645393621E0,4.368070691E0
1.139654338E1,-1.104718254E0,-3.561667693E0,1.792617448E0,4.137554409E0
1.140652938E1,-7.179052041E-1,-3.388484859E0,1.883714729E0,3.942790725E0
1.141651538E1,-3.063470301E-1,-3.207459741E0,2.194110371E0,3.898174805E0
1.142650237E1,-1.280066603E-1,-3.117985647E0,2.727609742E0,4.144644147E0
1.143648838E1,-4.483884698E-1,-3.496997488E0,3.513820512E0,4.977647862E0
1.144647438E1,-8.959290934E-1,-3.542423921E0,4.815489069E0,6.044864858E0
1.145646137E1,-1.096816619E0,-3.586752833E0,5.744501708E0,6.860546804E0
1.146644738E1,-1.011915925E0,-3.822676874E0,5.757512348E0,6.984681865E0
1.147643338E1,-1.269418824E-1,-3.516494443E0,5.578837225E0,6.595852651E0
1.148641937E1,8.792665753E-1,-3.920745206E0,5.427990171E0,6.753401363E0
1.149640638E1,1.255067710E0,-4.688588117E0,4.995400293E0,6.965061204E0
1.150639238E1,1.186035190E0,-5.022182879E0,4.194777306E0,6.650199771E0
1.151637838E1,9.285264435E-1,-5.049516858E0,3.199708672E0,6.049621264E0
1.152636538E1,5.948471886E-1,-5.009685041E0,2.321848644E0,5.553536577E0
1.153635137E1,4.058949995E-1,-5.301831231E0,1.616205051E0,5.557542975E0
1.154633738E1,3.086745143E-2,-6.211615301E0,1.189798458E0,6.324613650E0
1.155632338E1,-2.214907748E-1,-7.017616557E0,7.733890680E-1,7.063577773E0
1.156631037E1,2.809455559E-2,-7.768927050E0,3.065847194E-1,7.775024824E0
1.157629638E1,2.375153616E-1,-8.653254683E0,8.005106469E-1,8.693448536E0
1.158628238E1,8.565612522E-1,-8.821279103E0,1.645852627E0,9.014293819E0
1.159626938E1,1.927325894E0,-8.154437487E0,2.070321307E0,8.631087193E0
1.160625538E1,3.072191131E0,-7.578017798E0,1.534212908E0,8.319766904E0
1.161624138E1,3.800342557E0,-6.153191677E0,-6.422850645E-1,7.260640569E0
1.162622738E1,3.678904366E0,-4.855395731E0,-3.759273176E0,7.158305655E0
1.163621438E1,3.637361361E0,-4.619671664E0,-5.914144052E0,8.339596143E0
1.164620037E1,3.818303449E0,-5.134189219E0,-6.597904587E0,9.190847899E0
1.165618638E1,3.657244526E0,-5.706635724E0,-5.954020894E0,9.021723428E0
1.166617338E1,3.664699726E0,-6.394323834E0,-4.157367990E0,8.461743908E0
1.167615937E1,3.449533884E0,-7.135369540E0,-1.833664609E0,8.134808442E0
1.168614538E1,3.670075656E0,-7.916555797E0,6.855743408E-2,8.726168181E0
1.169613138E1,3.736973065E0,-8.392910330E0,3.586401415E-1,9.194266379E0
1.170611838E1,4.584227012E0,-8.018581524E0,-1.409665461E0,9.343443887E0
1.171610438E1,6.212316383E0,-6.727705758E0,-3.988843049E0,9.988281557E0
1.172609038E1,7.431838576E0,-3.942849435E0,-7.714547360E0,1.141457521E1
1.173607738E1,7.595629027E0,-1.520872486E0,-1.098588091E1,1.344232915E1
1.174606338E1,8.178524507E0,-7.040053493E-1,-1.215214316E1,1.466487197E1
1.175604937E1,8.687031709E0,-4.239734209E-1,-1.039780188E1,1.355575735E1
1.176603538E1,8.643952348E0,-1.156664333E0,-7.246912195E0,1.133902645E1
1.177602238E1,7.911453516E0,-2.594012267E0,-4.274342124E0,9.358952771E0
1.178600837E1,6.429317080E0,-4.002279658E0,-2.134014881E0,7.868187853E0
1.179599438E1,4.534265478E0,-5.250800825E0,-8.246384514E-1,6.986451267E0
1.180598138E1,3.044644606E0,-5.982654709E0,-4.032718655E-1,6.724927236E0
1.181596738E1,2.302113122E0,-6.024403828E0,-4.385317453E-1,6.464168655E0
1.182595338E1,2.322560250E0,-5.724567965E0,-7.818247730E-1,6.227055041E0
1.183593938E1,2.787507450E0,-5.428521098E0,-1.792808359E0,6.360283084E0
1.184592638E1,3.370173134E0,-4.583107855E0,-3.248070408E0,6.550794298E0
1.185591238E1,3.919823100E0,-3.837379991E0,-5.017695726E0,7.434229531E0
1.186589837E1,4.974704658E0,-3.657881580E0,-6.233863957E0,8.774328688E0
1.187588538E1,6.068699411E0,-3.229765114E0,-6.731567259E0,9.621563958E0
1.188587138E1,7.013899482E0,-2.489146547E0,-7.201105692E0,1.035599149E1
1.189585737E1,7.777448782E0,-1.834944857E0,-7.380301802E0,1.087771055E1
1.190584338E1,8.857373380E0,-2.357998324E0,-6.153440183E0,1.103983901E1
1.191583038E1,9.771548125E0,-2.668109353E0,-4.637663839E0,1.114046167E1
1.192581638E1,1.049512177E1,-2.509775524E0,-3.301244402E0,1.128471394E1
1.193580238E1,1.107085148E1,-1.558813168E0,-2.285512877E0,1.141127601E1
1.194578937E1,1.189469610E1,-3.032448995E-1,-2.218409060E0,1.210359829E1
1.195577538E1,1.291336293E1,2.159710763E-1,-2.034691299E0,1.307446191E1
1.196576138E1,1.389879184E1,-1.729979881E-1,-1.103209965E0,1.394357972E1
1.197574737E1,1.450288757E1,-1.378735736E0,-1.489534918E0,1.464422666E1
1.198573438E1,1.408296043E1,-3.754597158E0,-1.822555484E0,1.468837917E1
1.199572038E1,1.329686309E1,-6.522027023E0,-5.646814030E-1,1.482100772E1
1.200570637E1,1.151983111E1,-8.804668917E0,2.831168609E0,1.477309105E1
1.201569338E1,8.353462089E0,-9.299571987E0,8.200697148E0,1.495037798E1
1.202567938E1,4.842068172E0,-7.842438830E0,1.225879403E1,1.533712822E1
1.203566538E1,2.223568059E0,-6.613000343E0,1.272419849E1,1.451141811E1
1.204565238E1,9.572769105E-1,-5.954050130E0,1.141050805E1,1.290607555E1
1.205563837E1,-4.739562973E-1,-4.626305915E0,9.606360775E0,1.067283975E1
1.206562438E1,-6.305289450E-1,-3.371127985E0,7.333011276E0,8.095376768E0
1.207561038E1,-7.101361549E-1,-2.616371727E0,5.406448444E0,6.048088884E0
1.208559738E1,-6.683981448E-1,-1.857386178E0,4.307878829E0,4.738613669E0
1.209558338E1,-4.550195047E-1,-1.095382297E0,4.057521520E0,4.227337935E0
1.210556938E1,1.176901254E-1,-4.624317276E-1,3.924547065E0,3.953449600E0
1.211555638E1,2.917222667E-1,-1.819238359E-1,3.442823619E0,3.459946912E0
1.212554238E1,-2.621520200E-1,-2.563004190E-1,2.647760750E0,2.673022741E0
1.213552838E1,-9.635056570E-1,-6.136272758E-1,1.734718026E0,2.077047957E0
1.214551438E1,-1.545448041E0,-1.060003134E0,1.045713124E0,2.146050379E0
1.215550138E1,-1.943312474E0,-1.571150354E0,6.685197669E-1,2.586869824E0
1.216548737E1,-2.209466329E0,-1.979219348E0,4.247440839E-1,2.996574415E0
1.217547338E1,-2.249979639E0,-1.979197714E0,1.180289716E-1,2.998926942E0
1.218546038E1,-1.807541296E0,-1.645207679E0,-2.828245586E-1,2.460468162E0
1.219544638E1,-1.218025014E0,-1.462882140E0,-9.167358255E-1,2.112821257E0
1.220543238E1,-9.205300838E-1,-1.482787816E0,-1.516070752E0,2.311818736E0
1.221541838E1,-8.129351762E-1,-1.268106124E0,-1.682333406E0,2.258141366E0
1.222540538E1,-6.981417614E-1,-1.027016067E0,-1.510710025E0,1.955609547E0
1.223539138E1,-4.097214174E-1,-1.062500480E0,-1.111807126E0,1.591506831E0
1.224537738E1,-3.501143163E-1,-1.323030190E0,-7.176913422E-1,1.545338080E0
1.225536438E1,-4.620545822E-1,-1.390278432E0,-7.018518198E-1,1.624489007E0
1.226535038E1,-2.952528155E-1,-1.234187011E0,-1.023230579E0,1.630151104E0
1.227533637E1,1.391573006E-1,-1.084136347E0,-1.410220361E0,1.784219112E0
1.228532238E1,5.063706297E-1,-1.004182690E0,-2.033028935E0,2.323359796E0
1.229530938E1,5.054216266E-1,-1.220597497E0,-2.798361052E0,3.094532896E0
1.230529538E1,4.262649447E-1,-1.278525277E0,-3.184970765E0,3.458376419E0
1.231528138E1,5.510024267E-1,-1.077433684E0,-3.088478258E0,3.317101893E0
1.232526838E1,8.027238911E-1,-8.343573278E-1,-2.765766333E0,2.998329736E0
1.233525438E1,1.146189923E0,-5.783241266E-1,-2.526810510E0,2.834251486E0
1.234524038E1,1.442012842E0,-2.581393683E-1,-2.706852127E0,3.077837781E0
1.235522638E1,1.765988935E0,2.171059477E-1,-3.189408216E0,3.652146859E0
1.236521338E1,2.078347780E0,5.098099619E-1,-3.797889943E0,4.359289358E0
1.237519938E1,2.403630726E0,6.585572809E-1,-4.379271578E0,5.038765515E0
1.238518537E1,2.886935259E0,1.025541399E0,-4.714203599E0,5.622263417E0
1.239517138E1,3.337259742E0,1.303161936E0,-5.183086560E0,6.300787245E0
1.240515738E1,3.447957475E0,9.736152005E-1,-5.673175617E0,6.709788290E0
1.241514337E1,3.359099092E0,6.868104422E-1,-5.858942243E0,6.788406257E0
1.242512938E1,2.942341720E0,4.127654779E-1,-5.741914900E0,6.465085990E0
1.243511638E1,2.787996862E0,3.454347897E-1,-5.627708253E0,6.289940531E0
1.244510238E1,3.605365105E0,7.499182713E-1,-5.202707477E0,6.374103862E0
1.245508838E1,4.498119160E0,1.265731570E0,-5.306894335E0,7.070946179E0
1.246507538E1,5.265009559E0,1.445451005E0,-5.905597762E0,8.042744506E0
1.247506138E1,5.948249107E0,6.263683587E-1,-6.025962696E0,8.490361074E0
1.248504738E1,6.000446616E0,-7.422706980E-1,-5.001244000E0,7.846576765E0
1.249503338E1,5.259314371E0,-1.800059491E0,-4.016696845E0,6.858167057E0
1.250502038E1,4.752457546E0,-2.354487217E0,-3.576643581E0,6.397018218E0
1.251500638E1,4.667468559E0,-3.113813074E0,-3.012612973E0,6.368432423E0
1.252499237E1,3.930332301E0,-4.012251792E0,-1.918467947E0,5.935166021E0
1.253497938E1,2.242247281E0,-4.677472560E0,-5.539710581E-1,5.216637456E0
1.254496538E1,7.819761427E-1,-4.655679987E0,5.872609745E-1,4.757280555E0
1.255495138E1,-3.135988200E-1,-4.333931683E0,2.224209937E-1,4.350951523E0
1.256493738E1,-1.538494349E-1,-3.453367319E0,-5.904359029E-1,3.506854722E0
1.257492438E1,2.894440453E-1,-2.956680263E0,-7.035194457E-1,3.052978159E0
1.258491038E1,6.783030358E-1,-2.913643586E0,-5.630500299E-1,3.044082668E0
1.259489638E1,2.821318097E-1,-3.221504753E0,-4.597507793E-1,3.266353013E0
1.260488337E1,-7.217990112E-1,-3.880980631E0,-2.132500014E-1,3.953287244E0
1.261486938E1,-1.306588989E0,-4.379289120E0,5.565119657E-1,4.603808592E0
1.262485538E1,-1.896570856E0,-5.074393837E0,1.676092672E0,5.670603184E0
1.263484238E1,-2.696684696E0,-5.252783031E0,2.889750401E0,6.573773293E0
1.264482838E1,-3.435996410E0,-4.992640992E0,3.472907251E0,6.985243030E0
1.265481438E1,-3.154472272E0,-4.571409915E0,3.558685028E0,6.596417441E0
1.266480038E1,-2.467964424E0,-4.250931627E0,3.617895103E0,6.103313286E0
1.267478738E1,-2.247840143E0,-4.088548601E0,4.025630806E0,6.162363050E0
1.268477338E1,-2.170143803E0,-4.724204092E0,4.325131624E0,6.762720754E0
1.269475938E1,-2.093018444E0,-5.473369242E0,4.870898454E0,7.619983518E0
1.270474638E1,-1.613911042E0,-5.532666441E0,5.612294408E0,8.044436296E0
1.271473237E1,4.102406502E-3,-5.403913091E0,5.878193032E0,7.984700798E0
1.272471838E1,1.470766233E0,-5.566439373E0,6.457797114E0,8.651678691E0
1.273470438E1,2.009150368E0,-5.900977877E0,7.229575785E0,9.545941082E0
1.274469138E1,1.404252693E0,-6.531445134E0,7.108151336E0,9.754871428E0
1.275467738E1,2.952417058E-1,-7.316352559E0,5.623274310E0,9.232410107E0
1.276466338E1,-8.755071080E-1,-8.235488082E0,3.730679122E0,9.083377310E0
1.277465038E1,-1.617127596E0,-8.917049478E0,2.136692175E0,9.310978816E0
1.278463638E1,-1.371305095E0,-9.343679874E0,1.483207646E0,9.559536399E0
1.279462238E1,-5.409496012E-1,-1.007845970E1,1.948927848E0,1.027941128E1
1.280460838E1,5.254527256E-1,-1.089691085E1,3.468008162E0,1.144752581E1
1.281459538E1,1.926882383E0,-1.107098831E1,4.916267585E0,1.226577942E1
1.282458137E1,3.412399387E0,-1.083143373E1,5.744722148E0,1.272659651E1
1.283456738E1,4.507898336E0,-1.064767796E1,5.235993336E0,1.269290430E1
1.284455438E1,3.949166182E0,-9.991808646E0,2.978196847E0,1.114907216E1
1.285454038E1,3.117917527E0,-9.610158541E0,-3.603258938E-1,1.010971768E1
1.286452638E1,3.543071208E0,-9.443073184E0,-2.867625414E0,1.048562160E1
1.287451238E1,4.599530052E0,-9.027337906E0,-4.305711851E0,1.100852674E1
1.288449938E1,5.601358945E0,-8.520611765E0,-5.652182944E0,1.165861136E1
1.289448538E1,6.891202093E0,-8.101257060E0,-6.167857078E0,1.229477504E1
1.290447138E1,7.892960528E0,-6.846395465E0,-6.068688886E0,1.208308493E1
1.291445838E1,8.598005512E0,-5.658530096E0,-5.679706373E0,1.175600809E1
1.292444438E1,9.290753801E0,-4.596930673E0,-5.856730242E0,1.190592991E1
1.293443037E1,9.848777565E0,-3.228901480E0,-7.429037175E0,1.275205151E1
1.294441638E1,1.057814170E1,-2.325945203E0,-9.868607812E0,1.465252617E1
1.295440338E1,1.174247203E1,-2.288065186E0,-1.257992078E1,1.736016413E1
1.296438938E1,1.234651981E1,-2.311699339E0,-1.377406723E1,1.864149761E1
1.297437538E1,1.208261860E1,-3.175741519E0,-1.265895759E1,1.778550572E1
1.298436237E1,1.089376037E1,-4.729394665E0,-1.034751582E1,1.575158000E1
1.299434838E1,9.184116375E0,-6.342612813E0,-7.728169034E0,1.357576250E1
1.300433438E1,6.704459567E0,-7.414309208E0,-6.030560946E0,1.167430617E1
1.301432137E1,4.908749235E0,-7.710267198E0,-5.474275560E0,1.065418848E1
1.302430738E1,4.197374055E0,-7.556472563E0,-5.475259062E0,1.023213997E1
1.303429338E1,4.232822800E0,-6.929655722E0,-6.079191070E0,1.014364241E1
1.304427937E1,4.837233694E0,-6.033919002E0,-6.920840460E0,1.037810392E1
1.305426638E1,5.455648085E0,-4.969212368E0,-8.046782645E0,1.091823605E1
1.306425238E1,6.513985932E0,-4.942872416E0,-8.759436611E0,1.198297668E1
1.307423838E1,7.396407373E0,-4.963441751E0,-8.808352078E0,1.252715699E1
1.308422538E1,8.362660344E0,-5.022290468E0,-8.615417351E0,1.301471881E1
1.309421137E1,1.023406347E1,-6.114347454E0,-6.996522142E0,1.382290208E1
1.310419738E1,1.204486663E1,-6.756114455E0,-4.911655301E0,1.465770284E1
1.311418338E1,1.285975800E1,-5.871804948E0,-2.706855050E0,1.439369769E1
1.312417037E1,1.399885759E1,-4.468077920E0,-3.462124693E-1,1.469869372E1
1.313415638E1,1.619149680E1,-3.429040563E0,1.578428383E0,1.662571273E1
1.314414238E1,1.691307478E1,-2.589207317E0,1.402368720E0,1.716749053E1
1.315412938E1,1.633731115E1,-2.476249928E0,4.469775367E-1,1.652995276E1
1.316411538E1,1.555229438E1,-4.028169959E0,1.285821433E0,1.611686541E1
1.317410138E1,1.374295536E1,-6.226014655E0,4.843648090E0,1.584591453E1
1.318408738E1,9.741303402E0,-7.835601681E0,8.900593659E0,1.534634201E1
1.319407438E1,4.840321024E0,-7.634716494E0,1.159530697E1,1.470267823E1
1.320406037E1,1.495164910E0,-6.945191774E0,1.220716897E1,1.412395770E1
1.321404638E1,-1.249052972E-1,-6.436480504E0,1.127451585E1,1.298301160E1
1.322403338E1,-1.646882907E-1,-5.271172525E0,9.853365290E0,1.117592008E1
1.323401937E1,2.609577262E-1,-3.976762701E0,8.365305625E0,9.266125334E0
1.324400538E1,7.773384967E-1,-2.519326074E0,6.683871521E0,7.185081594E0
1.325399138E1,1.870752621E0,-4.914201763E-1,5.111454075E0,5.465178123E0
1.326397838E1,2.718585734E0,1.096553787E0,3.376191673E0,4.471220059E0
1.327396438E1,2.727553901E0,1.749123226E0,1.619032034E0,3.622188161E0
1.328395038E1,2.131938973E0,1.404932724E0,4.290318471E-1,2.589028403E0
1.329393738E1,1.051046369E0,4.116550916E-1,1.164905691E-1,1.134781229E0
1.330392338E1,-6.055376530E-1,-6.728776968E-1,5.891286117E-1,1.080052205E0
1.331390937E1,-1.805351514E0,-1.616344069E0,1.521174787E0,2.861089822E0
1.332389538E1,-2.391110668E0,-2.144880908E0,2.309312214E0,3.956115170E0
1.333388238E1,-2.547914573E0,-2.344716520E0,2.406522759E0,4.216742346E0
1.334386837E1,-2.369655187E0,-2.299902290E0,1.767158378E0,3.745352451E0
1.335385438E1,-1.720257862E0,-1.904964680E0,2.164130527E-1,2.575851733E0
1.336384138E1,-6.837397769E-1,-1.214255314E0,-1.471412058E0,2.026565936E0
1.337382738E1,2.911521631E-1,-4.633795613E-1,-2.652651946E0,2.708514823E0
1.338381338E1,1.052215227E0,5.859670222E-2,-3.016413079E0,3.195205521E0
1.339380012E1,1.379288591E0,2.571427104E-1,-2.636699572E0,2.986761461E0
1.340378713E1,9.077451468E-1,-9.832619369E-2,-2.020386086E0,2.217121834E0
1.341377313E1,1.251853788E-1,-6.607909173E-1,-1.369445388E0,1.525679090E0
1.342375912E1,-4.062844241E-1,-1.181863786E0,-6.824653763E-1,1.423948044E0
1.343374613E1,-5.980877155E-1,-1.468137032E0,-2.953902251E-1,1.612572679E0
1.344373213E1,-4.602261579E-1,-1.496873758E0,-4.811983663E-1,1.638289057E0
1.345371813E1,-2.388727927E-1,-1.284861905E0,-1.351269318E0,1.879856137E0
1.346370413E1,1.458260500E-1,-8.687062114E-1,-2.473977408E0,2.626114989E0
1.347369112E1,6.297223216E-1,-4.235769796E-1,-3.288172367E0,3.374617782E0
1.348367713E1,1.315134695E0,5.647942543E-2,-3.527290742E0,3.764910248E0
1.349366313E1,1.877316413E0,3.378872037E-1,-3.442996112E0,3.936077604E0
1.350365012E1,2.187631071E0,5.147356564E-1,-3.500782975E0,4.160067780E0
1.351363613E1,2.382504151E0,5.790491813E-1,-3.512900160E0,4.283934117E0
1.352362213E1,2.473959281E0,6.728139621E-1,-3.601930450E0,4.421205279E0
1.353360812E1,2.387521062E0,7.495405412E-1,-4.369794996E0,5.035590943E0
1.354359513E1,2.349444578E0,9.258504653E-1,-5.000368087E0,5.601854150E0
1.355358113E1,2.323919143E0,7.686007100E-1,-5.159386625E0,5.710570688E0
1.356356713E1,2.660941544E0,8.266477740E-1,-4.620678554E0,5.395797137E0
1.357355413E1,3.257272756E0,1.303609248E0,-4.184977373E0,5.461067523E0
1.358354012E1,4.194708894E0,2.009887995E0,-4.150633752E0,6.234019008E0
1.359352613E1,5.668027144E0,2.393926102E0,-4.288242417E0,7.499762457E0
1.360351313E1,6.893038119E0,2.095849081E0,-4.621694508E0,8.559592164E0
1.361349913E1,6.880039759E0,8.700487322E-1,-5.507124048E0,8.855526363E0
1.362348513E1,5.735635575E0,-1.083858604E0,-6.351231608E0,8.626146757E0
1.363347113E1,4.175987864E0,-3.075116785E0,-6.375822659E0,8.218657582E0
1.364345813E1,3.313870295E0,-3.972807060E0,-6.248780204E0,8.112471036E0
1.365344413E1,3.073837999E0,-4.088668469E0,-5.734668446E0,7.684537206E0
1.366343013E1,3.515325585E0,-3.586748739E0,-4.388062867E0,6.669136092E0
1.367341713E1,3.480477057E0,-3.878704310E0,-2.722311580E0,5.879544881E0
1.368340313E1,2.191578234E0,-4.266302202E0,-1.152620691E0,4.932837327E0
1.369338912E1,9.880278562E-1,-3.688457547E0,-3.129550416E-2,3.818625084E0
1.370337513E1,1.163026323E0,-2.802289796E0,-3.904735529E-1,3.059073050E0
1.371336213E1,1.610939487E0,-2.675330957E0,-1.379863372E0,3.414168227E0
1.372334813E1,1.938959076E0,-2.786661358E0,-1.518211272E0,3.718872045E0
1.373333413E1,1.433001991E0,-3.276562720E0,-9.755956525E-1,3.706905022E0
1.374332113E1,1.166247627E-1,-4.033767791E0,-9.850277960E-2,4.036655389E0
1.375330713E1,-1.535050376E0,-4.824817716E0,8.769361675E-1,5.138507828E0
1.376329313E1,-2.518574122E0,-4.914802857E0,1.860626998E0,5.827558284E0
1.377327913E1,-2.889482306E0,-4.719447967E0,2.426104207E0,6.042208101E0
1.378326613E1,-2.928447274E0,-4.503864634E0,2.128558406E0,5.778525847E0
1.379325213E1,-2.387559069E0,-4.065412338E0,1.525312276E0,4.955259158E0
1.380323812E1,-2.217866439E0,-4.197154199E0,1.455289530E0,4.965168933E0
1.381322513E1,-1.908791390E0,-4.102036373E0,1.642048429E0,4.813160087E0
1.382321113E1,-1.390468175E0,-4.120942760E0,1.671289477E0,4.659268128E0
1.383319713E1,-9.422899121E-1,-4.622052650E0,2.438749688E0,5.310252444E0
1.384318313E1,-8.939144352E-1,-4.656566425E0,4.507132643E0,6.541936911E0
1.385317013E1,-8.183999839E-1,-4.426197823E0,6.779389297E0,8.137636324E0
1.386315613E1,-8.100007510E-1,-4.782980304E0,7.759334108E0,9.150970856E0
1.387314213E1,-1.125246659E0,-5.566317751E0,7.382479305E0,9.314025663E0
1.388312912E1,-1.240037150E0,-6.148754225E0,6.633434608E0,9.129475634E0
1.389311513E1,-9.022604585E-1,-6.771739385E0,5.713650044E0,8.905971314E0
1.390310113E1,-5.649357569E-1,-7.631822122E0,4.918417606E0,9.096960650E0
1.391308712E1,-3.396062851E-1,-8.270220543E0,4.214675381E0,9.288453521E0
1.392307413E1,2.908317357E-2,-8.587451288E0,3.623302023E0,9.320594563E0
1.393306013E1,7.460693416E-1,-8.737329458E0,2.904874517E0,9.237740063E0
1.394304613E1,2.055473472E0,-8.472221378E0,3.032342649E0,9.230309215E0
1.395303313E1,3.326729784E0,-7.430621186E0,2.928963876E0,8.652172655E0
1.396301913E1,3.794276948E0,-6.756522591E0,1.657141262E0,7.924219345E0
1.397300513E1,2.676857957E0,-6.980515389E0,4.185729325E-2,7.476290233E0
1.398299213E1,1.632728552E0,-7.997475414E0,-1.013028942E0,8.225061894E0
1.399297812E1,1.366121538E0,-9.965510209E0,-8.518457651E-2,1.005907243E1
1.400296413E1,1.373802733E0,-1.227977969E1,2.099405943E0,1.253346834E1
1.401295013E1,2.172694359E0,-1.398863314E1,4.120836341E0,1.474393944E1
1.402293713E1,3.569700598E0,-1.456630180E1,4.365342341E0,1.561973509E1
1.403292313E1,5.176496748E0,-1.406267877E1,2.580162259E0,1.520566638E1
1.404290913E1,7.649775413E0,-1.108726813E1,-1.732927024E0,1.358122286E1
1.405289613E1,9.695702137E0,-7.446352535E0,-7.424607909E0,1.430313282E1
1.406288213E1,1.060947810E1,-3.885522748E0,-1.247341141E1,1.682986348E1
1.407286813E1,1.118341857E1,-1.287507770E0,-1.639254629E1,1.988572606E1
1.408285413E1,1.167406428E1,-1.571487738E0,-1.683395377E1,2.054593269E1
1.409284113E1,1.167197332E1,-2.482375179E0,-1.401467430E1,1.840674451E1
1.410282712E1,1.118969263E1,-3.403205810E0,-9.824023962E0,1.527424230E1
1.411281313E1,1.014676688E1,-4.778974084E0,-6.218704466E0,1.282449830E1
1.412280013E1,8.041606690E0,-5.942013052E0,-3.361857809E0,1.054879354E1
1.413278613E1,6.459859427E0,-6.321718957E0,-2.589341803E0,9.402053252E0
1.414277213E1,6.423731820E0,-6.148835501E0,-3.020029582E0,9.391117462E0
1.415275813E1,7.304343547E0,-5.249167698E0,-3.397361518E0,9.615053898E0
1.416274513E1,7.789565967E0,-4.253484521E0,-4.815460417E0,1.009743173E1
1.417273113E1,8.287425975E0,-3.527461481E0,-6.163990899E0,1.091417416E1
1.418271713E1,8.165420312E0,-3.426633264E0,-7.228268933E0,1.143082570E1
1.419270413E1,7.838444597E0,-4.045735872E0,-7.746283123E0,1.173942480E1
1.420269013E1,7.208990663E0,-4.261499884E0,-7.554634198E0,1.127840527E1
1.421267612E1,6.288941220E0,-4.991107267E0,-7.146526612E0,1.074871044E1
1.422266213E1,5.767304095E0,-5.674218761E0,-7.054906590E0,1.073453595E1
1.423264913E1,5.642027500E0,-5.348715375E0,-7.315338067E0,1.067498953E1
1.424263513E1,6.007697164E0,-4.987860893E0,-7.474463024E0,1.080919881E1
1.425262113E1,7.486524076E0,-4.676148458E0,-7.483091176E0,1.157199467E1
1.426260812E1,9.512664406E0,-3.212427535E0,-8.159739157E0,1.293799899E1
1.427259413E1,1.253475572E1,-1.979182657E0,-8.469667899E0,1.525688498E1
1.428258013E1,1.595808998E1,-2.280693309E0,-7.633169906E0,1.783612852E1
1.429256613E1,1.924811475E1,-4.068411082E0,-5.181534124E0,2.034429124E1
1.430255313E1,2.020627692E1,-5.685017399E0,-3.047987459E0,2.121092354E1
1.431253913E1,1.986640167E1,-7.890878334E0,-1.788198414E0,2.145081653E1
1.432252512E1,1.835151439E1,-1.154894205E1,2.907593472E0,2.187716259E1
1.433251213E1,1.365463902E1,-1.201682573E1,1.159088647E1,2.156853997E1
1.434249813E1,7.344684073E0,-8.969556305E0,1.812451496E1,2.151500330E1
1.435248413E1,3.412938208E0,-7.344931995E0,1.972628367E1,2.132422192E1
1.436247013E1,3.713341543E-1,-7.475180477E0,1.756780389E1,1.909565254E1
1.437245712E1,-1.675278740E0,-6.201372149E0,1.282629555E1,1.434494451E1
1.438244313E1,-1.060836362E0,-4.387737762E0,9.494638610E0,1.051312412E1
1.439242875E1,6.690828538E-1,-3.019443691E0,8.020273123E0,8.595899781E0
1.440241575E1,2.671336431E0,-1.202854705E0,7.396349486E0,7.955431068E0
1.441240175E1,3.907813796E0,9.698647964E-1,6.844423783E0,7.940893106E0
1.442238775E1,3.748316664E0,1.779945654E0,4.852463352E0,6.384707114E0
1.443237375E1,2.747620084E0,1.289336779E0,2.717979378E0,4.074213710E0
1.444236075E1,1.331029181E0,5.839204967E-2,1.753589914E0,2.202300138E0
1.445234675E1,-4.043893415E-1,-1.386208186E0,1.280900416E0,1.930235672E0
1.446233275E1,-1.779269716E0,-2.383809834E0,7.437582296E-1,3.066190854E0
1.447231975E1,-2.514834827E0,-2.859945681E0,4.109879243E-1,3.830482291E0
1.448230575E1,-2.770658113E0,-2.866065377E0,2.620230889E-1,3.994938451E0
1.449229175E1,-2.339706625E0,-2.309306366E0,-2.149161655E-1,3.294436514E0
1.450227875E1,-1.454567399E0,-1.401466495E0,-9.090572619E-1,2.215007846E0
1.451226475E1,-5.171751148E-1,-6.810936195E-1,-1.506574289E0,1.732375452E0
1.452225075E1,1.340228605E-1,-2.371554655E-1,-2.183894700E0,2.200818235E0
1.453223675E1,5.386373198E-1,-9.945002854E-2,-2.735534474E0,2.789833208E0
1.454222375E1,5.218417776E-1,-2.316807175E-1,-2.971592417E0,3.025947172E0
1.455220975E1,3.076372182E-1,-5.713788038E-1,-2.865308747E0,2.937874846E0
1.456219575E1,6.977482438E-2,-9.000355929E-1,-2.357993792E0,2.524889566E0
1.457218275E1,-1.781751859E-1,-1.124299410E0,-1.661125554E0,2.013736246E0
1.458216875E1,-5.035154343E-1,-1.332955546E0,-1.214812261E0,1.872449495E0
1.459215475E1,-8.338544673E-1,-1.568692769E0,-1.057830309E0,2.067635180E0
1.460214075E1,-8.913992554E-1,-1.352785793E0,-1.295370521E0,2.074272601E0
1.461212775E1,-3.013193017E-1,-7.076449487E-1,-1.992086146E0,2.135406732E0
1.462211375E1,1.948976380E-1,-2.992894408E-1,-3.004740282E0,3.025892170E0
1.463209975E1,2.633083069E-1,-1.522676352E-1,-3.993024393E0,4.004592426E0
1.464208675E1,3.120641452E-1,-1.051396617E-1,-4.401130809E0,4.413432992E0
1.465207275E1,3.292532051E-1,-3.476467913E-1,-4.240709524E0,4.267655473E0
1.466205875E1,1.474340343E-1,-6.953257424E-1,-3.610356873E0,3.679659146E0
1.467204475E1,-4.070129871E-2,-7.775115743E-1,-3.038185186E0,3.136359366E0
1.468203175E1,4.483270741E-1,-4.039180559E-1,-2.699267703E0,2.765898244E0
1.469201775E1,1.354649009E0,2.173597169E-1,-2.717990488E0,3.044633225E0
1.470200375E1,1.974477257E0,7.596623638E-1,-3.225251064E0,3.857187028E0
1.471199075E1,2.678106630E0,1.344635067E0,-3.556144997E0,4.650426413E0
1.472197675E1,3.260927265E0,1.762810389E0,-3.938318428E0,5.408465507E0
1.473196275E1,3.345254055E0,1.170914875E0,-4.521826696E0,5.745318355E0
1.474194875E1,3.004747884E0,3.693510711E-1,-4.608432146E0,5.513853181E0
1.475193575E1,2.853646476E0,1.497091860E-1,-4.301376725E0,5.164063592E0
1.476192175E1,2.807662802E0,5.601281762E-2,-4.323527732E0,5.155482509E0
1.477190775E1,3.457032938E0,3.567503214E-2,-4.529850830E0,5.698411883E0
1.478189475E1,4.469108492E0,4.149663699E-1,-4.798470747E0,6.570422309E0
1.479188075E1,5.319983912E0,8.279540420E-1,-5.365654759E0,7.601183310E0
1.480186675E1,6.190532581E0,1.391665977E0,-6.143783507E0,8.832072441E0
1.481185275E1,7.586695651E0,1.971830222E0,-6.980092050E0,1.049608262E1
1.482183975E1,9.508310570E0,1.991872138E0,-7.243491574E0,1.211790802E1
1.483182575E1,1.079696089E1,2.650952160E-1,-5.854311249E0,1.228485246E1
1.484181175E1,1.068085623E1,-1.826931540E0,-2.693541525E0,1.116573037E1
1.485179875E1,8.923568539E0,-3.497647113E0,4.839395410E-1,9.596760301E0
1.486178475E1,6.487358882E0,-4.582869288E0,2.656432171E0,8.375270029E0
1.487177075E1,4.570072657E0,-4.867491866E0,3.455191357E0,7.517738255E0
1.488175775E1,1.973113101E0,-5.684896361E0,2.310611757E0,6.445940478E0
1.489174375E1,-6.426763894E-1,-5.429683524E0,7.071029118E-1,5.513119865E0
1.490172975E1,-2.440850154E0,-4.884997260E0,-1.203336224E0,5.591866036E0
1.491171575E1,-2.912538170E0,-4.681575551E0,-2.835222192E0,6.199880088E0
1.492170275E1,-2.882733742E0,-4.533959084E0,-2.827216476E0,6.071251255E0
1.493168875E1,-2.667181107E0,-4.942867738E0,-2.207029063E0,6.034631208E0
1.494167475E1,-2.189062470E0,-5.109289436E0,-1.428852514E0,5.739203128E0
1.495166175E1,-2.036311562E0,-5.040301647E0,-6.428371147E-1,5.473978902E0
1.496164775E1,-2.201942132E0,-5.361187486E0,9.712458174E-2,5.796577749E0
1.497163375E1,-2.285412889E0,-5.493858470E0,8.621608382E-1,6.012396717E0
1.498161975E1,-2.203784297E0,-5.612986134E0,1.661489251E0,6.254824146E0
1.499160675E1,-2.680553397E0,-5.921332619E0,2.299866621E0,6.894703255E0
1.500159275E1,-3.676309957E0,-6.465861009E0,3.324064915E0,8.146902543E0
1.501157875E1,-3.679995165E0,-6.578397691E0,4.572350440E0,8.816125517E0
1.502156575E1,-3.210716932E0,-5.943274881E0,5.784588464E0,8.893406728E0
1.503155175E1,-2.171445978E0,-5.612549931E0,6.328601714E0,8.733103345E0
1.504153775E1,-7.577854076E-1,-5.476971712E0,6.919859297E0,8.857534112E0
1.505152375E1,5.011464348E-1,-4.837405602E0,8.521826817E0,9.811889370E0
1.506151075E1,2.246516918E0,-4.256971800E0,9.799688435E0,1.091799160E1
1.507149675E1,3.666403019E0,-4.654385998E0,1.066151130E1,1.219728016E1
1.508148275E1,3.113835585E0,-5.723440622E0,1.074047912E1,1.256231015E1
1.509146975E1,1.634529786E0,-6.429476125E0,8.877380798E0,1.108231658E1
1.510145575E1,1.370306683E-1,-7.220184572E0,5.379062424E0,9.004674077E0
1.511144175E1,-1.093735136E0,-8.104910985E0,1.429736613E0,8.302408410E0
1.512142775E1,-1.526396935E0,-8.430827184E0,-1.514488642E0,8.700713216E0
1.513141475E1,-1.199380290E0,-8.501342851E0,-2.473022557E0,8.934605974E0
1.514140075E1,2.287413222E-1,-9.262288386E0,-1.471430184E0,9.381226760E0
1.515138675E1,1.339684668E0,-1.020762236E1,1.201267771E0,1.036500620E1
1.516137375E1,1.848593720E0,-1.068975102E1,3.725203205E0,1.147018807E1
1.517135975E1,3.499343683E0,-1.063682202E1,5.509355931E0,1.247959902E1
1.518134575E1,5.342475227E0,-9.075094455E0,5.760899055E0,1.200363857E1
1.519133175E1,5.599319437E0,-8.442140962E0,3.071823049E0,1.058575548E1
1.520131875E1,4.703556404E0,-8.685006233E0,-9.883034062E-1,9.926203692E0
1.521130475E1,3.691016289E0,-8.572381843E0,-4.539602816E0,1.037869575E1
1.522129075E1,3.699916628E0,-9.164422953E0,-6.595577395E0,1.188182108E1
1.523127775E1,4.377889296E0,-1.003742862E1,-6.952040033E0,1.297099644E1
1.524126375E1,5.355600471E0,-1.063221442E1,-5.734263818E0,1.321394042E1
1.525124975E1,6.975031285E0,-1.073860567E1,-4.622931486E0,1.361397109E1
1.526123675E1,8.068612055E0,-1.023614975E1,-5.063937846E0,1.398301573E1
1.527122275E1,9.666680651E0,-7.604044924E0,-7.146609643E0,1.422463509E1
1.528120875E1,1.124690413E1,-3.607622130E0,-9.732050768E0,1.530426745E1
1.529119475E1,1.236867608E1,-1.512632882E0,-1.276261937E1,1.783694647E1
1.530118175E1,1.250254925E1,-5.374474114E-1,-1.469404709E1,1.930071520E1
1.531116775E1,1.172987947E1,-1.274032277E0,-1.408003097E1,1.837009806E1
1.532115375E1,1.036195611E1,-3.899250549E0,-1.098184751E1,1.559407785E1
1.533114075E1,7.974245011E0,-6.342336824E0,-6.669255236E0,1.217755252E1
1.534112675E1,5.652991614E0,-8.096165890E0,-3.519664804E0,1.048295076E1
1.535111275E1,4.623775240E0,-9.130028461E0,-2.509947724E0,1.053738842E1
1.536109875E1,4.543292409E0,-9.117116055E0,-3.226367297E0,1.068516528E1
1.537108575E1,4.908673221E0,-7.716359997E0,-5.577797005E0,1.071210081E1
1.538107175E1,6.598237293E0,-6.346551497E0,-7.292723376E0,1.170466854E1
1.539105775E1,8.422972620E0,-4.704669714E0,-7.850620254E0,1.243835292E1
1.540104492E1,9.191611336E0,-3.530075479E0,-7.866176187E0,1.260253465E1
1.541103092E1,9.846566148E0,-3.722342454E0,-6.860925211E0,1.256514994E1
1.542101692E1,9.624232205E0,-4.189491716E0,-5.216414520E0,1.172129117E1
1.543100292E1,8.981453635E0,-4.884018728E0,-3.661835175E0,1.085952049E1
1.544098992E1,8.296346487E0,-5.437425823E0,-1.745588000E0,1.007184403E1
1.545097592E1,7.655632569E0,-5.332840185E0,-3.304396051E-1,9.335795885E0
1.546096192E1,7.951635582E0,-4.989563602E0,-6.981329906E-1,9.413375752E0
1.547094892E1,8.669214073E0,-4.615879744E0,-1.037673787E0,9.876152356E0
1.548093492E1,8.525659667E0,-3.777772012E0,-1.522158288E0,9.448566028E0
1.549092092E1,8.778204419E0,-2.811402389E0,-3.327518865E0,9.799654995E0
1.550090692E1,1.034582949E1,-2.662833118E0,-4.460180671E0,1.157670418E1
1.551089392E1,1.218735392E1,-3.564604457E0,-3.538412147E0,1.318174348E1
1.552087992E1,1.291070011E1,-3.976112491E0,-1.091354150E0,1.355310672E1
1.553086592E1,1.289024187E1,-3.829947887E0,2.178021172E0,1.362243049E1
1.554085292E1,1.213983945E1,-4.572875227E0,6.128744468E0,1.434741783E1
1.555083892E1,9.397903444E0,-5.218102026E0,9.333454848E0,1.423596001E1
1.556082492E1,5.448679959E0,-4.963918884E0,1.025995494E1,1.263310252E1
1.557081092E1,2.382143085E0,-5.089959126E0,1.067996044E1,1.206829916E1
1.558079792E1,3.314283693E-1,-5.155062025E0,1.076466554E1,1.193995534E1
1.559078392E1,1.765976071E-1,-4.309865713E0,1.014191837E1,1.102109964E1
1.560076992E1,8.172206005E-1,-2.768582352E0,8.878033347E0,9.335543576E0
1.561075692E1,1.083083556E0,-1.497925088E0,7.350752313E0,7.579604813E0
1.562074292E1,1.518916884E0,-6.329552472E-2,5.486707910E0,5.693424147E0
1.563072892E1,2.466920988E0,1.407674484E0,3.510731428E0,4.515803558E0
1.564071592E1,2.457354358E0,1.638754692E0,2.149799586E0,3.653182947E0
1.565070192E1,1.104029452E0,7.349318576E-1,1.246811734E0,1.820314634E0
1.566068792E1,-6.591914114E-1,-7.826363665E-1,1.177550295E0,1.560024902E0
1.567067392E1,-1.950453971E0,-2.159434628E0,1.725113974E0,3.382816405E0
1.568066092E1,-2.669262424E0,-2.877338809E0,2.022772334E0,4.415387687E0
1.569064692E1,-2.865435924E0,-2.915848571E0,1.684293977E0,4.421509033E0
1.570063292E1,-2.424106213E0,-2.445737110E0,9.134257168E-1,3.562620873E0
1.571061992E1,-1.707335223E0,-1.650168749E0,-1.017707884E-2,2.374479740E0
1.572060592E1,-1.079366481E0,-9.549818784E-1,-1.047416418E0,1.781601398E0
1.573059192E1,-5.501943415E-1,-6.900240719E-1,-1.575797136E0,1.806096246E0
1.574057792E1,-2.639286965E-1,-5.524604300E-1,-1.549814449E0,1.666372020E0
1.575056492E1,-3.031693608E-2,-3.706968078E-1,-1.274851472E0,1.327999064E0
1.576055092E1,1.348198360E-1,-3.409607926E-1,-1.126579531E0,1.184741360E0
1.577053692E1,-1.542477947E-1,-6.069105792E-1,-1.038671322E0,1.212835911E0
1.578052392E1,-6.522212380E-1,-1.054268770E0,-1.037678465E0,1.616679244E0
1.579050992E1,-1.028636330E0,-1.428002914E0,-1.027817720E0,2.038061404E0
1.580049592E1,-1.287799546E0,-1.680992347E0,-1.220102822E0,2.443934090E0
1.581048292E1,-1.505309536E0,-1.824247376E0,-1.956653189E0,3.069580915E0
1.582046892E1,-1.262202190E0,-1.546868037E0,-2.835507243E0,3.467860496E0
1.583045492E1,-6.423961616E-1,-9.255581045E-1,-3.138629242E0,3.334715003E0
1.584044092E1,-2.098448753E-2,-4.696115237E-1,-2.808987197E0,2.848049228E0
1.585042792E1,2.589801979E-1,-3.452956259E-1,-3.205942388E0,3.234867294E0
1.586041392E1,2.587644356E-1,-3.622724319E-1,-3.713898198E0,3.740486623E0
1.587039992E1,5.776937968E-1,-2.800939089E-1,-3.696943027E0,3.752275372E0
1.588038692E1,1.007878715E0,7.396084607E-2,-4.097033495E0,4.219830941E0
1.589037292E1,1.604883526E0,4.621411210E-1,-4.622695844E0,4.915134017E0
1.590035892E1,2.265942246E0,9.005986798E-1,-5.042921199E0,5.601484309E0
1.591034492E1,2.419661452E0,1.020507531E0,-6.038043628E0,6.584388204E0
1.592033192E1,2.516626414E0,1.187977050E0,-7.477535736E0,7.978611324E0
1.593031792E1,3.188500144E0,1.703809059E0,-9.435257796E0,1.010413718E1
1.594030392E1,4.675802010E0,2.374485864E0,-1.051654012E1,1.175154984E1
1.595029092E1,6.288358837E0,2.326435785E0,-9.621861159E0,1.172757317E1
1.596027692E1,7.467641662E0,8.775448626E-1,-7.138409507E0,1.036786609E1
1.597026292E1,7.405460032E0,-6.873910707E-1,-3.786140547E0,8.345550013E0
1.598024892E1,6.520051834E0,-1.242708743E0,-1.284904590E0,6.760649432E0
1.599023592E1,6.383599455E0,-1.075640343E0,-1.237305623E0,6.590771530E0
1.600022192E1,6.448646806E0,-1.479316324E0,-2.853044505E0,7.205087464E0
1.601020792E1,6.132115973E0,-2.441449347E0,-3.377709318E0,7.414340258E0
1.602019492E1,4.664094715E0,-3.895607441E0,-2.494763675E0,6.569123430E0
1.603018092E1,2.567266810E0,-4.632294633E0,-1.237528256E0,5.438794777E0
1.604016692E1,1.362262960E0,-4.087029494E0,-9.722469521E-1,4.416427809E0
1.605015292E1,1.019257396E0,-4.053150727E0,-1.134387903E0,4.330560283E0
1.606013992E1,5.538107348E-1,-4.526411498E0,-1.016054876E0,4.671988323E0
1.607012592E1,-6.521846929E-1,-4.743611585E0,-4.724322571E-1,4.811485008E0
1.608011192E1,-1.643165539E0,-4.712496797E0,4.229583442E-2,4.990932577E0
1.609009892E1,-2.339340151E0,-4.785125647E0,4.068890262E-1,5.341862829E0
1.610008492E1,-2.967204958E0,-5.084497241E0,9.502260455E-1,5.963165854E0
1.611007092E1,-3.348287591E0,-5.325763299E0,1.734800179E0,6.525665956E0
1.612005792E1,-3.476500950E0,-5.281509233E0,2.214883189E0,6.699709409E0
1.613004392E1,-3.150987040E0,-5.081660757E0,2.055733674E0,6.322818700E0
1.614002992E1,-2.271289232E0,-4.409744343E0,2.028458167E0,5.359033726E0
1.615001592E1,-8.524237624E-1,-3.251334323E0,2.427475379E0,4.146135293E0
1.616000292E1,7.744987965E-1,-2.489798804E0,2.928766825E0,3.921303557E0
1.616998892E1,1.835761128E0,-2.264642994E0,3.927314553E0,4.891055756E0
1.617997492E1,1.561908830E0,-2.965004359E0,4.972192109E0,5.996124116E0
1.618996192E1,6.602412790E-2,-4.117605169E0,5.179613898E0,6.617207240E0
1.619994792E1,-1.390066763E0,-4.595547806E0,5.165458959E0,7.052184874E0
1.620993392E1,-2.006397499E0,-4.786927759E0,4.710595282E0,7.009280720E0
1.621991992E1,-1.781884883E0,-4.904060937E0,4.463528494E0,6.866441147E0
1.622990692E1,-8.069373947E-1,-5.057066783E0,4.630363882E0,6.904009132E0
1.623989292E1,8.125442898E-1,-5.488322911E0,5.097707271E0,7.534489765E0
1.624987892E1,2.445088362E0,-5.663113729E0,5.710997162E0,8.406235947E0
1.625986592E1,3.224673944E0,-5.965888987E0,4.910527958E0,8.372791546E0
1.626985192E1,3.844958567E0,-5.407179930E0,3.279288692E0,7.401015843E0
1.627983792E1,3.927463072E0,-3.809728215E0,1.795366370E0,5.758674818E0
1.628982392E1,2.932733868E0,-3.561598111E0,-1.733524755E-1,4.616921065E0
1.629981092E1,1.530276709E0,-3.747959399E0,-2.374695779E0,4.693413097E0
1.630979692E1,2.573301136E-1,-3.913384731E0,-3.774992246E0,5.443469968E0
1.631978292E1,3.322709531E-2,-4.778014264E0,-3.075781614E0,5.682513254E0
1.632976992E1,3.852446803E-1,-6.302748250E0,-7.427700502E-1,6.358046580E0
1.633975592E1,7.271810809E-1,-7.634474419E0,1.418171990E0,7.799051467E0
1.634974192E1,1.730958851E0,-8.070230564E0,2.426265882E0,8.602999828E0
1.635972892E1,2.972585566E0,-7.856224226E0,3.335855241E0,9.037945243E0
1.636971492E1,3.932996292E0,-6.783751904E0,2.021091260E0,8.097688535E0
1.637970092E1,4.466664648E0,-4.450349162E0,-1.627821568E0,6.512027626E0
1.638968692E1,4.270429752E0,-3.006491523E0,-5.678838061E0,7.715229308E0
1.639967400E1,4.317028552E0,-3.098827245E0,-8.040600969E0,9.637983697E0
1.640966000E1,4.465020119E0,-3.711701984E0,-8.377076654E0,1.019257325E1
1.641964600E1,5.335678423E0,-4.695870239E0,-6.625092970E0,9.716610438E0
1.642963300E1,5.562508875E0,-5.902409275E0,-4.128089812E0,9.100607987E0
1.643961900E1,5.388831952E0,-6.725753372E0,-1.670210373E0,8.778659973E0
1.644960500E1,5.129299192E0,-7.247258350E0,3.326633012E-1,8.884994579E0
1.645959100E1,5.057877792E0,-7.780372975E0,9.445814359E-1,9.327838200E0
1.646957800E1,6.071318963E0,-6.888174990E0,-4.254387331E-1,9.191782567E0
1.647956400E1,7.179607235E0,-3.426129819E0,-3.841039470E0,8.833952105E0
1.648955000E1,8.108679516E0,-2.556917238E-1,-8.282245342E0,1.159360382E1
1.649953700E1,8.642466570E0,5.478355747E-1,-1.107144322E1,1.405593139E1
1.650952300E1,8.025516906E0,2.300645471E-1,-1.131371792E1,1.387306976E1
1.651950900E1,6.956381591E0,-9.655431193E-1,-9.882154641E0,1.212355141E1
1.652949500E1,5.446722311E0,-3.323321149E0,-7.436581253E0,9.798672774E0
