"Time (s)","Linear Acceleration x (m/s^2)","Linear Acceleration y (m/s^2)","Linear Acceleration z (m/s^2)","Absolute acceleration (m/s^2)"
6.904500013E-3,3.712549245E-1,-3.385503876E-1,-1.094587368E0,1.204395321E0
1.689050003E-2,4.158381897E-1,-3.138378250E-1,-1.259159884E0,1.362680885E0
2.687650005E-2,8.804363108E-1,-3.378505124E-1,-1.198191551E0,1.524786562E0
3.686150000E-2,9.182753974E-1,-2.846809034E-1,-9.008433858E-1,1.317494489E0
4.684750002E-2,2.449940674E0,4.947435144E-2,-1.635875523E-2,2.450494771E0
5.683350004E-2,4.277172176E0,2.129047964E-2,1.820130351E0,4.648390002E0
6.681950000E-2,3.291095390E0,-6.940998736E-1,2.006417087E0,3.916477119E0
7.680550002E-2,1.749166496E0,-1.113144238E0,2.426457963E0,3.191609590E0
8.679150004E-2,5.772166640E-1,-1.262082030E0,2.509247520E0,2.867464602E0
9.677750000E-2,-2.010746366E-1,-1.228279861E0,2.245778123E0,2.567610134E0
1.067635000E-1,-4.368869966E-1,-1.049021040E0,1.660534109E0,2.012135412E0
1.167495000E-1,-2.375542456E-1,-7.782467155E-1,9.048449278E-1,1.216899467E0
1.267355000E-1,2.149044710E-1,-4.428715488E-1,2.700606716E-1,5.614729795E-1
1.367215000E-1,6.896925348E-1,-1.405984931E-1,-8.170519084E-2,7.086038858E-1
1.467075000E-1,1.010248591E0,-5.784266721E-2,-4.534281850E-2,1.012918536E0
1.566935000E-1,1.115306684E0,-1.681553241E-2,2.458771724E-1,1.142211603E0
1.666785000E-1,1.010609949E0,4.938046709E-3,6.881371754E-1,1.222656790E0
1.766645000E-1,6.577503651E-1,1.526101358E-2,1.134636118E0,1.311589707E0
1.866505001E-1,2.836899465E-1,7.991184980E-2,1.634921550E0,1.661274921E0
1.966365000E-1,-3.508972585E-2,1.086846093E-1,2.447437481E0,2.450100785E0
2.066225000E-1,-1.113771790E-1,-3.002033606E-3,3.266686188E0,3.268585709E0
2.166085000E-1,2.257288367E-1,6.627818942E-4,4.262974844E0,4.268946998E0
2.265945000E-1,6.925687802E-1,-9.601763986E-2,5.320038875E0,5.365788343E0
2.365805000E-1,1.082390369E0,-3.585431508E-1,5.884938380E0,5.994382523E0
2.465665000E-1,1.330129879E0,-4.128973326E-1,6.081839858E0,6.239271253E0
2.565525000E-1,1.108952515E0,-3.537879758E-1,6.210948719E0,6.319084237E0
2.665385000E-1,1.839276767E-1,-4.698359106E-1,6.207136334E0,6.227609224E0
2.765245000E-1,-9.379384142E-1,-6.629385996E-1,5.908293913E0,6.018899652E0
2.865095000E-1,-1.941360381E0,-8.514158486E-1,5.313249089E0,5.720524884E0
2.964955000E-1,-2.686335416E0,-9.616225612E-1,4.419570881E0,5.260581973E0
3.064815000E-1,-3.258369108E0,-9.129966773E-1,3.888717667E0,5.154867338E0
3.164675000E-1,-3.895945410E0,-1.053661098E0,3.591513343E0,5.402551290E0
3.264535000E-1,-4.414601040E0,-1.143490556E0,3.033038760E0,5.476823633E0
3.364395000E-1,-4.661328397E0,-1.196308455E0,2.093463856E0,5.248021271E0
3.464255000E-1,-4.784221668E0,-1.287072152E0,1.062835233E0,5.067045532E0
3.564115000E-1,-4.810907190E0,-1.690357832E0,4.139055388E-1,5.115999940E0
3.663975000E-1,-4.910741381E0,-2.231622013E0,-1.478234589E-1,5.396051288E0
3.763835000E-1,-5.168350407E0,-2.418694323E0,-7.817331178E-1,5.759603704E0
3.863695000E-1,-5.448687560E0,-2.506392617E0,-1.289177735E0,6.134507259E0
3.963555000E-1,-5.835810658E0,-2.695796211E0,-1.572949250E0,6.618018782E0
4.063415001E-1,-6.271017165E0,-2.931699203E0,-1.990292367E0,7.202900819E0
4.163265000E-1,-6.616095859E0,-2.967948432E0,-1.999298687E0,7.521877263E0
4.263125000E-1,-6.555654945E0,-3.469218535E0,-2.088120524E0,7.705344660E0
4.362985000E-1,-5.991912605E0,-3.573959125E0,-2.238281554E0,7.327080237E0
4.462845000E-1,-5.352891456E0,-3.375818329E0,-2.456956455E0,6.788684067E0
4.562705000E-1,-4.893431869E0,-3.583702925E0,-2.816811941E0,6.687528065E0
4.662565000E-1,-4.006648405E0,-4.184305235E0,-3.885466615E0,6.975563960E0
4.762425000E-1,-2.365177681E0,-4.018095499E0,-5.289042785E0,7.050753895E0
4.862285000E-1,-5.426145959E-1,-3.517596644E0,-6.524094599E0,7.431805103E0
4.962145000E-1,1.077250081E0,-2.977431446E0,-7.235641102E0,7.898105337E0
5.062005000E-1,2.174225160E0,-3.160618281E0,-7.685623523E0,8.589852845E0
5.161865000E-1,3.007749259E0,-3.243775043E0,-8.214962016E0,9.330285797E0
5.261725000E-1,3.647129427E0,-3.151376756E0,-8.796733076E0,1.003071490E1
5.361575000E-1,3.827364587E0,-2.956791652E0,-9.050381198E0,1.026161471E1
5.461435000E-1,3.348747182E0,-3.014673532E0,-8.828997427E0,9.912293366E0
5.561295000E-1,3.063393118E0,-2.947246073E0,-7.698197960E0,8.793912021E0
5.661155001E-1,2.541147882E0,-2.955476906E0,-6.024631870E0,7.175546353E0
5.761015000E-1,1.278660933E0,-3.322438805E0,-4.449328823E0,5.698254151E0
5.860875000E-1,-1.063082278E-2,-4.050867389E0,-3.976513902E0,5.676469187E0
5.960735001E-1,-3.102485847E-1,-4.312703659E0,-4.501204736E0,6.241515129E0
6.060595000E-1,2.731041473E-1,-4.072503256E0,-5.544687147E0,6.885014466E0
6.160455000E-1,1.058961160E0,-4.250397191E0,-6.490363766E0,7.830204137E0
6.260315001E-1,2.034350991E0,-4.618310432E0,-6.023334373E0,7.857985248E0
6.360175000E-1,2.339735277E0,-4.930734766E0,-4.362719865E0,6.987118942E0
6.460035000E-1,1.698539549E0,-5.667201517E0,-3.097492325E0,6.678073700E0
6.559895001E-1,8.477936447E-1,-6.341990669E0,-2.975431699E0,7.056400889E0
6.659745000E-1,4.336260045E-1,-6.707552159E0,-3.674244720E0,7.660245541E0
6.759605000E-1,4.680848157E-1,-6.835299788E0,-4.777987366E0,8.352819276E0
6.859465000E-1,1.070442753E0,-7.229422588E0,-5.678187851E0,9.254848238E0
6.959325000E-1,2.193451390E0,-7.728018760E0,-5.198370012E0,9.568518889E0
7.059185000E-1,3.514688239E0,-8.215929730E0,-3.038438956E0,9.438572245E0
7.159045000E-1,4.915700989E0,-8.832435590E0,2.511307494E-1,1.011133529E1
7.258905000E-1,5.635203214E0,-9.424915241E0,3.408930234E0,1.149805844E1
7.358765000E-1,5.755409689E0,-9.520581536E0,5.965919977E0,1.262372428E1
7.458625000E-1,5.166981574E0,-9.113500721E0,7.790996196E0,1.305577327E1
7.558482500E-1,3.873523092E0,-8.617510654E0,8.988936317E0,1.304096036E1
7.658342500E-1,2.007615182E0,-8.152917795E0,9.755996870E0,1.287167675E1
7.758202500E-1,-2.578587019E-1,-7.497765348E0,1.062882069E1,1.300979652E1
7.858062500E-1,-2.260186247E0,-6.661978961E0,1.129465951E1,1.330637963E1
7.957912500E-1,-3.794764606E0,-5.390318899E0,1.188964762E1,1.359483346E1
8.057772500E-1,-4.630732841E0,-3.924040697E0,1.283755144E1,1.420015877E1
8.157632501E-1,-4.545744731E0,-2.735503483E0,1.316321913E1,1.419214968E1
8.257492500E-1,-4.272961596E0,-1.865697995E0,1.196176484E1,1.283833509E1
8.357352500E-1,-3.808780382E0,-1.186646808E0,9.991146741E0,1.075815746E1
8.457212501E-1,-2.899868131E0,-7.889915590E-1,7.587728269E0,8.161210887E0
8.557072500E-1,-1.583939969E0,-2.781872781E-1,4.931228271E0,5.186835860E0
8.656932500E-1,-3.347414017E-1,1.907522544E-1,2.255713127E0,2.288379326E0
8.756792500E-1,6.479352289E-1,5.932739952E-1,-5.050225541E-2,8.799685063E-1
8.856652500E-1,1.109207454E0,9.880399892E-1,-1.625897834E0,2.202296066E0
8.956512500E-1,7.287870187E-1,1.031339206E0,-2.395542272E0,2.708027669E0
9.056372500E-1,-2.449106276E-1,8.481262051E-1,-2.517912802E0,2.668179932E0
9.156232500E-1,-1.542736979E0,6.052335978E-1,-2.234574273E0,2.782025750E0
9.256082500E-1,-2.678536985E0,4.912085071E-1,-1.550258253E0,3.133551791E0
9.355942500E-1,-3.321515529E0,4.874833922E-1,-8.290765612E-1,3.457957983E0
9.455802500E-1,-3.237182892E0,4.731691159E-1,-1.645032994E-1,3.275714185E0
9.555662500E-1,-2.245047805E0,2.669838667E-1,4.962298036E-1,2.314684439E0
9.655522500E-1,-1.115908363E0,1.284476866E-1,7.894138011E-1,1.372925501E0
9.755382500E-1,-7.359597981E-2,1.556767081E-1,8.578461778E-1,8.749580964E-1
9.855242500E-1,6.529474622E-1,3.235232261E-1,9.938056362E-1,1.232338147E0
9.955102500E-1,7.638837612E-1,2.814878851E-1,1.127233250E0,1.390470651E0
1.005496250E0,4.696518695E-1,-1.572974101E-2,1.319738792E0,1.400903559E0
1.015482250E0,3.115618694E-1,-3.948867390E-1,1.463720630E0,1.547735255E0
1.025468250E0,4.688607413E-1,-5.091639177E-1,1.316752034E0,1.487586707E0
1.035454250E0,4.946533942E-1,-2.784913333E-1,8.074607205E-1,9.870320250E-1
1.045440250E0,1.139780205E-1,-1.656963506E-1,3.415756273E-1,3.963838783E-1
1.055425250E0,-5.332368314E-1,-2.308183262E-1,-9.483891428E-2,5.887385139E-1
1.065411250E0,-1.071119860E0,-2.063829582E-1,-6.131220764E-1,1.251323444E0
1.075397250E0,-1.163996449E0,-1.196498928E-1,-1.044233193E0,1.568319735E0
1.085383250E0,-7.760430461E-1,-1.421137990E-1,-1.402155297E0,1.608874954E0
1.095369250E0,-1.643149459E-1,-2.931377314E-2,-1.575138740E0,1.583957307E0
1.105355250E0,4.132402718E-1,-1.821868144E-2,-1.521516849E0,1.576741248E0
1.115341250E0,7.723265558E-1,-1.295438202E-1,-1.330291847E0,1.543679471E0
1.125327250E0,8.618848497E-1,-1.692821556E-1,-1.107925159E0,1.413860000E0
1.135313250E0,6.892592561E-1,-2.345710693E-1,-9.564682406E-1,1.202053827E0
1.145299250E0,4.874782759E-1,-2.887897418E-1,-8.233424892E-1,9.994635756E-1
1.155285250E0,4.209124035E-1,-3.817851021E-1,-7.135806765E-1,9.122085822E-1
1.165271250E0,4.828045964E-1,-4.607359620E-1,-5.294653773E-1,8.518870176E-1
1.175257250E0,6.227068323E-1,-4.394090469E-1,-3.547664342E-1,8.406564889E-1
1.185242250E0,7.156682056E-1,-4.511263555E-1,-2.805312806E-1,8.912877024E-1
1.195228250E0,9.014190441E-1,-6.021385934E-1,-2.243027008E-1,1.106995429E0
1.205214250E0,1.281299781E0,-8.162121020E-1,-2.114196767E-1,1.533828414E0
1.215200250E0,1.622949668E0,-7.932863389E-1,-2.254358912E-1,1.820464276E0
1.225186250E0,1.915380617E0,-7.897551323E-1,-2.232121950E-1,2.083799358E0
1.235172250E0,2.217627288E0,-9.145469934E-1,-1.883728762E-1,2.406190211E0
1.245158250E0,2.427724763E0,-9.724785018E-1,-1.347976166E-1,2.618727240E0
1.255144250E0,2.473992026E0,-9.882510737E-1,4.531592131E-4,2.664071496E0
1.265130250E0,2.484105955E0,-1.132447870E0,3.700585842E-2,2.730309507E0
1.275116250E0,2.481189948E0,-1.385402439E0,1.331150803E-1,2.844883671E0
1.285102250E0,2.571625324E0,-1.477507926E0,4.414542568E-1,2.998527696E0
1.295088250E0,2.615999844E0,-1.342305098E0,1.016724967E0,3.111103955E0
1.305074250E0,2.589080433E0,-1.234027528E0,1.756415874E0,3.363206528E0
1.315059250E0,2.652700478E0,-1.145295665E0,2.501140648E0,3.821547661E0
1.325045250E0,2.744458494E0,-1.186532203E0,3.218806263E0,4.393247643E0
1.335031250E0,2.708641959E0,-1.408069463E0,3.819571711E0,4.889634846E0
1.345017250E0,2.371438295E0,-1.626836897E0,4.098119616E0,5.006486019E0
1.355003250E0,1.675463512E0,-1.872975001E0,4.078578513E0,4.790617499E0
1.364989250E0,7.532301342E-1,-2.107899169E0,4.051353292E0,4.628612972E0
1.374975250E0,-5.879550755E-2,-2.182157785E0,3.905144542E0,4.473860012E0
1.384961250E0,-6.612505084E-1,-2.074864301E0,3.899645528E0,4.466491839E0
1.394947250E0,-9.708254939E-1,-1.874748023E0,3.770216533E0,4.321077990E0
1.404933250E0,-1.062847220E0,-1.579888433E0,3.168166451E0,3.696345538E0
1.414919250E0,-1.165938894E0,-1.298779448E0,2.568900230E0,3.105718910E0
1.424905250E0,-1.350165364E0,-1.035935117E0,2.096653073E0,2.700381859E0
1.434891250E0,-1.612533438E0,-8.296219602E-1,1.820279163E0,2.569426574E0
1.444876250E0,-1.925719664E0,-6.745456150E-1,2.256781998E0,3.042445233E0
1.454862250E0,-2.219276787E0,-8.455392507E-1,3.291716949E0,4.059005611E0
1.464848250E0,-2.779499688E0,-1.343686649E0,3.699367867E0,4.818343589E0
1.474834250E0,-3.341214214E0,-1.878857739E0,3.421447368E0,5.138104799E0
1.484820250E0,-3.781967390E0,-2.294483675E0,2.871209757E0,5.273687338E0
1.494806250E0,-3.887378654E0,-2.519983885E0,2.379920266E0,5.208267664E0
1.504792250E0,-3.447332992E0,-2.813394828E0,1.893890346E0,4.835919339E0
1.514778250E0,-2.824318011E0,-3.178915973E0,1.340636741E0,4.458652920E0
1.524764250E0,-2.186838189E0,-3.542301714E0,3.191258276E-1,4.175165146E0
1.534750250E0,-1.580460291E0,-3.736920440E0,-7.800972131E-1,4.131704342E0
1.544736250E0,-1.022918923E0,-3.599799140E0,-1.605624368E0,4.072216422E0
1.554722250E0,-6.283330232E-1,-3.170556793E0,-2.284803609E0,3.958226914E0
1.564708250E0,-7.325169575E-1,-2.579334878E0,-2.546887509E0,3.698132703E0
1.574693250E0,-1.089160275E0,-2.029155740E0,-2.772504372E0,3.604236897E0
1.584679250E0,-1.499023780E0,-1.663928710E0,-2.990042721E0,3.735784592E0
1.594665250E0,-2.118909915E0,-1.541252956E0,-2.996179374E0,3.980242548E0
1.604651250E0,-3.071151204E0,-1.735672876E0,-3.004887047E0,4.633991391E0
1.614637250E0,-4.232025239E0,-1.982998404E0,-3.014774104E0,5.561580998E0
1.624623250E0,-5.238764917E0,-2.404998974E0,-3.211944555E0,6.598883674E0
1.634609250E0,-5.782721449E0,-2.635194499E0,-3.538200770E0,7.273443619E0
1.644595250E0,-5.796979884E0,-2.832701164E0,-4.172315812E0,7.683579302E0
1.654581250E0,-5.229476030E0,-2.848766389E0,-4.721038117E0,7.599413819E0
1.664567250E0,-4.183859970E0,-2.697121190E0,-4.794280048E0,6.911169810E0
1.674553250E0,-2.901974298E0,-2.568178683E0,-4.565151640E0,5.988122082E0
1.684539250E0,-2.090816383E0,-2.360927925E0,-4.013814753E0,5.104527665E0
1.694525250E0,-1.895977217E0,-2.123884726E0,-3.173585651E0,4.263480013E0
1.704510250E0,-2.154099628E0,-2.156982013E0,-2.132610526E0,3.720315077E0
1.714496250E0,-2.209390900E0,-2.634572940E0,-1.357550689E0,3.696664253E0
1.724482250E0,-1.616518900E0,-2.955336573E0,-1.090464204E0,3.540658102E0
1.734468250E0,-5.606427312E-1,-2.656201791E0,-1.104053718E0,2.930642052E0
1.744454250E0,4.704593700E-1,-2.413068424E0,-1.368968255E0,2.813948351E0
1.754440417E0,1.568866432E0,-2.386326330E0,-1.968427435E0,3.468515792E0
1.764426417E0,2.321124759E0,-2.298879758E0,-2.764379081E0,4.279516326E0
1.774412417E0,2.836793631E0,-2.462933772E0,-3.826950897E0,5.362741280E0
1.784398417E0,3.456532416E0,-2.904913693E0,-5.162910742E0,6.858701571E0
1.794384417E0,4.272321326E0,-3.105048097E0,-6.383177286E0,8.284866050E0
1.804370417E0,4.349342605E0,-3.092445593E0,-7.191850135E0,8.955596530E0
1.814356417E0,3.430279588E0,-3.618820133E0,-7.715569453E0,9.186549362E0
1.824342417E0,2.346916827E0,-4.671290299E0,-7.961731970E0,9.524607478E0
1.834328417E0,1.716405131E0,-5.654121881E0,-7.529706348E0,9.571395849E0
1.844313417E0,1.330265535E0,-6.640346017E0,-6.648436809E0,9.490285223E0
1.854299417E0,1.387681684E0,-7.531783864E0,-5.191897144E0,9.252525309E0
1.864285417E0,1.343608881E0,-8.032013748E0,-3.607250539E0,8.906783152E0
1.874271417E0,1.108997539E0,-8.312283658E0,-2.406534014E0,8.724410645E0
1.884257417E0,4.921882081E-1,-9.166812125E0,-2.457105852E0,9.503160682E0
1.894243417E0,-6.715410233E-2,-9.876212701E0,-2.678553942E0,1.023321739E1
1.904229417E0,-1.827254891E-3,-1.025635773E1,-2.636188526E0,1.058972933E1
1.914215417E0,7.009677207E-1,-1.009506229E1,-2.011677827E0,1.031738756E1
1.924201417E0,1.741518922E0,-1.015232407E1,-1.226442958E0,1.037336660E1
1.934187417E0,2.929680744E0,-1.004039199E1,-2.591474283E-1,1.046229697E1
1.944173417E0,3.854614951E0,-9.458054920E0,9.929906074E-1,1.026152472E1
1.954159417E0,4.280668226E0,-9.055592821E0,2.128962010E0,1.024013482E1
1.964145417E0,4.561168517E0,-8.711233335E0,3.629371433E0,1.048151618E1
1.974130417E0,4.461841865E0,-8.071648514E0,5.418131765E0,1.069652721E1
1.984116417E0,3.882095110E0,-7.370176179E0,7.071743063E0,1.092701740E1
1.994102417E0,3.213204630E0,-6.608946469E0,8.627042785E0,1.133263979E1
2.004088417E0,2.342716187E0,-5.736237838E0,1.029834776E1,1.201868172E1
2.014074417E0,9.962433404E-1,-4.842866902E0,1.160079867E1,1.261048732E1
2.024060417E0,-3.813191521E-1,-4.265864831E0,1.201916227E1,1.275943842E1
2.034046417E0,-1.520332788E0,-3.789139292E0,1.169916170E1,1.239110055E1
2.044032417E0,-2.173993025E0,-3.611090114E0,1.058741305E1,1.139559268E1
2.054018417E0,-2.375069416E0,-3.101718400E0,9.040785917E0,9.848726911E0
2.064004417E0,-2.172006726E0,-2.218169617E0,7.655559479E0,8.261082290E0
2.073990417E0,-1.457961708E0,-1.483079300E0,6.334669955E0,6.667324800E0
2.083976417E0,-7.267211974E-1,-7.385699952E-1,5.149075645E0,5.252293721E0
2.093962417E0,-1.897427326E-1,-3.496146718E-1,4.153225822E0,4.172231712E0
2.103947417E0,1.614351922E-1,-1.292146951E-1,3.361640292E0,3.367993945E0
2.113933417E0,2.283062893E-1,1.778144127E-1,2.703979390E0,2.719420208E0
2.123919417E0,-5.810085833E-2,4.421385272E-1,2.065219173E0,2.112816229E0
2.133905417E0,-5.279661512E-1,5.874253178E-1,1.490344319E0,1.686695868E0
2.143891417E0,-8.381562638E-1,6.212070215E-1,9.588604827E-1,1.416974774E0
2.153877417E0,-1.057853113E0,5.986275597E-1,4.199810151E-1,1.285998529E0
2.163863417E0,-1.348789514E0,5.456256196E-1,7.861581445E-2,1.457093310E0
2.173849417E0,-1.469893536E0,6.719614381E-1,-1.066321635E-1,1.619718988E0
2.183835417E0,-1.556525298E0,7.000906384E-1,-2.888185394E-1,1.730986440E0
2.193821417E0,-1.796456437E0,6.129665405E-1,-2.365232353E-1,1.912832181E0
2.203807417E0,-1.962880474E0,5.694376744E-1,-1.158239134E-1,2.047089201E0
2.213793417E0,-1.896375412E0,4.826259640E-1,-2.003302129E-1,1.967053563E0
2.223779417E0,-1.645117047E0,4.412056039E-1,-2.740835559E-1,1.725165001E0
2.233765417E0,-1.226815426E0,4.027081208E-1,-2.320174805E-1,1.311900160E0
2.243750417E0,-6.835769320E-1,3.374695663E-1,-1.016854191E-1,7.690923576E-1
2.253736417E0,-1.936580282E-1,1.741296436E-1,-6.959582649E-2,2.695702946E-1
2.263722417E0,9.484183788E-2,1.366758884E-1,-1.223705292E-2,1.668083276E-1
2.273708417E0,1.979107082E-1,7.268469125E-2,1.523901709E-1,2.601431855E-1
2.283694417E0,1.001528639E-1,-3.398182467E-2,4.514214206E-1,4.636449714E-1
2.293680417E0,-1.244538921E-1,-2.492755741E-1,6.592525148E-1,7.157101099E-1
2.303666417E0,-2.515308452E-1,-5.259117320E-1,5.636260172E-1,8.108792778E-1
2.313652417E0,-2.655325878E-1,-5.454013789E-1,2.741163186E-1,6.656650625E-1
2.323638417E0,-1.671321344E-1,-4.101786697E-1,-1.246154945E-2,4.430970341E-1
2.333624417E0,1.365266383E-2,-3.276246093E-1,-3.116776443E-1,4.524016289E-1
2.343610417E0,7.278497100E-2,-3.118663631E-1,-4.589058566E-1,5.596006305E-1
2.353596417E0,6.368319511E-2,-3.823298433E-1,-4.786197442E-1,6.158802789E-1
2.363582417E0,1.540975213E-1,-4.867546830E-1,-4.661394471E-1,6.913480683E-1
2.373567417E0,2.020756799E-1,-3.943140042E-1,-4.807580709E-1,6.537938797E-1
2.383553417E0,1.125787818E-1,-2.590873481E-1,-5.490629053E-1,6.174708982E-1
2.393539417E0,-4.402719498E-2,-1.432209693E-1,-5.408645242E-1,5.612353103E-1
2.403525417E0,-1.794101179E-1,-1.641939086E-1,-4.889739937E-1,5.461164679E-1
2.413511417E0,-9.939447999E-2,-2.884900720E-1,-4.308801520E-1,5.279805770E-1
2.423497417E0,9.357650042E-2,-3.322694182E-1,-3.284229004E-1,4.764673433E-1
2.433483417E0,3.013181323E-1,-3.567503945E-1,-3.056341083E-1,5.581000528E-1
2.443469417E0,5.092106223E-1,-4.359397477E-1,-3.838072155E-1,7.724292201E-1
2.453455417E0,5.772271889E-1,-5.169152791E-1,-5.160894330E-1,9.309892246E-1
2.463441417E0,6.879044563E-1,-5.906098576E-1,-7.073688139E-1,1.149957905E0
2.473427417E0,9.496995038E-1,-7.448737322E-1,-1.086309319E0,1.623833107E0
2.483413417E0,1.383591557E0,-9.518895784E-1,-1.546685604E0,2.283124114E0
2.493399417E0,1.781060718E0,-9.494927316E-1,-1.960000281E0,2.813416932E0
2.503385417E0,2.186162835E0,-9.529721173E-1,-2.215650344E0,3.255237356E0
2.513370417E0,2.485785275E0,-1.040583288E0,-2.216762630E0,3.489409488E0
2.523356417E0,2.696631194E0,-1.035754000E0,-1.910127771E0,3.463119150E0
2.533342417E0,2.980880719E0,-1.075011329E0,-1.253370263E0,3.407673141E0
2.543328417E0,3.652559736E0,-1.218593948E0,-9.604110181E-2,3.851673368E0
2.553314417E0,4.216239511E0,-1.321429515E0,1.386598487E0,4.630929382E0
2.563300417E0,4.262676344E0,-1.405661287E0,2.645009050E0,5.209833600E0
2.573286417E0,4.094123336E0,-1.840320349E0,3.554102565E0,5.725405655E0
2.583272417E0,3.863171182E0,-2.359036058E0,4.476112579E0,6.365903434E0
2.593258417E0,3.157071944E0,-2.463539543E0,5.294003563E0,6.637966862E0
2.603244417E0,2.044143907E0,-2.407004862E0,5.683809364E0,6.502144693E0
2.613230417E0,7.697479337E-1,-2.586664948E0,5.656535611E0,6.267355308E0
2.623216417E0,-5.947109485E-1,-2.679630707E0,5.468765144E0,6.118945501E0
2.633202417E0,-1.482474990E0,-2.618837790E0,5.184044918E0,5.994194290E0
2.643188417E0,-1.847683893E0,-2.319003389E0,4.908357471E0,5.734429837E0
2.653173417E0,-2.088402067E0,-2.018873411E0,4.723417642E0,5.545083161E0
2.663159417E0,-2.304033932E0,-2.047736729E0,4.336094276E0,5.320104477E0
2.673145417E0,-2.565055978E0,-1.935187476E0,3.469157140E0,4.728584777E0
2.683131417E0,-2.676314458E0,-1.654390439E0,2.509829611E0,4.024787135E0
2.693117417E0,-2.732338386E0,-1.312083910E0,1.877700867E0,3.565529103E0
2.703103417E0,-2.801046093E0,-1.094507261E0,1.405141177E0,3.319371490E0
2.713089417E0,-2.785560912E0,-8.372826898E-1,1.255438716E0,3.168046443E0
2.723075417E0,-2.743442833E0,-6.545554465E-1,1.353627208E0,3.128454575E0
2.733061417E0,-2.906988870E0,-6.438003704E-1,1.765501277E0,3.461510937E0
2.743047417E0,-3.341029442E0,-8.582505128E-1,1.950526769E0,3.962780129E0
2.753033125E0,-3.945108215E0,-9.871409798E-1,1.717618428E0,4.414582563E0
2.763019125E0,-4.289847770E0,-1.155686971E0,1.663684588E0,4.744075535E0
2.773005125E0,-4.167878360E0,-1.469926865E0,1.842562317E0,4.788207484E0
2.782991125E0,-4.001546710E0,-2.000838259E0,1.910359029E0,4.864689242E0
2.792976125E0,-3.806695849E0,-2.641133516E0,1.618344401E0,4.907703958E0
2.802962125E0,-3.444253263E0,-3.219500327E0,1.054160596E0,4.831078292E0
2.812948125E0,-3.022688895E0,-3.548512042E0,4.676965606E-1,4.684797322E0
2.822934125E0,-2.576855074E0,-3.575893384E0,-6.875273108E-2,4.408165435E0
2.832920125E0,-2.086218717E0,-3.320886953E0,-5.071839774E-1,3.954470164E0
2.842906125E0,-1.769852191E0,-2.882320052E0,-9.637629345E-1,3.516956732E0
2.852892125E0,-1.752026369E0,-2.515008489E0,-1.490230737E0,3.408174254E0
2.862878125E0,-1.645028754E0,-2.088678933E0,-1.891229863E0,3.262736533E0
2.872864125E0,-1.764023101E0,-2.182520605E0,-2.296905884E0,3.626423904E0
2.882850125E0,-1.998325126E0,-2.254740735E0,-2.506816833E0,3.919348124E0
2.892836125E0,-2.212518575E0,-1.794156435E0,-2.412071766E0,3.732603108E0
2.902822125E0,-2.776740972E0,-2.069150402E0,-2.517239787E0,4.281141198E0
2.912808125E0,-3.090685582E0,-2.470891832E0,-2.788524281E0,4.840817232E0
2.922794125E0,-3.152176656E0,-2.755357119E0,-3.347178082E0,5.360206305E0
2.932779125E0,-2.831703045E0,-3.148881750E0,-4.254286759E0,6.002745558E0
2.942765125E0,-2.149707785E0,-2.849872098E0,-4.797462395E0,5.979854511E0
2.952751125E0,-1.189797873E0,-2.313383776E0,-4.950514727E0,5.592401947E0
2.962737125E0,-1.491975546E-1,-2.057851535E0,-4.717333614E0,5.148810472E0
2.972723125E0,5.975497717E-1,-1.910390457E0,-4.139742728E0,4.598274381E0
2.982709125E0,1.059449403E0,-2.200460447E0,-3.507173397E0,4.273724892E0
2.992695125E0,1.397105641E0,-2.631555484E0,-2.874633010E0,4.140109102E0
3.002681125E0,1.711221575E0,-2.913254454E0,-2.681847678E0,4.313657121E0
3.012667125E0,2.001023616E0,-2.983596458E0,-3.098004834E0,4.743793554E0
3.022653125E0,2.105535579E0,-2.941143041E0,-3.919849705E0,5.333743917E0
3.032639125E0,1.882899334E0,-2.872766871E0,-4.763564624E0,5.872788718E0
3.042625125E0,1.819434240E0,-3.337797686E0,-5.715553898E0,6.864312836E0
3.052611125E0,2.354623457E0,-3.911922342E0,-6.169089671E0,7.674962893E0
3.062596125E0,2.993177998E0,-4.016274092E0,-6.069460133E0,7.869429358E0
3.072582125E0,3.439881300E0,-4.326933736E0,-5.763606901E0,7.985881505E0
3.082568125E0,3.757882124E0,-4.896069840E0,-5.264654049E0,8.112321504E0
3.092554125E0,3.912735690E0,-5.497807095E0,-4.780882323E0,8.269958840E0
3.102540125E0,3.768476694E0,-5.780358589E0,-4.343681331E0,8.153620638E0
3.112526125E0,2.879218104E0,-5.823525074E0,-4.084489464E0,7.673747152E0
3.122512125E0,1.433743710E0,-6.282991678E0,-4.523819427E0,7.873788647E0
3.132498125E0,6.384165466E-2,-6.752086308E0,-4.922417101E0,8.356131604E0
3.142484125E0,-1.020826204E0,-7.219319769E0,-4.975305752E0,8.826909504E0
3.152470125E0,-1.504876842E0,-7.477477849E0,-4.359406832E0,8.785314862E0
3.162456125E0,-1.436687783E0,-7.940945703E0,-3.212828654E0,8.685905733E0
3.172442125E0,-1.010265548E0,-8.479176641E0,-1.652936529E0,8.697659004E0
3.182428125E0,-3.052427834E-1,-8.799636803E0,1.015465477E-1,8.805514904E0
3.192414125E0,5.937438190E-1,-9.281162614E0,1.649404518E0,9.445265822E0
3.202400125E0,1.843287957E0,-9.762592530E0,2.802809906E0,1.032287105E1
3.212385125E0,3.347674803E0,-9.841193726E0,3.609709586E0,1.100390948E1
3.222371125E0,4.748227378E0,-9.358045898E0,4.324529653E0,1.134990057E1
3.232357125E0,5.709503784E0,-8.643563508E0,5.247920487E0,1.161250589E1
3.242343125E0,6.237147169E0,-7.817361292E0,6.916116495E0,1.215918623E1
3.252329125E0,6.097403392E0,-6.921185446E0,8.900304222E0,1.281782163E1
3.262315125E0,5.012223902E0,-6.140329556E0,1.062768282E1,1.325796657E1
3.272301125E0,3.724575799E0,-5.812623525E0,1.190418029E1,1.376112515E1
3.282287125E0,2.276050327E0,-5.353265094E0,1.252163573E1,1.380685387E1
3.292273125E0,8.422884911E-1,-4.912492622E0,1.236342060E1,1.333027392E1
3.302259125E0,-2.977577627E-1,-4.490857210E0,1.175441555E1,1.258660968E1
3.312245125E0,-1.100935398E0,-4.110235339E0,1.074549837E1,1.155732791E1
3.322231125E0,-1.392008623E0,-3.809294937E0,9.193319893E0,1.004816135E1
3.332217125E0,-1.050075147E0,-3.240798810E0,7.688481642E0,8.409410485E0
3.342203125E0,-4.009067398E-1,-2.701686112E0,6.086211237E0,6.670967042E0
3.352188125E0,2.214194387E-1,-2.165734564E0,4.423523599E0,4.930212348E0
3.362174125E0,8.661761212E-1,-1.603762469E0,2.668114908E0,3.231277192E0
3.372160125E0,1.382403402E0,-8.717243980E-1,8.990329416E-1,1.865262132E0
3.382146125E0,1.600167747E0,-1.883543113E-1,-7.607645640E-1,1.781790360E0
3.392132125E0,1.477616538E0,2.050378793E-1,-2.146131628E0,2.613670241E0
3.402118125E0,9.616915584E-1,2.499626219E-1,-3.095310144E0,3.250888626E0
3.412104125E0,-1.677191949E-1,1.344257337E-1,-3.596589603E0,3.603006631E0
3.422090125E0,-1.465390595E0,7.687846050E-2,-3.690098276E0,3.971159174E0
3.432076125E0,-2.379192873E0,2.192337495E-1,-3.419756938E0,4.171733414E0
3.442062125E0,-2.916547313E0,1.790386735E-1,-2.980555029E0,4.173968299E0
3.452048125E0,-3.152232789E0,8.927002609E-2,-2.575320765E0,4.071463832E0
3.462034125E0,-2.978185737E0,2.528027608E-1,-2.066634053E0,3.633796338E0
3.472020125E0,-2.323002300E0,2.832329866E-1,-1.425464637E0,2.740166061E0
3.482006125E0,-1.350989236E0,1.059799066E-1,-7.832404570E-1,1.565205824E0
3.491991125E0,-6.721625823E-1,1.134112792E-1,-1.572796492E-1,6.995724003E-1
3.501977125E0,-4.058751190E-1,4.831466585E-2,3.809425914E-1,5.587362321E-1
3.511963125E0,-2.609472013E-1,-1.440214531E-1,8.865875816E-1,9.353465458E-1
3.521949125E0,4.802902937E-2,-4.470789859E-1,1.263407886E0,1.341039110E0
3.531935125E0,3.681874752E-1,-5.261808501E-1,1.440134132E0,1.576836904E0
3.541921125E0,5.081008208E-1,-5.112891613E-1,1.434893857E0,1.605771912E0
3.551907125E0,4.572072405E-1,-6.146815288E-1,1.278543988E0,1.490485348E0
3.561893125E0,1.689371699E-1,-5.821394348E-1,1.117213461E0,1.271059404E0
3.571879125E0,-3.094761676E-1,-4.015941531E-1,1.099822673E0,1.211058741E0
3.581865125E0,-8.220711583E-1,-3.150083645E-1,1.178038538E0,1.470648175E0
3.591851125E0,-9.644455969E-1,-5.401129378E-1,1.020383570E0,1.504347010E0
3.601837125E0,-8.361173397E-1,-5.392864338E-1,6.079057753E-1,1.165963762E0
3.611823125E0,-6.433539355E-1,-2.186538519E-1,2.319052505E-1,7.179789958E-1
3.621809125E0,-3.821401012E-1,-7.831607156E-2,-4.355572667E-3,3.901069533E-1
3.631794125E0,-6.534029603E-2,-2.378165663E-1,-1.843270598E-1,3.079002086E-1
3.641780125E0,8.569094539E-2,-2.239040668E-1,-3.523088129E-1,4.261425453E-1
3.651766125E0,9.182116628E-2,-7.137601130E-2,-3.771243962E-1,3.946498090E-1
3.661752125E0,-1.105854660E-1,3.057859898E-2,-1.133103416E-1,1.612557891E-1
3.671738125E0,-4.075263727E-1,-1.420336191E-1,2.015680685E-1,4.763202490E-1
3.681724125E0,-6.134705704E-1,-2.982487826E-1,4.225162582E-1,8.023829918E-1
3.691710125E0,-6.553202623E-1,-2.429817773E-1,5.526267102E-1,8.910000399E-1
3.701696125E0,-6.120953053E-1,-1.680081935E-1,6.162473401E-1,8.846740643E-1
3.711682125E0,-4.491725814E-1,-3.080039117E-1,5.761314207E-1,7.928113467E-1
3.721668125E0,-1.486753982E-1,-4.209102838E-1,5.630429401E-1,7.185312753E-1
3.731654125E0,1.679343724E-1,-3.798698466E-1,5.741158855E-1,7.085986902E-1
3.741640125E0,3.521526557E-1,-4.918408835E-1,3.975499264E-1,7.238541922E-1
3.751626125E0,4.211112088E-1,-5.202630293E-1,1.475100482E-1,6.853958595E-1
3.761613042E0,3.148608685E-1,-4.341905531E-1,-4.012827158E-2,5.378374114E-1
3.771599042E0,1.094189465E-1,-4.203644463E-1,-2.357075487E-1,4.942032194E-1
3.781584042E0,-5.928667367E-2,-4.761183053E-1,-4.830607045E-1,6.808459404E-1
3.791570042E0,-9.855014205E-2,-5.688422817E-1,-6.708966601E-1,8.850966052E-1
3.801556042E0,5.842420936E-2,-6.509226445E-1,-8.171630055E-1,1.046359907E0
3.811542042E0,3.801421076E-1,-6.843163124E-1,-1.022042864E0,1.287388229E0
3.821528042E0,6.719906741E-1,-7.496251065E-1,-1.331605132E0,1.669335644E0
3.831514042E0,1.020865965E0,-7.709409850E-1,-1.590543230E0,2.041162680E0
3.841500042E0,1.615155330E0,-7.857880157E-1,-1.480809264E0,2.327871479E0
3.851486042E0,2.500100428E0,-1.063716554E0,-1.258171704E0,2.994159498E0
3.861472042E0,3.612327384E0,-1.295718576E0,-8.585601228E-1,3.932546407E0
3.871458042E0,4.759749901E0,-1.361302409E0,2.272666544E-3,4.950592745E0
3.881444042E0,5.319301541E0,-1.459240348E0,1.027012412E0,5.610624366E0
3.891430042E0,5.206115234E0,-1.805486438E0,1.850278742E0,5.812654173E0
3.901416042E0,4.777907259E0,-2.111194660E0,2.579162970E0,5.825600596E0
3.911402042E0,4.415159449E0,-2.464593211E0,3.070344288E0,5.915645924E0
3.921387042E0,4.107763136E0,-2.502377042E0,3.557153057E0,5.982386373E0
3.931373042E0,3.793824373E0,-2.504876727E0,4.033557292E0,6.077589589E0
3.941359042E0,3.277321104E0,-2.503442112E0,4.246814017E0,5.919753823E0
3.951345042E0,2.537403325E0,-2.449261081E0,4.250127342E0,5.522759990E0
3.961331042E0,1.701239793E0,-2.227439939E0,4.314009050E0,5.144548532E0
3.971317042E0,8.534613508E-1,-1.958822652E0,4.160331944E0,4.676937496E0
3.981303042E0,8.272640705E-3,-1.849067345E0,3.842116820E0,4.263916057E0
3.991289042E0,-8.855888772E-1,-1.909628419E0,3.513893017E0,4.096143612E0
4.001275042E0,-1.871935220E0,-2.240127666E0,3.124960790E0,4.276411272E0
4.011261042E0,-2.734324100E0,-2.467423264E0,2.910063336E0,4.693950838E0
4.021247042E0,-3.297047855E0,-2.320642071E0,3.000570633E0,5.025865926E0
4.031233042E0,-3.780176972E0,-2.092340167E0,3.309764672E0,5.442625056E0
4.041219042E0,-3.915511363E0,-2.077997240E0,3.588238318E0,5.703047956E0
4.051205042E0,-3.725823594E0,-2.301347429E0,3.771900238E0,5.779722558E0
4.061191042E0,-3.471555083E0,-2.663042156E0,3.697418990E0,5.728385061E0
4.071176042E0,-3.325043739E0,-3.117563478E0,3.168764037E0,5.551232604E0
4.081162042E0,-3.277255030E0,-3.337085495E0,2.748362680E0,5.424945857E0
4.091148042E0,-3.130637852E0,-3.360330516E0,2.189920548E0,5.088071004E0
4.101134042E0,-2.655931649E0,-3.226462022E0,1.654306532E0,4.494525582E0
4.111120042E0,-2.426995615E0,-3.200729595E0,1.111363907E0,4.167746080E0
4.121106042E0,-2.506606041E0,-3.158991585E0,4.561927485E-1,4.058375722E0
4.131092042E0,-2.866888665E0,-3.733498650E0,-4.124900740E-1,4.725273626E0
4.141078042E0,-2.701053443E0,-3.640746607E0,-7.895238018E-1,4.601529462E0
4.151064042E0,-2.676071214E0,-3.333951387E0,-1.272675723E0,4.460526033E0
4.161050042E0,-2.849776788E0,-3.137856240E0,-2.066058102E0,4.715502689E0
4.171036042E0,-3.006162910E0,-3.039653422E0,-3.071961043E0,5.264356847E0
4.181022042E0,-3.073899395E0,-2.739695937E0,-4.030776648E0,5.762113476E0
4.191008042E0,-2.830727729E0,-2.325198514E0,-4.744657945E0,5.994276155E0
4.200994042E0,-2.438105325E0,-1.871477968E0,-5.257830933E0,6.090285172E0
4.210980042E0,-2.181955179E0,-1.479591143E0,-5.778873396E0,6.351810457E0
4.220965042E0,-2.016918102E0,-1.271796302E0,-6.158271153E0,6.603766202E0
4.230951042E0,-1.974257986E0,-1.216671676E0,-6.213690478E0,6.632340003E0
4.240937042E0,-2.194897991E0,-1.355880724E0,-6.036789401E0,6.564968850E0
4.250923042E0,-2.644723706E0,-1.687639754E0,-5.330169761E0,6.184933395E0
4.260909042E0,-3.100644559E0,-1.921809631E0,-4.325017603E0,5.658014334E0
4.270895042E0,-3.372005067E0,-2.356797744E0,-3.344438369E0,5.301903600E0
4.280881042E0,-3.126620815E0,-2.727244876E0,-2.535783647E0,4.862491238E0
4.290867042E0,-2.473312579E0,-2.535219390E0,-1.553065501E0,3.867379594E0
4.300853042E0,-1.631955550E0,-2.326100739E0,-4.973308343E-1,2.884677022E0
4.310839042E0,-5.534956795E-1,-2.256399736E0,2.658307958E-1,2.338453174E0
4.320825042E0,5.360744852E-1,-2.184841949E0,6.432288051E-1,2.339797746E0
4.330811042E0,1.337309090E0,-1.951071291E0,3.887202653E-1,2.397118735E0
4.340797042E0,1.929378852E0,-1.900572690E0,-5.831890100E-1,2.770340904E0
4.350783042E0,2.113257412E0,-1.740769748E0,-1.645052728E0,3.194109372E0
4.360768042E0,2.030153859E0,-1.781867342E0,-2.232960149E0,3.504666452E0
4.370754042E0,2.256027707E0,-2.046557346E0,-2.293958595E0,3.813175057E0
4.380740042E0,2.592487020E0,-2.114409752E0,-1.844362675E0,3.820129739E0
4.390726042E0,2.891232963E0,-2.251401536E0,-1.478180502E0,3.951335789E0
4.400712042E0,3.590212630E0,-2.590769401E0,-1.202378888E0,4.587747575E0
4.410698042E0,4.367453186E0,-2.529217808E0,-7.063174845E-1,5.096123472E0
4.420684042E0,4.706078308E0,-2.516252485E0,-4.026680674E-1,5.351713855E0
4.430670042E0,4.720756574E0,-3.019922285E0,-5.882743335E-1,5.634850480E0
4.440656042E0,4.564348233E0,-3.459007250E0,-1.158748135E0,5.843004637E0
4.450642042E0,4.230740021E0,-3.493673930E0,-1.940259789E0,5.819753148E0
4.460628042E0,3.693026562E0,-3.346477585E0,-2.723885066E0,5.679516464E0
4.470614042E0,3.110467882E0,-3.405330688E0,-3.163462951E0,5.592743994E0
4.480600042E0,2.313654356E0,-3.574114076E0,-3.546139242E0,5.540973870E0
4.490586042E0,1.694629515E0,-4.246135156E0,-4.063040122E0,6.116349237E0
4.500572042E0,1.486690832E0,-4.566221096E0,-4.223178987E0,6.394987528E0
4.510557042E0,1.694787390E0,-4.873594605E0,-3.776661041E0,6.394325398E0
4.520543042E0,1.981067653E0,-5.421468771E0,-2.998895406E0,6.504638832E0
4.530529042E0,2.398457694E0,-6.003255034E0,-2.205621200E0,6.830551602E0
4.540515042E0,2.787441961E0,-6.438735775E0,-1.618998120E0,7.200576781E0
4.550501042E0,3.036869563E0,-6.665022436E0,-9.443064706E-1,7.384904571E0
4.560487042E0,2.960127196E0,-6.770044277E0,-2.333249545E-1,7.392583653E0
4.570473042E0,2.727264172E0,-6.654364132E0,6.002473846E-1,7.216566274E0
4.580459042E0,2.183528080E0,-6.605000183E0,1.840399871E0,7.195894244E0
4.590445042E0,1.358995244E0,-6.455623119E0,3.745859956E0,7.586396031E0
4.600431042E0,5.851525050E-1,-6.116816733E0,6.004727948E0,8.591542826E0
4.610417042E0,-8.662942350E-2,-5.759666462E0,8.118234451E0,9.954244974E0
4.620403042E0,-7.822650683E-1,-5.126368568E0,9.361215674E0,1.070158643E1
4.630389042E0,-1.340190014E0,-4.181807890E0,9.792431456E0,1.073197747E1
4.640375042E0,-1.359033251E0,-3.554782012E0,9.667087033E0,1.038922606E1
4.650361042E0,-1.241315351E0,-2.720382584E0,9.382163908E0,9.847149070E0
4.660346042E0,-1.216817856E0,-1.779175137E0,8.950323059E0,9.206214897E0
4.670332042E0,-1.311759682E0,-1.263165519E0,8.371754519E0,8.567530234E0
4.680318042E0,-1.253736007E0,-8.929676248E-1,7.785543083E0,7.936241318E0
4.690304042E0,-1.160254231E0,-7.505570796E-1,6.958967814E0,7.094840298E0
4.700290042E0,-1.166339428E0,-7.783591282E-1,5.779546410E0,5.947213407E0
4.710276042E0,-1.052188915E0,-7.540541531E-1,4.418582701E0,4.604299324E0
4.720262042E0,-8.842106885E-1,-5.951358949E-1,2.975934559E0,3.161044412E0
4.730248042E0,-7.950862581E-1,-1.620234221E-1,1.599035579E0,1.793133718E0
4.740234042E0,-6.992503935E-1,2.702412774E-1,5.550492847E-1,9.327706949E-1
4.750220042E0,-7.454714638E-1,5.505060712E-1,-5.951529980E-2,9.286154795E-1
4.760205250E0,-9.412491077E-1,7.379257782E-1,-4.702449234E-1,1.285151596E0
4.770191250E0,-1.317511588E0,6.685406707E-1,-7.137649369E-1,1.640805838E0
4.780177250E0,-1.812764906E0,4.705342144E-1,-7.090216756E-1,2.002556064E0
4.790163250E0,-2.169019384E0,3.448310646E-1,-5.881118540E-1,2.273637857E0
4.800149250E0,-2.162596217E0,1.110864262E-1,-4.607687064E-1,2.213926465E0
4.810134250E0,-1.929531464E0,9.291839629E-2,-1.769507059E-1,1.939854905E0
4.820120250E0,-1.549060158E0,1.752149599E-1,1.736670557E-1,1.568581494E0
4.830106250E0,-1.117606394E0,3.872998305E-2,5.740574864E-1,1.257014742E0
4.840092250E0,-7.183713734E-1,9.797740728E-4,1.028301943E0,1.254377645E0
4.850078250E0,-4.408022922E-1,3.690521322E-2,1.291853567E0,1.365486834E0
4.860064250E0,-3.963921046E-1,5.892487720E-2,1.416623647E0,1.472216492E0
4.870050250E0,-4.003728890E-1,-3.012631685E-2,1.442152591E0,1.497000381E0
4.880036250E0,-3.022952020E-1,-3.306778061E-1,1.281480460E0,1.357542769E0
4.890022250E0,-1.072344267E-1,-4.466722389E-1,8.754919783E-1,9.886867630E-1
4.900008250E0,2.592199337E-1,-4.491443686E-1,4.503549250E-1,6.868370959E-1
4.909994250E0,7.145432013E-1,-5.322585922E-1,1.958724054E-1,9.122703518E-1
4.919980250E0,1.079995934E0,-7.116470754E-1,-1.675925296E-2,1.293488944E0
4.929966250E0,1.095899776E0,-7.081666665E-1,-1.709760940E-1,1.315951812E0
4.939952250E0,7.895290643E-1,-5.408479328E-1,-3.021724105E-1,1.003583975E0
4.949938250E0,3.926311755E-1,-3.868878210E-1,-3.812185800E-1,6.702007399E-1
4.959923250E0,1.568340182E-2,-2.815888958E-1,-3.354687953E-1,4.382665718E-1
4.969909250E0,-2.377279079E-1,-2.737019520E-1,-2.767603930E-1,4.560960774E-1
4.979895250E0,-4.250773752E-1,-4.016325986E-1,-2.036432819E-1,6.192496309E-1
4.989881250E0,-4.417489564E-1,-4.930535960E-1,-1.364231791E-1,6.759106989E-1
4.999867250E0,-2.709237206E-1,-5.070662291E-1,-1.974213328E-1,6.078577183E-1
5.009853250E0,4.594508171E-2,-4.944226485E-1,-3.395010352E-1,6.015194583E-1
5.019839250E0,3.347706378E-1,-4.704407320E-1,-5.286350727E-1,7.828415563E-1
5.029825250E0,6.594267619E-1,-4.082064039E-1,-7.140743277E-1,1.054219269E0
5.039811250E0,9.336448038E-1,-2.671119207E-1,-8.612679684E-1,1.298007670E0
5.049797250E0,1.063413230E0,-1.853564438E-1,-9.103027189E-1,1.412039571E0
5.059783250E0,1.162479097E0,-2.062447447E-1,-7.631600221E-1,1.405812137E0
5.069769250E0,1.375150516E0,-2.910434780E-1,-4.603360856E-1,1.479072196E0
5.079755250E0,1.647647722E0,-3.496214692E-1,3.455017403E-2,1.684687479E0
5.089741250E0,1.949024912E0,-4.829522386E-1,6.254263723E-1,2.103116525E0
5.099727250E0,2.135831172E0,-8.003198084E-1,1.147559341E0,2.553268304E0
5.109712250E0,2.168603062E0,-1.059225527E0,1.733202866E0,2.971328008E0
5.119698250E0,2.236681609E0,-1.368075970E0,2.276609614E0,3.472366313E0
5.129684250E0,2.493106574E0,-1.776419199E0,2.775693151E0,4.132277583E0
5.139670250E0,2.932896128E0,-2.110659640E0,3.513085517E0,5.039695791E0
5.149656250E0,3.390108631E0,-2.275886605E0,4.430003483E0,6.024734619E0
5.159642250E0,3.458357917E0,-2.297461516E0,5.302237612E0,6.734411080E0
5.169628250E0,2.957771938E0,-2.119702213E0,5.881187975E0,6.915918183E0
5.179614250E0,2.086851971E0,-2.045334401E0,5.919464434E0,6.601394030E0
5.189600250E0,1.131932073E0,-2.126861836E0,5.802694952E0,6.282999300E0
5.199586250E0,1.510078526E-1,-2.344114695E0,5.687332311E0,6.153326409E0
5.209572250E0,-8.956607062E-1,-2.809816917E0,5.295143770E0,6.061008724E0
5.219558250E0,-1.926366366E0,-3.252830918E0,4.794176260E0,6.105401082E0
5.229544250E0,-2.846883586E0,-3.689986887E0,3.834848439E0,6.035462859E0
5.239530250E0,-3.515054859E0,-3.647229707E0,2.644289258E0,5.714031928E0
5.249516250E0,-3.777183782E0,-3.096586007E0,1.656063620E0,5.157374229E0
5.259501250E0,-3.871084219E0,-2.516990403E0,1.006975320E0,4.725942553E0
5.269487250E0,-3.762395005E0,-2.075515389E0,6.506360579E-1,4.345883981E0
5.279473250E0,-3.460071151E0,-1.855584359E0,5.417573941E-1,3.963431185E0
5.289459250E0,-3.193760299E0,-1.761226670E0,5.926106286E-1,3.695025249E0
5.299445250E0,-3.004544401E0,-1.818873492E0,4.772830707E-1,3.544486841E0
5.309431250E0,-2.953447922E0,-1.841041456E0,2.693461418E-1,3.490678389E0
5.319417250E0,-3.147816387E0,-1.800024700E0,1.557119375E-1,3.629474223E0
5.329403250E0,-3.634102415E0,-1.736428044E0,4.042010611E-1,4.047871196E0
5.339389250E0,-4.146615545E0,-1.844085225E0,6.346503550E-1,4.582341309E0
5.349375250E0,-4.331374111E0,-2.075353421E0,3.691774088E-1,4.817072293E0
5.359361250E0,-4.107481300E0,-2.438386283E0,-2.327808711E-1,4.782396599E0
5.369347250E0,-3.514333313E0,-2.770524212E0,-9.768384781E-1,4.580453739E0
5.379333250E0,-2.812155803E0,-2.851540309E0,-1.588691709E0,4.308531506E0
5.389319250E0,-2.281398191E0,-2.660385181E0,-2.142734395E0,4.107765537E0
5.399305250E0,-1.994118639E0,-2.262126938E0,-2.693757872E0,4.043520607E0
5.409291250E0,-1.842210315E0,-1.822642608E0,-3.132068666E0,4.065171466E0
5.419276250E0,-1.699065213E0,-1.694622206E0,-3.477448491E0,4.225069826E0
5.429262250E0,-1.491815332E0,-1.758389894E0,-3.742718832E0,4.396065543E0
5.439248250E0,-1.463094978E0,-1.787920672E0,-4.017277181E0,4.634201463E0
5.449234250E0,-1.368510418E0,-2.060453546E0,-4.495461308E0,5.131029327E0
5.459220250E0,-1.381070237E0,-1.902909968E0,-4.701528590E0,5.256690254E0
5.469206250E0,-1.456019263E0,-1.362764798E0,-4.597783781E0,5.011659973E0
5.479192250E0,-1.489557722E0,-1.170452506E0,-4.227611176E0,4.632649084E0
5.489178250E0,-1.364598631E0,-1.359296522E0,-3.887762817E0,4.338722874E0
5.499164250E0,-1.097563893E0,-1.632796964E0,-3.548621970E0,4.057510359E0
5.509150250E0,-6.240639710E-1,-1.965563176E0,-3.337620223E0,3.923340820E0
5.519136250E0,1.054065871E-1,-2.013719529E0,-3.230736921E0,3.808390466E0
5.529122250E0,7.802167886E-1,-1.752571914E0,-3.045426963E0,3.599287699E0
5.539108250E0,8.225839591E-1,-1.432758454E0,-2.703605460E0,3.168426051E0
5.549094250E0,2.924736339E-1,-1.613238028E0,-2.750037907E0,3.201684908E0
5.559080250E0,-1.728787780E-2,-2.210117855E0,-3.331608993E0,3.998066818E0
5.569066250E0,7.385442674E-2,-2.389403865E0,-3.786889576E0,4.478307489E0
5.579051250E0,4.650658983E-1,-2.615429156E0,-3.883401378E0,4.705057090E0
5.589037250E0,1.274715232E0,-3.053549038E0,-3.725451711E0,4.982775442E0
5.599023250E0,2.022767656E0,-3.111352858E0,-3.100617077E0,4.835900315E0
5.609009250E0,2.332559574E0,-3.288136406E0,-2.518034716E0,4.753227748E0
5.618995250E0,2.781987094E0,-3.906982907E0,-2.282365028E0,5.311605948E0
5.628981250E0,3.981303064E0,-4.256922391E0,-1.721395145E0,6.077447127E0
5.638967250E0,4.883826063E0,-4.093091010E0,-1.256482444E0,6.494913330E0
5.648953250E0,5.423962609E0,-4.027679670E0,-1.027472150E0,6.833540292E0
5.658939250E0,5.220192406E0,-3.840564384E0,-8.768911439E-1,6.539822751E0
5.668925250E0,4.258194453E0,-3.848560744E0,-1.127848523E0,5.849417244E0
5.678911250E0,3.294301418E0,-4.060553302E0,-1.632655608E0,5.477780507E0
5.688897250E0,2.683103076E0,-4.292267933E0,-2.286579993E0,5.554372529E0
5.698883250E0,2.397902793E0,-4.717179832E0,-3.385318592E0,6.281887085E0
5.708869250E0,2.498263233E0,-4.622288877E0,-3.903332782E0,6.545447308E0
5.718854250E0,2.473718961E0,-4.428411579E0,-3.280379198E0,6.040778285E0
5.728840250E0,2.326535187E0,-5.030758991E0,-2.092576395E0,5.924540317E0
5.738826250E0,2.583812091E0,-5.694243720E0,-4.612646234E-1,6.270028829E0
5.748812250E0,2.978032540E0,-6.055052594E0,1.328023127E0,6.877207657E0
5.758798250E0,3.320036768E0,-6.760039691E0,2.678630540E0,7.993487495E0
5.768784250E0,3.187795554E0,-6.739202553E0,4.430910094E0,8.672476913E0
5.778770250E0,2.442760293E0,-6.357493976E0,6.473450110E0,9.396295219E0
5.788756250E0,1.339499457E0,-6.354614807E0,8.049340217E0,1.034249806E1
5.798742250E0,6.503273249E-2,-6.244491856E0,9.200738840E0,1.111986974E1
5.808728250E0,-9.400334716E-1,-6.249865447E0,9.665270888E0,1.154824412E1
5.818714250E0,-1.509089177E0,-5.986364767E0,9.652948465E0,1.145833004E1
5.828700250E0,-1.972958150E0,-5.254145433E0,9.276138686E0,1.084183366E1
5.838686250E0,-2.080838694E0,-4.319763880E0,8.685641241E0,9.921220359E0
5.848672250E0,-1.956181319E0,-3.107574095E0,8.196071416E0,8.981049424E0
5.858658250E0,-1.858821085E0,-2.113175697E0,7.709314102E0,8.206963584E0
5.868644250E0,-1.742487221E0,-1.614106485E0,6.891037202E0,7.288895333E0
5.878630250E0,-1.819095102E0,-1.208606319E0,5.862495596E0,6.256092298E0
5.888615250E0,-1.898146534E0,-1.020539983E0,4.654805828E0,5.129491146E0
5.898601250E0,-1.805472844E0,-8.304794544E-1,3.451388036E0,3.982650837E0
5.908587250E0,-1.605064790E0,-5.050620228E-1,2.462122178E0,2.982174751E0
5.918573250E0,-1.362138122E0,-2.048099841E-1,1.655988922E0,2.153988557E0
5.928559250E0,-1.142441273E0,1.637922049E-1,9.449673522E-1,1.491631069E0
5.938545250E0,-9.317146379E-1,4.586305258E-1,2.217625241E-1,1.061891116E0
5.948531250E0,-7.367795777E-1,6.545064030E-1,-4.089822928E-1,1.067000138E0
5.958517250E0,-8.718128371E-1,9.517996044E-1,-6.709867072E-1,1.454717592E0
5.968503250E0,-1.256141551E0,1.077273397E0,-7.299020827E-1,1.808636674E0
5.978489250E0,-1.659572534E0,9.624123739E-1,-6.949474275E-1,2.040433900E0
5.988475250E0,-1.767444892E0,4.750040453E-1,-5.358669456E-1,1.906998603E0
5.998461250E0,-1.885279736E0,1.555224147E-1,-2.738087733E-1,1.911396910E0
6.008447250E0,-2.041265908E0,4.015524186E-2,2.393850088E-3,2.041662235E0
6.018433250E0,-1.993792949E0,6.278082356E-2,3.211840109E-1,2.020472945E0
6.028419250E0,-1.862524127E0,9.972499385E-3,6.586186767E-1,1.975569319E0
6.038405250E0,-1.586684067E0,-2.623413236E-1,8.975230443E-1,1.841721183E0
6.048390250E0,-1.250773807E0,-4.060165485E-1,1.025863581E0,1.667837115E0
6.058376250E0,-8.640898347E-1,-4.312055495E-1,9.515022004E-1,1.355708636E0
6.068362250E0,-3.651989633E-1,-5.267473722E-1,7.529646707E-1,9.888320748E-1
6.078348250E0,3.193199551E-1,-6.766794102E-1,6.215484989E-1,9.727192783E-1
6.088334250E0,8.669818676E-1,-6.683143835E-1,5.374491656E-1,1.219488942E0
6.098320250E0,1.164476506E0,-7.146582453E-1,3.769524515E-1,1.417333796E0
6.108306250E0,1.106394943E0,-6.027078930E-1,2.798348955E-1,1.290609989E0
6.118292250E0,8.001411760E-1,-4.748155457E-1,3.348068905E-1,9.888232187E-1
6.128278250E0,3.821015096E-1,-4.289480858E-1,5.204092097E-1,7.751282278E-1
6.138264250E0,-1.827243197E-1,-4.934777384E-1,6.474516642E-1,8.343273415E-1
6.148250250E0,-7.493253636E-1,-4.996092749E-1,7.000461996E-1,1.140685149E0
6.158236250E0,-1.115049992E0,-4.393072323E-1,7.874234819E-1,1.434002464E0
6.168222250E0,-1.130951495E0,-4.967795880E-1,8.217501462E-1,1.483615363E0
6.178208250E0,-8.051078010E-1,-6.668292638E-1,8.052013564E-1,1.319548810E0
6.188194250E0,-3.325755930E-1,-6.738830524E-1,7.511801004E-1,1.062542440E0
6.198180250E0,1.342900783E-1,-5.291344249E-1,6.093669945E-1,8.181351959E-1
6.208165250E0,5.919352752E-1,-4.603666373E-1,4.822631443E-1,8.915730767E-1
6.218151250E0,9.262445676E-1,-5.201595336E-1,3.488039553E-1,1.118105155E0
6.228137250E0,1.194301398E0,-5.508369505E-1,2.215141636E-1,1.333733744E0
6.238123250E0,1.328632407E0,-5.196239287E-1,1.590121061E-1,1.435464368E0
6.248109250E0,1.394265064E0,-4.748023164E-1,2.345440807E-1,1.491450044E0
6.258095250E0,1.425932999E0,-6.366590197E-1,2.487593015E-1,1.581297194E0
6.268081250E0,1.426265121E0,-7.714110281E-1,2.151377749E-1,1.635723519E0
6.278067250E0,1.437743205E0,-7.903966449E-1,1.905560803E-1,1.651709418E0
6.288053250E0,1.476537727E0,-7.262325163E-1,3.076022080E-1,1.673976238E0
6.298039250E0,1.462713740E0,-7.402778207E-1,4.851277683E-1,1.709646656E0
6.308025250E0,1.384134763E0,-8.645484026E-1,5.854793644E-1,1.733799028E0
6.318011250E0,1.445962636E0,-1.049775184E0,6.854018480E-1,1.913795072E0
6.327997250E0,1.562782404E0,-1.092785256E0,9.616838839E-1,2.135721038E0
6.337983250E0,1.623039131E0,-1.160022828E0,1.066815725E0,2.262300769E0
6.347969250E0,1.617786577E0,-1.361895755E0,1.008193734E0,2.342743704E0
6.357954250E0,1.568204527E0,-1.373728327E0,1.164232238E0,2.387850845E0
6.367940250E0,1.535843697E0,-1.284024730E0,1.490797917E0,2.495999558E0
6.377926250E0,1.464784824E0,-1.198654943E0,1.831999907E0,2.634120709E0
6.387912250E0,1.340867706E0,-1.226672169E0,2.144881347E0,2.811257158E0
6.397898250E0,1.042246310E0,-1.377661895E0,2.319017276E0,2.891724536E0
6.407884250E0,6.742786896E-1,-1.619490163E0,2.284299287E0,2.880177663E0
6.417870250E0,3.950829130E-1,-1.726091044E0,2.170079192E0,2.800843533E0
6.427856250E0,1.121700615E-1,-1.563417558E0,2.119130647E0,2.635824593E0
6.437842250E0,-1.537344092E-1,-1.326964489E0,2.302057573E0,2.661566849E0
6.447828250E0,-3.014953029E-1,-1.088941735E0,2.735980616E0,2.960115446E0
6.457814250E0,-5.132335067E-1,-1.039305745E0,3.198225818E0,3.401795621E0
6.467800250E0,-7.737760806E-1,-1.108639104E0,3.549775918E0,3.798515388E0
6.477786250E0,-9.962591279E-1,-1.327392213E0,3.826786298E0,4.171186366E0
6.487772250E0,-1.233838516E0,-1.616631167E0,4.024266651E0,4.508943988E0
6.497758250E0,-1.575630491E0,-1.975750195E0,3.955924979E0,4.694203097E0
6.507744250E0,-2.201086099E0,-2.323856578E0,3.661534628E0,4.863324505E0
6.517730250E0,-2.998520599E0,-2.437329984E0,3.537825671E0,5.239075654E0
6.527715250E0,-3.504119981E0,-2.564489090E0,3.376447781E0,5.500532770E0
6.537701250E0,-3.507004997E0,-2.624677697E0,2.709678671E0,5.150764561E0
6.547687250E0,-3.101909897E0,-2.357210558E0,1.897406861E0,4.333409676E0
6.557673250E0,-2.517952563E0,-2.097790357E0,1.143462782E0,3.471068513E0
6.567659250E0,-1.979861957E0,-1.990545990E0,3.683050042E-1,2.831567637E0
6.577645250E0,-1.787459911E0,-1.943196407E0,-1.502243257E-1,2.644540141E0
6.587631250E0,-2.077922688E0,-2.060268482E0,-7.827223206E-1,3.029046573E0
6.597617250E0,-2.402325627E0,-2.063257578E0,-1.346558216E0,3.441136336E0
6.607603250E0,-2.485373046E0,-2.138597490E0,-1.797814161E0,3.739360127E0
6.617589250E0,-2.164933349E0,-2.362262260E0,-2.123183645E0,3.843842892E0
6.627575250E0,-1.431186138E0,-2.326546589E0,-2.269311996E0,3.551181455E0
6.637561250E0,-4.899522328E-1,-1.856884195E0,-2.388235592E0,3.064594809E0
6.647547250E0,2.389049524E-1,-1.180015773E0,-2.554602326E0,2.824093809E0
6.657533250E0,4.822619748E-1,-5.653897932E-1,-2.677403795E0,2.778620757E0
6.667519250E0,1.820390260E-1,-2.748603585E-1,-2.625085248E0,2.645705762E0
6.677505250E0,-8.699341267E-1,-3.383842170E-1,-2.566813066E0,2.731266845E0
6.687490250E0,-2.621740056E0,-6.502823013E-1,-2.455846362E0,3.650694364E0
6.697476250E0,-4.752538530E0,-1.223758794E0,-2.515155839E0,5.514545943E0
6.707462250E0,-6.130305675E0,-1.800339865E0,-3.012128824E0,7.063624519E0
6.717448250E0,-5.742952781E0,-2.429628031E0,-3.862228611E0,7.334944366E0
6.727434250E0,-3.798924900E0,-2.210592210E0,-4.649811137E0,6.398381977E0
6.737420250E0,-1.356856332E0,-1.718207535E0,-5.294678916E0,5.729478254E0
6.747406250E0,9.434365511E-1,-1.272894116E0,-5.555784577E0,5.777289522E0
6.757392292E0,2.559979425E0,-8.795601055E-1,-5.370473449E0,6.014075632E0
6.767378292E0,3.201760460E0,-8.884298931E-1,-4.859767109E0,5.887097253E0
6.777364292E0,2.705120766E0,-1.137233889E0,-4.247150817E0,5.162293031E0
6.787350292E0,1.531854726E0,-1.389204884E0,-3.732493513E0,4.267080611E0
6.797336292E0,2.614284271E-1,-1.566118240E0,-3.276620023E0,3.641058903E0
6.807322292E0,-7.346874440E-1,-1.887741268E0,-2.970417126E0,3.595373505E0
6.817308292E0,-8.980978256E-1,-2.454610260E0,-2.747678556E0,3.792285416E0
6.827294292E0,-4.289435542E-1,-2.524023727E0,-2.410230770E0,3.516233882E0
6.837280292E0,2.866422057E-2,-2.393203971E0,-1.874603597E0,3.040129196E0
6.847266292E0,5.916785824E-1,-2.600665521E0,-1.452794523E0,3.037129669E0
6.857251292E0,1.154095944E0,-3.012405397E0,-1.462780983E0,3.542068877E0
6.867237292E0,1.767251934E0,-3.382434745E0,-1.883372374E0,4.255718001E0
6.877223292E0,2.423661532E0,-3.542991394E0,-2.376789959E0,4.906735549E0
6.887209292E0,2.894552427E0,-3.469693914E0,-2.564385887E0,5.195506191E0
6.897195292E0,3.123352806E0,-3.442564003E0,-2.353874721E0,5.210307656E0
6.907181292E0,3.165642208E0,-3.518594471E0,-1.814735126E0,5.069029613E0
6.917167292E0,3.173561093E0,-3.926364088E0,-1.265765045E0,5.204804137E0
6.927153292E0,3.580400417E0,-4.254507491E0,-6.233663982E-1,5.595416589E0
6.937139292E0,4.008453441E0,-4.097908823E0,1.401647758E-1,5.734126078E0
6.947125292E0,3.900962906E0,-3.847345693E0,6.198032512E-1,5.513958337E0
6.957111292E0,3.494367410E0,-3.727446781E0,6.282032150E-1,5.147727886E0
6.967097292E0,3.005755944E0,-4.016233746E0,-1.299286401E-1,5.018125521E0
6.977083292E0,2.821545262E0,-4.354786947E0,-1.254276289E0,5.338398265E0
6.987069292E0,3.176803958E0,-4.024595849E0,-1.865906741E0,5.456286567E0
6.997055292E0,3.736956108E0,-3.862685863E0,-2.113735129E0,5.775210752E0
7.007041292E0,4.556380817E0,-4.007857609E0,-1.724713440E0,6.308578700E0
7.017026292E0,5.760565179E0,-4.524194233E0,-6.609857026E-1,7.354545992E0
7.027012292E0,6.807727243E0,-5.063086492E0,7.105350081E-1,8.513803793E0
7.036998292E0,7.047622129E0,-5.514673973E0,1.776458960E0,9.123399210E0
7.046984292E0,6.601195400E0,-5.833544862E0,2.635219642E0,9.195129631E0
7.056970292E0,5.408335925E0,-5.992679175E0,3.334662409E0,8.733972438E0
7.066956292E0,3.508669699E0,-6.203618649E0,4.032809433E0,8.188968148E0
7.076942292E0,1.327580493E0,-6.650266403E0,5.024859735E0,8.440244579E0
7.086928292E0,-6.347848409E-1,-7.048236086E0,6.422529048E0,9.556644971E0
7.096914292E0,-2.455707198E0,-6.839716190E0,7.981059941E0,1.079395818E1
7.106900292E0,-4.125021778E0,-6.355611173E0,9.130241300E0,1.186469149E1
7.116886292E0,-5.482693797E0,-5.682479707E0,9.493216567E0,1.234794184E1
7.126872292E0,-6.350308918E0,-4.946269648E0,9.032758859E0,1.209887348E1
7.136858292E0,-6.523185357E0,-4.085107514E0,8.211116302E0,1.125444275E1
7.146844292E0,-6.214371679E0,-2.927465527E0,7.411798414E0,1.010560367E1
7.156830292E0,-5.342042533E0,-1.881019162E0,6.564283097E0,8.669801848E0
7.166816292E0,-4.078596055E0,-1.106721510E0,5.521257938E0,6.952989824E0
7.176801292E0,-2.928236482E0,-3.959489588E-1,4.551037631E0,5.426166971E0
7.186787292E0,-1.834120107E0,1.722326789E-1,3.731820499E0,4.161747818E0
7.196773292E0,-8.194592071E-1,6.060396730E-1,2.749198247E0,2.932045102E0
7.206759292E0,-2.817054015E-1,9.377710377E-1,1.617027608E0,1.890383754E0
7.216745292E0,-4.107376635E-2,1.046081644E0,5.089334643E-1,1.164039145E0
7.226731292E0,-9.582007706E-2,1.009106192E0,-2.601671827E-1,1.046500720E0
7.236717292E0,-4.605307978E-1,8.808005192E-1,-7.633762228E-1,1.253252340E0
7.246703292E0,-8.906905729E-1,7.959419250E-1,-8.853432941E-1,1.486837581E0
7.256689292E0,-1.218661484E0,5.990519214E-1,-7.275994492E-1,1.540584296E0
7.266675292E0,-1.491546945E0,3.384717425E-1,-4.644666318E-1,1.598438194E0
7.276661292E0,-1.725743135E0,2.333246804E-1,3.006283801E-2,1.741704208E0
7.286647292E0,-1.833503226E0,7.850438844E-2,5.971667790E-1,1.929897713E0
7.296633292E0,-1.661081116E0,-1.483356567E-1,1.038640916E0,1.964680354E0
7.306619292E0,-1.314497933E0,-3.317518665E-1,1.265778932E0,1.854766945E0
7.316605292E0,-9.211832178E-1,-5.084214675E-1,1.235519006E0,1.622830282E0
7.326591292E0,-3.989473379E-1,-6.747937562E-1,1.176242273E0,1.413524487E0
7.336577292E0,1.662690854E-1,-8.685123032E-1,1.013356386E0,1.344935015E0
7.346562292E0,5.772406375E-1,-9.078608485E-1,6.745605254E-1,1.269822813E0
7.356548292E0,6.989855146E-1,-6.079512374E-1,3.521239313E-1,9.910482933E-1
7.366534292E0,7.342354542E-1,-3.947205319E-1,3.321207527E-1,8.973350516E-1
7.376520292E0,6.330213207E-1,-3.498961421E-1,3.840814499E-1,8.189394745E-1
7.386506292E0,3.608761168E-1,-3.453443771E-1,3.896391553E-1,6.334926848E-1
7.396492292E0,-6.506664634E-2,-4.354203688E-1,3.494179130E-1,5.620653377E-1
7.406478292E0,-4.811626983E-1,-5.785178887E-1,2.504848514E-1,7.930593613E-1
7.416464292E0,-6.525206155E-1,-7.503046261E-1,1.967990794E-1,1.013641980E0
7.426450292E0,-6.078402865E-1,-7.577525901E-1,1.134446814E-1,9.780227489E-1
7.436436292E0,-3.951086408E-1,-6.613954463E-1,-3.079677321E-2,7.710403463E-1
7.446422292E0,1.129389703E-2,-7.752582036E-1,-1.768941341E-1,7.952637104E-1
7.456408292E0,4.641549021E-1,-7.154126823E-1,-2.438476038E-1,8.869705367E-1
7.466394292E0,7.723288947E-1,-4.627571983E-1,-1.357559752E-1,9.105305217E-1
7.476380292E0,9.099887234E-1,-3.171208538E-1,2.315883315E-1,9.910995247E-1
7.486366292E0,9.335553414E-1,-4.750549161E-1,5.080062421E-1,1.164161969E0
7.496352292E0,8.354911029E-1,-6.300675997E-1,5.328111541E-1,1.174273516E0
7.506338292E0,6.655183911E-1,-5.583629749E-1,5.128499293E-1,1.008810681E0
7.516323292E0,5.391635692E-1,-5.669570663E-1,3.416650897E-1,8.537404189E-1
7.526309292E0,5.553837454E-1,-6.863928779E-1,1.780803879E-1,9.007213288E-1
7.536295292E0,7.154904503E-1,-7.699575564E-1,1.074162751E-1,1.056550746E0
7.546281292E0,8.616182166E-1,-8.427233778E-1,1.743429208E-1,1.217770133E0
7.556267292E0,9.125223219E-1,-7.954995100E-1,2.792875779E-1,1.242384002E0
7.566253292E0,9.196869153E-1,-8.040634152E-1,3.619724697E-1,1.274113836E0
7.576239292E0,1.000579636E0,-7.980246301E-1,4.666920090E-1,1.362279101E0
7.586225292E0,1.132195197E0,-7.442815554E-1,6.190453058E-1,1.489643612E0
7.596211292E0,1.331241435E0,-7.189805071E-1,8.019456267E-1,1.712382409E0
7.606197292E0,1.453673944E0,-7.371346499E-1,9.137395661E-1,1.868543664E0
7.616183292E0,1.446936198E0,-7.409856992E-1,1.221026682E0,2.033123293E0
7.626169292E0,1.346571080E0,-8.024068259E-1,1.701019353E0,2.313131476E0
7.636155292E0,1.320343394E0,-1.024176220E0,2.047439398E0,2.642773486E0
7.646141292E0,1.504214353E0,-1.158553642E0,2.456305368E0,3.104568154E0
7.656127292E0,1.668932172E0,-1.089568264E0,2.738252259E0,3.386815471E0
7.666112292E0,1.666581007E0,-9.789942004E-1,2.672380452E0,3.298111456E0
7.676098292E0,1.597079832E0,-8.788312501E-1,2.596152640E0,3.172225857E0
7.686084292E0,1.296163988E0,-7.770287405E-1,2.512119380E0,2.931647750E0
7.696070292E0,1.001073725E0,-8.694749741E-1,2.374702211E0,2.719806229E0
7.706056292E0,1.026910232E0,-9.205137116E-1,2.594722996E0,2.938448152E0
7.716042292E0,1.169194624E0,-9.030290750E-1,3.204832002E0,3.528941164E0
7.726028292E0,1.105372850E0,-9.173027131E-1,3.787179598E0,4.050434879E0
7.736014292E0,7.088152689E-1,-1.064606062E0,4.281551156E0,4.468499240E0
7.746000292E0,-3.660356998E-2,-1.350985143E0,4.747547931E0,4.936163696E0
7.755986292E0,-8.996660489E-1,-1.648666307E0,5.238526350E0,5.565038896E0
7.765972125E0,-1.525874779E0,-1.836422741E0,6.004600478E0,6.461885888E0
7.775958125E0,-2.198975254E0,-1.993068186E0,6.943422407E0,7.551087848E0
7.785944125E0,-2.995495250E0,-2.385192701E0,7.350895570E0,8.288413702E0
7.795930125E0,-3.478799783E0,-2.838803319E0,7.193994309E0,8.480236219E0
7.805916125E0,-3.540727059E0,-3.244811170E0,6.384449641E0,7.989164214E0
7.815902125E0,-3.404524941E0,-3.486465775E0,4.491966135E0,6.627517894E0
7.825888125E0,-3.102329142E0,-3.348854771E0,2.277652465E0,5.101663957E0
7.835874125E0,-2.858925927E0,-3.050416684E0,4.382865277E-1,4.203640623E0
7.845859125E0,-2.752373870E0,-2.655064799E0,-9.240702805E-1,3.934315302E0
7.855845125E0,-2.869939742E0,-2.206880105E0,-2.084248790E0,4.177435450E0
7.865831125E0,-3.195379978E0,-1.818521782E0,-2.852900371E0,4.653656111E0
7.875817125E0,-3.672215737E0,-1.720339723E0,-3.384938816E0,5.282286244E0
7.885803125E0,-4.291103168E0,-1.851838925E0,-3.777822298E0,6.009560310E0
7.895789125E0,-4.905214593E0,-1.900980095E0,-3.904695184E0,6.551450221E0
7.905775125E0,-5.307982501E0,-1.980097016E0,-3.915424532E0,6.886654608E0
7.915761125E0,-5.244599853E0,-2.158689985E0,-3.630716878E0,6.734083094E0
7.925747125E0,-4.923839144E0,-2.321836657E0,-3.341240526E0,6.387409932E0
7.935733125E0,-4.194722342E0,-2.353544938E0,-3.454839063E0,5.922058954E0
7.945719125E0,-3.180207038E0,-2.407090669E0,-3.687606778E0,5.431965210E0
7.955705125E0,-2.000742949E0,-2.211199736E0,-3.777247809E0,4.812481442E0
7.965691125E0,-1.013753412E0,-1.813185760E0,-3.914487516E0,4.431540487E0
7.975677125E0,-3.277650887E-1,-1.476726300E0,-3.852077259E0,4.138435662E0
7.985663125E0,1.887294102E-1,-1.367488909E0,-3.705086736E0,3.953898384E0
7.995649125E0,5.789310676E-1,-1.401050612E0,-3.349904346E0,3.676950248E0
8.005635125E0,1.124371623E0,-1.720933361E0,-2.951816549E0,3.597088283E0
8.015621125E0,1.637377088E0,-1.812464798E0,-2.433669042E0,3.448010641E0
8.025606125E0,1.834525319E0,-1.592769411E0,-2.017564219E0,3.157999829E0
8.035592125E0,1.860484033E0,-1.666060166E0,-1.965576917E0,3.178151968E0
8.045578125E0,2.009885656E0,-1.839838246E0,-2.244846661E0,3.530436467E0
8.055564125E0,2.632546880E0,-2.114341047E0,-2.533789746E0,4.221472683E0
8.065550125E0,3.355887217E0,-2.072431567E0,-2.736044936E0,4.800301397E0
8.075536125E0,4.180987818E0,-2.377236102E0,-3.361329805E0,5.867746473E0
8.085522125E0,4.797989522E0,-2.348562233E0,-4.120001943E0,6.746174029E0
8.095508125E0,4.776513283E0,-2.102629220E0,-4.627091780E0,6.974676131E0
8.105494125E0,4.320391286E0,-2.394325467E0,-4.609527329E0,6.756205851E0
8.115480125E0,3.403841987E0,-2.750844531E0,-4.392894421E0,6.200871495E0
8.125466125E0,2.555143193E0,-3.444155323E0,-4.413616661E0,6.153939767E0
8.135452125E0,1.691463248E0,-3.570398463E0,-3.863621417E0,5.525971730E0
8.145438125E0,8.633624411E-1,-3.431844595E0,-2.902025169E0,4.576538223E0
8.155424125E0,6.260075855E-1,-3.994741135E0,-1.675771953E0,4.376991418E0
8.165410125E0,1.026944731E0,-4.564994058E0,-2.456725198E-1,4.685524647E0
8.175396125E0,1.638280483E0,-4.766051445E0,1.170722355E0,5.173954015E0
8.185382125E0,2.288938175E0,-4.850381743E0,2.518104005E0,5.925056017E0
8.195367125E0,3.048285667E0,-5.022314442E0,3.559198413E0,6.869030587E0
8.205353125E0,3.684352217E0,-5.026619162E0,4.326077119E0,7.586586498E0
8.215339125E0,4.143845719E0,-4.560655131E0,4.769099599E0,7.792005105E0
8.225325125E0,4.132975745E0,-4.111413553E0,4.649370257E0,7.456665052E0
8.235311125E0,3.817379297E0,-3.962043798E0,4.022700766E0,6.815592213E0
8.245297125E0,3.795046442E0,-4.040583014E0,3.429750999E0,6.518579638E0
8.255283125E0,4.355734196E0,-4.013316570E0,3.546358513E0,6.903317245E0
8.265269125E0,5.193785795E0,-3.683531561E0,4.364935960E0,7.719875749E0
8.275255125E0,5.622732857E0,-3.456001489E0,5.249982215E0,8.433349533E0
8.285241125E0,5.523851763E0,-3.678474889E0,5.937622962E0,8.905025673E0
8.295227125E0,4.802422296E0,-3.906342929E0,6.571640064E0,9.028246126E0
8.305213125E0,3.648086616E0,-4.373290169E0,6.692546450E0,8.787740372E0
8.315199125E0,2.051703188E0,-4.600717329E0,6.460519577E0,8.192337830E0
8.325185125E0,3.027787668E-1,-4.427173138E0,5.997183870E0,7.460412277E0
8.335171125E0,-1.355516735E0,-4.198252891E0,5.289163238E0,6.887525007E0
8.345157125E0,-2.840245242E0,-3.615478449E0,4.422146287E0,6.379189230E0
8.355143125E0,-3.994077476E0,-2.708207511E0,3.559624383E0,5.996496357E0
8.365129125E0,-4.817710426E0,-1.826298872E0,3.060571836E0,5.992729034E0
8.375114125E0,-5.220812795E0,-1.276821106E0,2.509147825E0,5.931524356E0
8.385100125E0,-5.476543695E0,-6.529877349E-1,2.023497974E0,5.874816412E0
8.395086125E0,-5.377978935E0,-1.878550687E-1,1.704126563E0,5.644642973E0
8.405072125E0,-4.979163160E0,1.396245662E-1,1.493617444E0,5.200235943E0
8.415058125E0,-4.359619671E0,1.694257048E-1,1.288293636E0,4.549141594E0
8.425044125E0,-3.520213857E0,2.185847451E-1,1.083383884E0,3.689634878E0
8.435030125E0,-2.515451708E0,3.606153309E-1,9.269123928E-1,2.704941274E0
8.445016125E0,-1.552317642E0,5.518745390E-1,9.817228767E-1,1.917820475E0
8.455002125E0,-9.257335210E-1,8.032999881E-1,1.160065366E0,1.687609278E0
8.464988125E0,-5.250787961E-1,9.515516093E-1,1.286241263E0,1.683916505E0
8.474974125E0,-2.375062984E-1,8.650229041E-1,1.455527512E0,1.709746825E0
8.484960125E0,-2.554747921E-1,6.921394484E-1,1.612884417E0,1.773617921E0
8.494946125E0,-6.605470884E-1,5.094519661E-1,1.686405991E0,1.881443310E0
8.504932125E0,-1.142465247E0,2.187015067E-1,1.675387498E0,2.039603015E0
8.514918125E0,-1.255751542E0,-3.638663097E-1,1.554416792E0,2.031138152E0
8.524904125E0,-1.097232356E0,-8.189685526E-1,1.275542028E0,1.871265828E0
8.534890125E0,-8.198796219E-1,-7.177857748E-1,8.602061141E-1,1.388298805E0
8.544876125E0,-4.782618946E-1,-4.676510620E-1,4.952451690E-1,8.322858481E-1
8.554861125E0,-5.465860248E-2,-4.737030398E-1,2.127860248E-1,5.221685792E-1
8.564847125E0,1.897105730E-1,-4.883718035E-1,7.675292809E-2,5.295168854E-1
8.574833125E0,1.371376723E-1,-4.071524067E-1,-4.857398987E-2,4.323647256E-1
8.584819125E0,-9.296488166E-3,-3.027148859E-1,-6.825103998E-2,3.104527843E-1
8.594805125E0,-2.075644612E-1,-2.733063513E-1,7.717738112E-2,3.517608782E-1
8.604791125E0,-3.851210117E-1,-4.604395447E-1,3.103526652E-1,6.757525766E-1
8.614777125E0,-3.667139769E-1,-7.049796416E-1,5.079616570E-1,9.431333315E-1
8.624763125E0,-1.861063492E-1,-7.149644932E-1,6.144499791E-1,9.609154888E-1
8.634749125E0,8.961208820E-2,-6.366183816E-1,7.022213638E-1,9.520651941E-1
8.644735125E0,3.747971678E-1,-7.571134163E-1,5.973749399E-1,1.034674084E0
8.654721125E0,6.333785856E-1,-8.860649867E-1,4.643016672E-1,1.183999844E0
8.664707125E0,7.494528329E-1,-8.821277641E-1,3.923376453E-1,1.222193834E0
8.674693125E0,8.715187222E-1,-9.040907831E-1,3.144685203E-1,1.294532919E0
8.684679125E0,8.855175412E-1,-7.797164863E-1,1.812987868E-1,1.193720388E0
8.694665125E0,7.292834473E-1,-6.427326688E-1,4.119131366E-2,9.729626685E-1
8.704651125E0,5.549130446E-1,-5.432552315E-1,-6.396853924E-4,7.765662514E-1
8.714637125E0,4.272273964E-1,-5.127780451E-1,6.661964854E-2,6.707479030E-1
8.724622125E0,2.962836796E-1,-5.764118313E-1,1.388976659E-1,6.628176066E-1
8.734608125E0,1.978376180E-1,-5.417360152E-1,2.833642201E-1,6.425830020E-1
8.744594125E0,2.380068201E-1,-5.665738544E-1,4.381944706E-1,7.547632562E-1
8.754580125E0,2.832373720E-1,-5.728001158E-1,4.778771843E-1,7.979285588E-1
8.764566750E0,2.634708595E-1,-5.298349579E-1,6.116105711E-1,8.510049748E-1
8.774552750E0,2.116931802E-1,-4.775913651E-1,7.858815712E-1,9.436722728E-1
8.784538750E0,3.607357836E-1,-6.267207266E-1,7.571599017E-1,1.046995841E0
8.794524750E0,5.736217958E-1,-7.951638798E-1,7.397938174E-1,1.228259929E0
8.804510750E0,9.519717318E-1,-7.169898225E-1,8.762215646E-1,1.479218988E0
8.814496750E0,1.597799624E0,-6.648523933E-1,1.214925624E0,2.114482588E0
8.824482750E0,2.001198447E0,-7.588762788E-1,1.589624047E0,2.666006947E0
8.834468750E0,2.178822826E0,-7.988581507E-1,1.803662546E0,2.939156653E0
8.844454750E0,2.140285581E0,-8.423877476E-1,1.855807430E0,2.955412104E0
8.854440750E0,2.146897028E0,-9.694179960E-1,1.929729538E0,3.045126301E0
8.864426750E0,2.266246886E0,-1.091138461E0,2.043559917E0,3.240770776E0
8.874412750E0,2.606151379E0,-1.094976793E0,2.457980595E0,3.746020260E0
8.884398750E0,2.732093387E0,-1.178261463E0,3.017619359E0,4.237766033E0
8.894383750E0,2.562614765E0,-1.296638197E0,3.491676521E0,4.521069561E0
8.904369750E0,2.213848232E0,-1.495683558E0,3.938207331E0,4.758956848E0
8.914355750E0,1.476314363E0,-1.759615909E0,4.074238125E0,4.677089752E0
8.924341750E0,5.023413134E-1,-2.092661472E0,4.008029518E0,4.549272408E0
8.934327750E0,-3.451342428E-1,-2.365471212E0,4.119458152E0,4.762825544E0
8.944313750E0,-1.097210721E0,-2.597251624E0,4.390616931E0,5.217959793E0
8.954299750E0,-1.752578346E0,-2.951656920E0,4.733624249E0,5.847307753E0
8.964285750E0,-2.311101462E0,-3.343030944E0,5.277199250E0,6.660771560E0
8.974271750E0,-2.647439153E0,-3.487228544E0,5.618698279E0,7.123164138E0
8.984257750E0,-2.603888506E0,-3.289195629E0,5.374416811E0,6.817873518E0
8.994243750E0,-2.268090513E0,-2.919154587E0,4.691809640E0,5.973171333E0
9.004229750E0,-1.903797868E0,-2.405262684E0,3.607381809E0,4.735286519E0
9.014215750E0,-1.684964068E0,-1.826082817E0,2.453377082E0,3.491810630E0
9.024201750E0,-1.620289185E0,-1.287828490E0,1.485357667E0,2.547572700E0
9.034187750E0,-1.639236503E0,-1.032118347E0,9.040321648E-1,2.137671338E0
9.044173750E0,-1.958202701E0,-1.306384921E0,6.491356623E-1,2.441838752E0
9.054159750E0,-2.629846635E0,-1.532284496E0,6.437316656E-1,3.111009412E0
9.064145750E0,-3.296000619E0,-1.537096463E0,7.974415165E-1,3.723197361E0
9.074130750E0,-3.945593534E0,-1.673560828E0,8.720575431E-1,4.373671059E0
9.084116750E0,-4.564406705E0,-2.054047044E0,1.087824771E0,5.122136328E0
9.094102750E0,-5.041149493E0,-2.656052979E0,1.178368320E0,5.818621618E0
9.104088750E0,-5.102310784E0,-3.345471279E0,8.332051340E-1,6.157920445E0
9.114074750E0,-4.665371747E0,-3.998500018E0,-3.924683306E-1,6.156925151E0
9.124060750E0,-3.805049273E0,-3.993079357E0,-2.225545295E0,5.947784006E0
9.134046750E0,-2.683424672E0,-3.133516436E0,-4.269694172E0,5.937169490E0
9.144032750E0,-1.850241466E0,-1.880591146E0,-5.788554046E0,6.361397212E0
9.154018750E0,-1.874726096E0,-8.015409994E-1,-6.415684297E0,6.731869793E0
9.164004750E0,-2.589613114E0,-4.768597323E-1,-6.539720113E0,7.049924145E0
9.173990750E0,-3.913154351E0,-5.458261791E-1,-5.999165491E0,7.183362011E0
9.183976750E0,-5.033621203E0,-8.931990284E-1,-5.170931368E0,7.271428892E0
9.193962750E0,-5.296777482E0,-1.458177616E0,-4.802160925E0,7.296772109E0
9.203948750E0,-4.633990910E0,-1.485900581E0,-4.532848697E0,6.650450331E0
9.213934750E0,-3.207907053E0,-1.412225518E0,-4.507412724E0,5.709800175E0
9.223920750E0,-1.595807478E0,-1.027396063E0,-4.197511757E0,4.606652703E0
9.233906750E0,-2.867649972E-2,-1.063737166E0,-3.890862426E0,4.033753775E0
9.243892750E0,1.059876834E0,-1.270890568E0,-3.421560804E0,3.800734150E0
9.253877750E0,1.229691671E0,-1.142378562E0,-2.654571002E0,3.140687439E0
9.263863750E0,8.060936415E-1,-1.219053759E0,-1.830035096E0,2.341987933E0
9.273849750E0,3.968476027E-1,-1.470573713E0,-1.478556771E0,2.122782417E0
9.283835750E0,3.359552836E-1,-1.688356330E0,-1.494513091E0,2.279689108E0
9.293821750E0,6.026678395E-1,-1.592442259E0,-1.254311373E0,2.114799729E0
9.303807750E0,9.290143937E-1,-1.631287213E0,-1.042963763E0,2.147542578E0
9.313793750E0,1.049472299E0,-1.833812251E0,-1.142186335E0,2.401842855E0
9.323779750E0,9.424109495E-1,-1.973529715E0,-1.333059188E0,2.561250619E0
9.333765750E0,7.649748516E-1,-2.126768573E0,-1.665632004E0,2.807607711E0
9.343751750E0,1.069393178E0,-2.522401124E0,-2.047661592E0,3.420384072E0
9.353737750E0,2.045255463E0,-2.710986108E0,-2.103597811E0,3.994701408E0
9.363723750E0,3.296145045E0,-2.798694635E0,-2.085943752E0,4.800877540E0
9.373709750E0,4.640314089E0,-3.023349338E0,-1.806779112E0,5.825599268E0
9.383695750E0,5.564925529E0,-3.070255410E0,-1.547560932E0,6.541391998E0
9.393681750E0,5.653459391E0,-3.076213723E0,-1.749845358E0,6.669831537E0
9.403667750E0,4.835095367E0,-3.165431709E0,-2.335590186E0,6.233224417E0
9.413653750E0,3.492041972E0,-3.309786599E0,-3.042142582E0,5.692422679E0
9.423639750E0,2.148310885E0,-3.296474243E0,-3.596953885E0,5.331046740E0
9.433624750E0,1.147234821E0,-3.211270956E0,-3.962277394E0,5.227623842E0
9.443610750E0,4.094629705E-1,-3.229720091E0,-4.200063774E0,5.314065063E0
9.453596750E0,-8.490624905E-2,-3.557293391E0,-4.372259012E0,5.637215111E0
9.463582750E0,-2.952054530E-1,-3.831938864E0,-4.069421189E0,5.597418202E0
9.473568750E0,-1.816443390E-1,-4.121839723E0,-3.395202141E0,5.343215787E0
9.483554750E0,3.942847681E-1,-4.448298544E0,-2.585370959E0,5.160132111E0
9.493540750E0,1.286376334E0,-4.711694559E0,-1.745219625E0,5.186580880E0
9.503526750E0,2.002003609E0,-4.869891563E0,-9.688449689E-1,5.353739148E0
9.513512750E0,2.365363038E0,-4.979739110E0,-1.144333725E-1,5.514148974E0
9.523498750E0,2.437096680E0,-5.212137281E0,9.328810112E-1,5.828900604E0
9.533484750E0,2.369171330E0,-5.284463831E0,2.384589268E0,6.262970281E0
9.543470750E0,1.859118708E0,-5.475840860E0,3.726824345E0,6.879707494E0
9.553456750E0,9.184823889E-1,-5.487134757E0,5.148695576E0,7.580324787E0
9.563442750E0,3.650942981E-2,-5.542832994E0,6.359699546E0,8.436237838E0
9.573428750E0,-8.405454361E-1,-5.500733042E0,7.329227543E0,9.202290856E0
9.583414750E0,-1.485752354E0,-5.500854664E0,8.111687908E0,9.912938152E0
9.593400750E0,-1.941605380E0,-5.367438744E0,8.661892190E0,1.037340862E1
9.603386750E0,-2.045494030E0,-5.035678838E0,9.118770232E0,1.061574669E1
9.613371750E0,-1.978574985E0,-4.520341795E0,9.388021649E0,1.060580970E1
9.623357750E0,-1.847763416E0,-3.821354234E0,9.128071983E0,1.006671128E1
9.633343750E0,-1.672506575E0,-3.067035056E0,8.460904677E0,9.153736408E0
9.643329750E0,-1.573483393E0,-2.383921224E0,7.631911000E0,8.148926058E0
9.653315750E0,-1.496843353E0,-1.884084273E0,6.727052039E0,7.144476377E0
9.663301750E0,-1.539582991E0,-1.469126820E0,5.714143549E0,6.097547532E0
9.673287750E0,-1.602332970E0,-1.285429085E0,4.413656130E0,4.868280940E0
9.683273750E0,-1.713854576E0,-1.172051062E0,3.177740682E0,3.795923740E0
9.693259750E0,-1.852425985E0,-1.100303314E0,2.144979726E0,3.040244635E0
9.703245750E0,-1.811109560E0,-8.826429038E-1,1.200562012E0,2.345319909E0
9.713231750E0,-1.476726007E0,-6.447490811E-1,2.460098859E-1,1.630012866E0
9.723217750E0,-1.107638061E0,-5.361806121E-1,-5.466994607E-1,1.346563041E0
9.733203750E0,-8.190925866E-1,-3.498765539E-1,-1.073648781E0,1.395008234E0
9.743189750E0,-5.365633124E-1,-1.226279894E-1,-1.152068714E0,1.276792909E0
9.753175750E0,-4.758768153E-1,2.176790480E-2,-8.298426926E-1,9.568549940E-1
9.763161167E0,-8.395011234E-1,3.343803361E-2,-4.678304619E-1,9.616369270E-1
9.773147167E0,-1.344379544E0,-8.642235897E-2,-1.892516031E-1,1.360382796E0
9.783132167E0,-1.868017001E0,-1.480139320E-1,2.202973580E-1,1.886776767E0
9.793118167E0,-2.176714904E0,-3.105964941E-1,6.114357394E-1,2.282194475E0
9.803104167E0,-2.027598626E0,-4.265426143E-1,8.529152209E-1,2.240660430E0
9.813090167E0,-1.454109562E0,-4.912012712E-1,1.068037793E0,1.869871128E0
9.823076167E0,-6.353151834E-1,-4.813142873E-1,1.298757228E0,1.523830425E0
9.833062167E0,1.388205010E-1,-2.938499223E-1,1.510469120E0,1.545035880E0
9.843048167E0,6.335545868E-1,-1.881214094E-1,1.567114021E0,1.700772599E0
9.853034167E0,7.541943401E-1,-2.022342125E-1,1.488115799E0,1.680534561E0
9.863020167E0,5.501113111E-1,-3.382735950E-1,1.331633783E0,1.479966220E0
9.873006167E0,2.791823280E-1,-6.065778361E-1,1.033414090E0,1.230375603E0
9.882992167E0,6.510172963E-2,-6.894158153E-1,6.465691732E-1,9.474091499E-1
9.892978167E0,-4.190290153E-2,-7.777486789E-1,1.420382237E-1,7.917219952E-1
9.902964167E0,-5.173265576E-2,-8.689130567E-1,-3.784551859E-1,9.491651571E-1
9.912950167E0,-4.737998843E-2,-6.420171889E-1,-4.293809259E-1,7.738209830E-1
9.922936167E0,3.470907211E-2,-3.157111998E-1,-5.146602273E-2,3.217561699E-1
9.932922167E0,2.271994114E-2,-2.276693448E-1,1.988522561E-1,3.031365139E-1
9.942908167E0,3.223979294E-2,-1.792372961E-1,3.024470834E-1,3.530434121E-1
9.952894167E0,4.578603745E-2,-1.271869538E-1,2.897979480E-1,3.197745035E-1
9.962880167E0,2.615810394E-2,-1.687964347E-1,1.951794738E-1,2.593675187E-1
9.972865167E0,1.512265384E-1,-2.599729455E-1,9.936699808E-2,3.167478471E-1
9.982851167E0,5.299050879E-1,-5.412710885E-1,-1.148083252E-1,7.661297181E-1
9.992837167E0,8.593360484E-1,-5.930330168E-1,-3.313967943E-1,1.095431622E0
1.000282317E1,1.175590893E0,-5.430555856E-1,-7.059270367E-1,1.474875011E0
1.001280917E1,1.570639307E0,-5.909318199E-1,-1.100455049E0,2.006765947E0
1.002279517E1,1.937597698E0,-6.757664406E-1,-1.387751266E0,2.477256284E0
1.003278117E1,2.120334297E0,-4.911354169E-1,-1.488882954E0,2.637006632E0
1.004276717E1,2.119291738E0,-2.905485478E-1,-1.410643700E0,2.562368353E0
1.005275317E1,2.100543811E0,-4.370814896E-1,-1.226992012E0,2.471605536E0
1.006273917E1,2.010280927E0,-5.514338782E-1,-8.449717784E-1,2.249285672E0
1.007272517E1,2.054540842E0,-6.133096989E-1,-3.676547939E-1,2.175421087E0
1.008271117E1,2.189729052E0,-6.303978212E-1,2.906940338E-1,2.297132507E0
1.009269717E1,2.285121113E0,-6.896008066E-1,1.081510070E0,2.620494573E0
1.010268317E1,2.588706211E0,-8.821230132E-1,2.057222375E0,3.422236806E0
1.011266917E1,2.919313631E0,-1.140189511E0,3.205738613E0,4.483211377E0
1.012265517E1,2.984522949E0,-1.615202985E0,4.076284651E0,5.303994200E0
1.013264117E1,2.841688335E0,-2.071639562E0,4.807108254E0,5.956103830E0
1.014262717E1,2.302527689E0,-2.229756898E0,5.548181443E0,6.407477421E0
1.015261217E1,1.353169078E0,-2.427543499E0,5.922023175E0,6.541742312E0
1.016259817E1,4.262684530E-1,-2.752411877E0,6.005109186E0,6.619577953E0
1.017258417E1,-4.310374421E-1,-2.987724300E0,5.886806565E0,6.615646703E0
1.018257017E1,-8.811327142E-1,-3.045196583E0,5.403660491E0,6.264915306E0
1.019255617E1,-1.075083103E0,-2.991683450E0,4.313193364E0,5.358134987E0
1.020254217E1,-1.061224033E0,-2.699686656E0,3.294499931E0,4.389559692E0
1.021252817E1,-9.953604108E-1,-2.093070484E0,2.621685677E0,3.499274523E0
1.022251417E1,-9.554894167E-1,-1.631152142E0,2.422963960E0,3.073169648E0
1.023250017E1,-1.462134281E0,-1.734957469E0,3.014885201E0,3.773254146E0
1.024248617E1,-2.309817413E0,-2.394409959E0,3.784372934E0,5.038842530E0
1.025247217E1,-2.924265053E0,-3.034830639E0,4.627692582E0,6.259158229E0
1.026245817E1,-3.199747848E0,-3.347921555E0,5.329630648E0,7.060589768E0
1.027244417E1,-3.300490111E0,-3.476580180E0,5.538510733E0,7.324953642E0
1.028243017E1,-3.257034774E0,-3.490254478E0,5.431855180E0,7.231542197E0
1.029241617E1,-3.348874066E0,-3.392103701E0,5.260176251E0,7.098646295E0
1.030240217E1,-3.615661467E0,-3.461962726E0,4.893384798E0,7.000243463E0
1.031238817E1,-3.434085540E0,-3.563628849E0,4.240304604E0,6.517098834E0
1.032237417E1,-2.905154014E0,-3.540332372E0,3.626323572E0,5.841583330E0
1.033236017E1,-2.449141944E0,-3.379561424E0,2.632436952E0,4.934516793E0
1.034234517E1,-2.124724386E0,-3.147702366E0,1.046817663E0,3.939328765E0
1.035233117E1,-1.915271274E0,-2.777444392E0,-4.988657284E-1,3.410473342E0
1.036231717E1,-2.092567039E0,-2.222215598E0,-1.722319297E0,3.504777131E0
1.037230317E1,-2.490413931E0,-1.747935072E0,-2.458248398E0,3.911575610E0
1.038228917E1,-3.117140724E0,-1.541427788E0,-2.583068618E0,4.331836724E0
1.039227517E1,-3.947917802E0,-1.614038512E0,-2.400195633E0,4.894089738E0
1.040226117E1,-4.581830238E0,-2.111581600E0,-2.347358292E0,5.564354063E0
1.041224717E1,-5.113135149E0,-2.802452933E0,-2.630748861E0,6.396775209E0
1.042223317E1,-5.229303537E0,-3.068908212E0,-3.003783093E0,6.766574167E0
1.043221917E1,-4.590602231E0,-2.797512036E0,-3.152849085E0,6.232187400E0
1.044220517E1,-3.919924257E0,-2.248145075E0,-3.136440629E0,5.500656531E0
1.045219117E1,-3.417948394E0,-1.548376619E0,-3.099046515E0,4.866613883E0
1.046217717E1,-3.062734137E0,-1.067324140E0,-3.041570140E0,4.446422171E0
1.047216317E1,-3.244895369E0,-1.321055000E0,-2.872725940E0,4.530682796E0
1.048214917E1,-3.502277523E0,-2.387321087E0,-2.491691548E0,4.916683495E0
1.049213517E1,-3.175901733E0,-3.644692892E0,-2.191866794E0,5.307958001E0
1.050212117E1,-2.006000766E0,-3.794536564E0,-2.205199615E0,4.825500197E0
1.051210717E1,-2.228192621E-1,-2.794972590E0,-2.716253280E0,3.903786890E0
1.052209217E1,1.303504583E0,-1.620188613E0,-3.679862140E0,4.226762438E0
1.053207817E1,1.995949987E0,-1.228814443E0,-4.779148039E0,5.322974475E0
1.054206417E1,2.374206367E0,-1.658025215E0,-5.534289628E0,6.246140022E0
1.055205017E1,3.063030590E0,-1.925768781E0,-5.646211767E0,6.706000978E0
1.056203617E1,3.605709506E0,-1.780246932E0,-5.242933981E0,6.607478862E0
1.057202217E1,3.495905228E0,-1.856948514E0,-4.816471401E0,6.234421216E0
1.058200817E1,2.755457107E0,-2.232611362E0,-4.442205160E0,5.684213582E0
1.059199417E1,2.092935998E0,-3.023866817E0,-4.142835905E0,5.539606571E0
1.060198017E1,2.096120977E0,-3.554488481E0,-3.745759091E0,5.573044292E0
1.061196617E1,2.255227808E0,-3.447138280E0,-3.358360589E0,5.314828373E0
1.062195217E1,2.388556604E0,-3.428640613E0,-3.197144668E0,5.261417407E0
1.063193817E1,2.272853070E0,-3.418568784E0,-2.816127232E0,4.978257345E0
1.064192417E1,1.704347588E0,-3.659901500E0,-2.391515295E0,4.692443404E0
1.065191017E1,1.251732751E0,-4.044847680E0,-2.197203548E0,4.770254822E0
1.066189617E1,1.159470119E0,-4.033343284E0,-2.020920521E0,4.657933958E0
1.067188217E1,1.266726181E0,-3.939794557E0,-1.686826991E0,4.469000075E0
1.068186817E1,1.493452553E0,-4.181940037E0,-1.464335757E0,4.675821020E0
1.069185417E1,2.130686207E0,-4.468979561E0,-1.448112073E0,5.158355417E0
1.070184017E1,3.231276035E0,-4.450445934E0,-1.262343693E0,5.642794115E0
1.071182517E1,3.989737088E0,-4.297012071E0,-9.966030903E-1,5.947733391E0
1.072181117E1,4.110913616E0,-4.195105043E0,-7.092485476E-1,5.916210829E0
1.073179717E1,3.801303547E0,-4.402285050E0,-2.699308634E-1,5.822618396E0
1.074178317E1,3.505287670E0,-4.651059225E0,2.944154942E-1,5.831472717E0
1.075176917E1,3.229459305E0,-4.721634241E0,9.179453221E-1,5.793605175E0
1.076175538E1,3.392553937E0,-4.749724557E0,1.869096397E0,6.128852007E0
1.077174138E1,4.062247240E0,-4.777077540E0,3.227388806E0,7.052542872E0
1.078172738E1,4.630490182E0,-4.971374084E0,4.420186008E0,8.105186238E0
1.079171338E1,4.905422754E0,-4.931707157E0,5.759682834E0,9.030994089E0
1.080169938E1,4.733556713E0,-4.675583617E0,7.226329411E0,9.822803982E0
1.081168538E1,4.105617208E0,-4.534599061E0,8.485437255E0,1.046046494E1
1.082167138E1,3.093098727E0,-4.426762956E0,9.450206788E0,1.088438783E1
1.083165738E1,1.918301302E0,-3.945588856E0,9.999475515E0,1.091957242E1
1.084164338E1,8.013614899E-1,-3.300899709E0,9.982138520E0,1.054425002E1
1.085162938E1,-9.405538738E-2,-2.791286798E0,9.220080260E0,9.633795120E0
1.086161538E1,-7.751267874E-1,-2.383200993E0,7.747066065E0,8.142327746E0
1.087160138E1,-1.190810611E0,-1.627885595E0,5.919234638E0,6.253429469E0
1.088158738E1,-1.373622054E0,-9.425755486E-1,4.098475126E0,4.424113987E0
1.089157238E1,-1.389825273E0,-4.921269951E-1,2.878034627E0,3.233710962E0
1.090155838E1,-1.300409651E0,-1.286503474E-1,2.147608634E0,2.513929000E0
1.091154438E1,-1.161165227E0,8.707567569E-2,1.707784727E0,2.066982229E0
1.092153038E1,-1.041972660E0,1.042200409E-1,1.544318943E0,1.865875087E0
1.093151638E1,-1.096748207E0,1.010591092E-1,1.578149617E0,1.924480654E0
1.094150238E1,-1.321439162E0,3.773018226E-2,1.641713676E0,2.107806637E0
1.095148838E1,-1.385876648E0,-2.184013253E-1,1.692442364E0,2.198343554E0
1.096147438E1,-1.210412232E0,-2.664658034E-1,1.754450917E0,2.148068857E0
1.097146038E1,-8.919927478E-1,-1.639956149E-1,1.770469218E0,1.989247817E0
1.098144638E1,-6.745880073E-1,-1.831717048E-1,1.770221442E0,1.903235353E0
1.099143238E1,-5.941525394E-1,-2.127134462E-1,1.737640610E0,1.848691197E0
1.100141838E1,-5.381233495E-1,-1.897162009E-1,1.751967458E0,1.842541438E0
1.101140438E1,-3.767489684E-1,-3.032502716E-1,1.724031801E0,1.790582632E0
1.102139038E1,-5.443465412E-2,-6.714351887E-1,1.581699901E0,1.719175070E0
1.103137638E1,2.059757727E-1,-7.869341431E-1,1.267214277E0,1.505829801E0
1.104136238E1,2.260287988E-1,-6.822859398E-1,9.070901124E-1,1.157331238E0
1.105134838E1,-1.514539951E-1,-5.492618568E-1,6.475757714E-1,8.625434944E-1
1.106133438E1,-3.317505509E-1,-6.374185731E-1,4.379646385E-1,8.415306826E-1
1.107131938E1,-3.107806814E-1,-7.927190128E-1,2.654846406E-1,8.918913384E-1
1.108130538E1,-3.012234074E-1,-6.561064935E-1,2.899729259E-1,7.780074356E-1
1.109129138E1,-2.228707176E-1,-5.051732661E-1,3.768401849E-1,6.684907707E-1
1.110127738E1,-1.553570116E-1,-5.578234962E-1,3.774660563E-1,6.912188348E-1
1.111126338E1,-1.933533883E-1,-6.566840523E-1,3.874424294E-1,7.865946309E-1
1.112124938E1,-2.243132257E-1,-7.942822659E-1,4.033550421E-1,9.186381394E-1
1.113123538E1,-4.487270236E-2,-9.002151755E-1,2.953511218E-1,9.484899614E-1
1.114122138E1,6.294936955E-2,-7.314975686E-1,1.906240542E-1,7.585438985E-1
1.115120738E1,1.265284842E-1,-5.252323586E-1,9.851396240E-2,5.491661758E-1
1.116119338E1,-4.324834585E-2,-5.068444003E-1,1.971695736E-2,5.090681919E-1
1.117117938E1,-3.240667248E-1,-5.017668975E-1,2.443204243E-2,5.978178537E-1
1.118116538E1,-2.974630630E-1,-3.904614200E-1,1.743792101E-1,5.209150634E-1
1.119115138E1,-1.847129577E-1,-3.783970061E-1,2.921491500E-1,5.124980944E-1
1.120113738E1,4.718703032E-4,-4.208201636E-1,4.264994180E-1,5.991590660E-1
1.121112338E1,3.403985828E-1,-4.949617618E-1,3.838404715E-1,7.128757594E-1
1.122110938E1,6.180325681E-1,-5.669560430E-1,1.452974617E-1,8.511843292E-1
1.123109538E1,8.663158697E-1,-7.411823118E-1,-2.787566507E-1,1.173694882E0
1.124108138E1,1.113942529E0,-7.815162592E-1,-7.715681720E-1,1.564273974E0
1.125106738E1,1.159047366E0,-6.715434352E-1,-1.231260479E0,1.819440504E0
1.126105238E1,1.032744584E0,-6.741408415E-1,-1.422071498E0,1.882369410E0
1.127103838E1,1.085049682E0,-5.979629505E-1,-1.251279007E0,1.760849697E0
1.128102437E1,1.220291687E0,-5.568821675E-1,-8.560440660E-1,1.591238823E0
1.129101038E1,1.413451533E0,-5.587959612E-1,-2.519910210E-1,1.540648447E0
1.130099638E1,1.881582541E0,-6.488481986E-1,4.241459137E-1,2.035007764E0
1.131098238E1,2.565267062E0,-7.352959929E-1,9.572605383E-1,2.835066672E0
1.132096838E1,3.577063996E0,-7.928416581E-1,1.479657217E0,3.951375736E0
1.133095438E1,4.616238179E0,-8.569476070E-1,2.164505333E0,5.170019097E0
1.134094038E1,5.259657018E0,-9.329638955E-1,2.831868521E0,6.045981550E0
1.135092638E1,5.127366688E0,-1.367800420E0,3.358881576E0,6.280354495E0
1.136091238E1,4.487041610E0,-1.982845645E0,3.924491517E0,6.282264952E0
1.137089838E1,3.432292784E0,-2.543961855E0,4.468045760E0,6.181893609E0
1.138088438E1,2.423932258E0,-3.005443702E0,4.583980259E0,5.993414257E0
1.139087038E1,1.516933216E0,-3.185978532E0,4.161407831E0,5.456084744E0
1.140085638E1,1.070789493E0,-3.032869483E0,3.508325883E0,4.759541778E0
1.141084238E1,1.086413253E0,-2.576516813E0,2.981513388E0,4.087560975E0
1.142082838E1,1.138496157E0,-2.117665920E0,2.699109828E0,3.614675133E0
1.143081438E1,1.075065562E0,-1.888115343E0,2.624930297E0,3.407492417E0
1.144080038E1,7.329268473E-1,-1.841584663E0,2.568062031E0,3.244003457E0
1.145078538E1,1.117677730E-1,-1.877988843E0,2.634436992E0,3.237219856E0
1.146077138E1,-5.462691057E-1,-1.847855802E0,2.924565893E0,3.502294485E0
1.147075738E1,-1.220029147E0,-1.989616283E0,3.065451922E0,3.852796330E0
1.148074338E1,-1.774604223E0,-2.032217926E0,3.136949629E0,4.137581760E0
1.149072938E1,-2.194750056E0,-2.004843602E0,3.328122298E0,4.462367500E0
1.150071538E1,-2.771345161E0,-2.083013273E0,3.420579057E0,4.870283296E0
1.151070138E1,-3.250275977E0,-2.279044102E0,3.382998709E0,5.215651082E0
1.152068738E1,-3.502965741E0,-2.388933749E0,3.199579156E0,5.311786913E0
1.153067338E1,-3.883679121E0,-2.431976858E0,2.853998770E0,5.398405684E0
1.154065938E1,-4.069657416E0,-2.389576943E0,2.335724379E0,5.265719118E0
1.155064538E1,-4.111998859E0,-2.314902737E0,1.702625290E0,5.016596673E0
1.156063138E1,-4.247335004E0,-2.168321811E0,1.028955881E0,4.878547357E0
1.157061738E1,-4.399833312E0,-1.997804139E0,3.763308924E-1,4.846790638E0
1.158060338E1,-4.632164825E0,-1.792803097E0,-2.169825715E-1,4.971737658E0
1.159058938E1,-4.876765550E0,-1.599095952E0,-6.966561301E-1,5.179312682E0
1.160057538E1,-5.003576455E0,-1.468962075E0,-9.794613929E-1,5.305937385E0
1.161056138E1,-5.072084772E0,-1.443698595E0,-1.072870078E0,5.381575956E0
1.162054738E1,-5.236017310E0,-1.557003016E0,-1.057770813E0,5.564082562E0
1.163053338E1,-5.246806008E0,-1.706145022E0,-1.100016362E0,5.625827949E0
1.164051838E1,-5.078764046E0,-1.782977436E0,-1.129410169E0,5.499856371E0
1.165050438E1,-4.899103668E0,-1.757480067E0,-9.991722107E-1,5.299839435E0
1.166049038E1,-4.812339758E0,-1.841927310E0,-8.353110087E-1,5.220062705E0
1.167047638E1,-4.620530620E0,-2.089158112E0,-6.581614975E-1,5.113419735E0
1.168046238E1,-4.137031959E0,-2.351713883E0,-7.255751431E-1,4.813735649E0
1.169044838E1,-3.516738857E0,-2.424336886E0,-9.684060623E-1,4.379802715E0
1.170043438E1,-2.815600398E0,-2.299853465E0,-1.288206512E0,3.856994630E0
1.171042038E1,-1.962112150E0,-2.016311161E0,-1.546537669E0,3.210478710E0
1.172040638E1,-9.985173225E-1,-1.717192751E0,-1.676028353E0,2.599011125E0
1.173039238E1,-1.314647037E-1,-1.790476197E0,-1.701991745E0,2.473835864E0
1.174037838E1,7.409194064E-1,-2.312148406E0,-1.712709106E0,2.971256350E0
1.175036438E1,1.753840760E0,-2.738858616E0,-1.978182637E0,3.806640313E0
1.176035100E1,2.770316051E0,-2.764549527E0,-2.285414059E0,4.532163118E0
1.177033700E1,3.597959606E0,-2.691928278E0,-2.550442616E0,5.166870302E0
1.178032300E1,4.036871493E0,-2.402882428E0,-2.744870723E0,5.441000892E0
1.179030900E1,3.899064900E0,-1.995218646E0,-2.787025055E0,5.191446156E0
1.180029500E1,3.195625561E0,-1.900927470E0,-2.808414170E0,4.659692921E0
1.181028100E1,2.260110818E0,-1.868870402E0,-2.883670174E0,4.112946773E0
1.182026600E1,1.310520657E0,-1.929886682E0,-2.886385036E0,3.711218880E0
1.183025200E1,6.956292129E-1,-2.018774301E0,-2.872803124E0,3.579433959E0
1.184023800E1,2.266164440E-1,-1.904037458E0,-2.743879035E0,3.347474542E0
1.185022400E1,-1.986503810E-1,-1.833064100E0,-2.719561635E0,3.285666059E0
1.186021000E1,-4.794839627E-1,-1.905718971E0,-2.932886188E0,3.530366986E0
1.187019600E1,-3.834709275E-1,-2.067559083E0,-3.195102235E0,3.824987425E0
1.188018200E1,2.311176306E-1,-2.173948733E0,-3.061233741E0,3.761731047E0
1.189016800E1,8.066462034E-1,-2.043499690E0,-2.605652027E0,3.408224107E0
1.190015400E1,1.222709511E0,-2.127579874E0,-2.396083724E0,3.429698512E0
1.191014000E1,1.754654692E0,-2.408044643E0,-2.298701271E0,3.763179457E0
1.192012600E1,2.293657463E0,-2.458238750E0,-2.005898439E0,3.915026291E0
1.193011200E1,2.477729566E0,-2.344196118E0,-1.575946240E0,3.757393484E0
1.194009800E1,2.653300402E0,-2.542139862E0,-1.217221899E0,3.870931058E0
1.195008400E1,2.772111146E0,-3.088834645E0,-9.872327811E-1,4.266160831E0
1.196007000E1,2.836976649E0,-3.391880338E0,-8.166502047E-1,4.496688369E0
1.197005600E1,2.992455867E0,-3.229149987E0,-5.922960484E-1,4.442185989E0
1.198004200E1,2.761048214E0,-3.021514482E0,-4.679550076E-1,4.119698884E0
1.199002800E1,2.704672285E0,-3.024199816E0,-3.207023100E-1,4.069875510E0
1.200001400E1,2.624317508E0,-3.030639062E0,4.258768357E-2,4.009193088E0
1.201000000E1,2.504481162E0,-3.073510263E0,5.022782365E-1,3.996395208E0
1.201998500E1,2.696132426E0,-3.280830310E0,1.083006227E0,4.382451377E0
1.202997100E1,3.142715276E0,-3.445752782E0,1.717198745E0,4.969772939E0
1.203995700E1,4.048181178E0,-3.540781146E0,2.449094728E0,5.909565717E0
1.204994300E1,4.459942689E0,-3.771422521E0,3.140184016E0,6.631400476E0
1.205992900E1,4.363387617E0,-4.160062972E0,3.471347214E0,6.956689364E0
1.206991500E1,4.065727503E0,-4.617729219E0,3.722405897E0,7.190957441E0
1.207990100E1,3.506168845E0,-4.564982656E0,4.205804863E0,7.128890598E0
1.208988700E1,2.706891888E0,-4.144882430E0,4.638382754E0,6.783944916E0
1.209987300E1,1.856257666E0,-3.877197483E0,5.025671328E0,6.613299112E0
1.210985900E1,1.075186599E0,-3.626142601E0,5.559596962E0,6.724139704E0
1.211984500E1,4.412987208E-1,-3.430761690E0,6.034089156E0,6.955221225E0
1.212983100E1,2.985880673E-2,-3.247174614E0,6.273332663E0,7.063974605E0
1.213981700E1,1.229131508E-1,-3.368242676E0,6.053507760E0,6.928572909E0
1.214980300E1,8.442502320E-2,-2.687527956E0,5.426704953E0,6.056324029E0
1.215978900E1,-5.233959675E-2,-2.035797884E0,4.535812651E0,4.972002500E0
1.216977500E1,-2.397375959E-1,-1.602601065E0,3.732696412E0,4.069253837E0
1.217976100E1,-4.434920114E-1,-1.263518691E0,3.224398247E0,3.491404976E0
1.218974700E1,-7.631896967E-1,-8.967609329E-1,3.118984351E0,3.333871933E0
1.219973200E1,-1.358777143E0,-6.263130295E-1,3.384053839E0,3.700049151E0
1.220971800E1,-1.877346234E0,-6.632858511E-1,3.753982615E0,4.249324944E0
1.221970400E1,-2.308766084E0,-7.936498164E-1,3.957712473E0,4.650136436E0
1.222969000E1,-2.664952734E0,-7.220769732E-1,3.948201392E0,4.817848322E0
1.223967600E1,-2.606007537E0,-5.883029848E-1,3.747576406E0,4.602358592E0
1.224966200E1,-2.323459552E0,-5.069573978E-1,3.460388070E0,4.198780262E0
1.225964800E1,-1.990827241E0,-4.482601234E-1,3.112185209E0,3.721562443E0
1.226963400E1,-1.708285103E0,-2.974054679E-1,2.769061239E0,3.267168216E0
1.227962000E1,-1.499344207E0,-1.177741791E-1,2.386628777E0,2.820975138E0
1.228960600E1,-1.264367999E0,-3.167729080E-4,2.043423092E0,2.402957442E0
1.229959200E1,-9.139122051E-1,-4.475999728E-2,1.728731793E0,1.955953115E0
1.230957800E1,-4.950492507E-1,-3.105264737E-1,1.475450145E0,1.586963636E0
1.231956400E1,-9.803207874E-2,-4.045074552E-1,1.252522709E0,1.319867307E0
1.232955000E1,1.672625273E-1,-3.874014258E-1,9.380980432E-1,1.028632372E0
1.233953600E1,2.875917935E-1,-4.089291197E-1,6.133892941E-1,7.913144071E-1
1.234952200E1,2.373419917E-1,-4.231444319E-1,3.528841424E-1,5.999247029E-1
1.235950800E1,-9.672464132E-3,-3.894929749E-1,2.356030663E-1,4.553099372E-1
1.236949400E1,-3.170108896E-1,-3.604852304E-1,2.857838345E-1,5.586751342E-1
1.237948000E1,-5.737983817E-1,-4.344848143E-1,3.708701777E-1,8.096705042E-1
1.238946500E1,-6.422540742E-1,-6.460680668E-1,4.582965767E-1,1.019769579E0
1.239945100E1,-5.245478690E-1,-7.979315132E-1,5.330333483E-1,1.093604004E0
1.240943700E1,-3.453716397E-1,-7.737028442E-1,4.434101504E-1,9.563002783E-1
1.241942300E1,-7.560040534E-2,-6.435435314E-1,2.687970883E-1,7.015094959E-1
1.242940900E1,2.222783947E-1,-5.381468846E-1,1.639424783E-1,6.048858490E-1
1.243939500E1,4.587520748E-1,-6.065318258E-1,8.439227879E-2,7.651512129E-1
1.244938100E1,6.236827326E-1,-6.522592449E-1,1.201339875E-1,9.104144377E-1
1.245936700E1,7.104793864E-1,-6.293776283E-1,2.638100163E-1,9.851359714E-1
1.246935300E1,6.619621146E-1,-6.488808699E-1,4.330903995E-1,1.023136119E0
1.247933900E1,5.879445505E-1,-6.389667696E-1,6.364629918E-1,1.076588346E0
1.248932500E1,5.337069476E-1,-8.246747772E-1,8.006616513E-1,1.267276873E0
1.249931100E1,4.343621689E-1,-9.160246579E-1,8.836412428E-1,1.344839587E0
1.250929700E1,5.223499006E-1,-8.238684462E-1,8.807152230E-1,1.314255660E0
1.251928300E1,6.264993364E-1,-7.382611160E-1,7.476285017E-1,1.223306695E0
1.252926900E1,6.031636834E-1,-6.728395437E-1,5.370531629E-1,1.051163917E0
1.253925500E1,6.406349802E-1,-7.742191534E-1,3.101618998E-1,1.051679076E0
1.254924100E1,6.988527828E-1,-8.884867573E-1,8.033211842E-2,1.133250713E0
1.255922700E1,8.988831067E-1,-8.800832851E-1,-2.624288857E-2,1.258263135E0
1.256921200E1,1.187222174E0,-8.430854666E-1,-7.449630484E-2,1.458025821E0
1.257919800E1,1.312855450E0,-8.140367916E-1,-7.260867745E-2,1.546453152E0
1.258918400E1,1.399152167E0,-7.072299425E-1,1.287407783E-1,1.573014674E0
1.259917000E1,1.564527213E0,-4.763730977E-1,5.429320997E-1,1.723209794E0
1.260915600E1,1.423497634E0,-6.072890402E-1,9.724097970E-1,1.827765386E0
1.261914200E1,1.033138102E0,-9.554881011E-1,1.402933561E0,1.987096984E0
1.262912800E1,8.053668326E-1,-1.369673575E0,1.898102972E0,2.475361859E0
1.263911400E1,6.884488320E-1,-1.386132026E0,2.371217855E0,2.831606947E0
1.264910000E1,4.060581368E-1,-1.366059265E0,2.590902425E0,2.956987741E0
1.265908600E1,1.352554536E-1,-1.310587607E0,2.603744665E0,2.918119291E0
1.266907200E1,6.311075270E-2,-1.129975594E0,2.450706659E0,2.699405664E0
1.267905800E1,4.665025592E-2,-7.832418457E-1,2.338495082E0,2.466617782E0
1.268904400E1,7.277269185E-2,-5.527802727E-1,2.471511345E0,2.533619984E0
1.269903000E1,1.230107993E-1,-4.295177507E-1,2.847219801E0,2.882061372E0
1.270901600E1,2.423004305E-1,-3.646203813E-1,3.569197152E0,3.595945749E0
1.271900200E1,3.363359374E-1,-7.114944631E-1,4.063799091E0,4.139300579E0
1.272898800E1,3.577560425E-1,-1.143609839E0,4.321082427E0,4.484148324E0
1.273897400E1,3.708590680E-1,-1.389816502E0,4.551689011E0,4.773573002E0
1.274896000E1,1.968324816E-1,-1.478826620E0,4.413861367E0,4.659167669E0
1.275894500E1,1.844679594E-2,-1.267102157E0,4.073083885E0,4.265665305E0
1.276893063E1,3.359810114E-3,-8.686863309E-1,3.955136774E0,4.049411579E0
1.277891663E1,-3.287240320E-1,-6.317825881E-1,3.864935871E0,3.930004837E0
1.278890263E1,-1.015156744E0,-7.524410525E-1,3.467788891E0,3.690836023E0
1.279888863E1,-1.868444433E0,-9.655483818E-1,3.200592771E0,3.829773147E0
1.280887463E1,-2.909288580E0,-1.205417832E0,3.075309159E0,4.401649533E0
1.281886063E1,-3.993262374E0,-1.542483795E0,3.163687484E0,5.322999074E0
1.282884663E1,-4.752391180E0,-1.855259546E0,3.231253231E0,6.038891235E0
1.283883263E1,-5.106040138E0,-2.027939519E0,3.093502185E0,6.305072589E0
1.284881863E1,-5.349424058E0,-2.046624296E0,3.047921970E0,6.488053413E0
1.285880463E1,-5.698552533E0,-2.210362122E0,2.833037964E0,6.736861717E0
1.286879063E1,-6.227002249E0,-2.403012675E0,2.262740310E0,7.047696123E0
1.287877663E1,-6.846853302E0,-2.552841729E0,1.463612165E0,7.452419848E0
1.288876263E1,-7.428495723E0,-2.581698323E0,5.153168696E-1,7.881197017E0
1.289874863E1,-7.718839801E0,-2.545901084E0,-4.124687317E-1,8.138318663E0
1.290873463E1,-7.685847471E0,-2.537963489E0,-1.370154947E0,8.209192080E0
1.291872063E1,-7.244487355E0,-2.495961769E0,-2.287555601E0,7.996582571E0
1.292870663E1,-6.541750267E0,-2.562105473E0,-3.033211545E0,7.652401798E0
1.293869263E1,-5.749971194E0,-2.791841991E0,-3.526659243E0,7.300265464E0
1.294867763E1,-4.897248931E0,-2.951128039E0,-3.810910815E0,6.871335025E0
1.295866363E1,-4.259545745E0,-2.796199921E0,-3.890069251E0,6.410546211E0
1.296864963E1,-3.764378965E0,-2.805268075E0,-3.902690466E0,6.105003754E0
1.297863563E1,-3.219659371E0,-3.089120867E0,-3.856416478E0,5.897526791E0
1.298862163E1,-2.827134030E0,-3.090448769E0,-3.416597688E0,5.405247467E0
1.299860763E1,-2.202414587E0,-3.359283572E0,-3.183636138E0,5.125519992E0
1.300859363E1,-1.309861091E0,-3.553958431E0,-3.268517536E0,5.002955476E0
1.301857963E1,-5.157688594E-1,-3.142818187E0,-3.152814587E0,4.481468899E0
1.302856563E1,2.497813582E-1,-3.024221158E0,-3.229287981E0,4.431320933E0
1.303855163E1,8.020713419E-1,-3.043502937E0,-3.446147761E0,4.667136484E0
1.304853762E1,1.075690629E0,-2.812233278E0,-3.619840472E0,4.708397963E0
1.305852363E1,1.284599365E0,-2.748868464E0,-3.653105282E0,4.748857922E0
1.306850963E1,1.488741451E0,-2.752586709E0,-3.520164741E0,4.710057802E0
1.307849562E1,1.634716605E0,-2.484960233E0,-3.253514165E0,4.408251372E0
1.308848163E1,1.593166291E0,-2.142361928E0,-2.946474532E0,3.976129478E0
1.309846763E1,1.409605819E0,-2.132366112E0,-2.783400366E0,3.779059592E0
1.310845363E1,1.226139488E0,-2.057973157E0,-2.662196941E0,3.581335520E0
1.311843963E1,1.428768314E0,-2.303480201E0,-2.618736633E0,3.768976185E0
1.312842463E1,1.871293781E0,-2.415248266E0,-2.527245542E0,3.965114706E0
1.313841063E1,2.227799104E0,-2.029560075E0,-2.212536117E0,3.738652031E0
1.314839663E1,2.638030983E0,-2.038863579E0,-2.225713402E0,4.008736997E0
1.315838263E1,2.715898354E0,-1.935931534E0,-2.622579131E0,4.242859422E0
1.316836863E1,2.419839792E0,-1.817336552E0,-3.031777807E0,4.283691566E0
1.317835463E1,2.022917345E0,-1.985689293E0,-3.480396073E0,4.488687266E0
1.318834063E1,1.739484091E0,-2.213530728E0,-3.785252355E0,4.717378359E0
1.319832663E1,1.576377180E0,-2.236988588E0,-3.610153974E0,4.530153935E0
1.320831263E1,1.565383245E0,-2.216425100E0,-3.106976509E0,4.125077933E0
1.321829863E1,1.506646210E0,-2.380010313E0,-2.417817825E0,3.712179270E0
1.322828463E1,1.344488887E0,-2.453375328E0,-1.607966178E0,3.226802767E0
1.323827063E1,1.125060425E0,-2.503868959E0,-9.066388535E-1,2.890867471E0
1.324825663E1,1.276266498E0,-2.913349471E0,-3.341449857E-2,3.180814022E0
1.325824263E1,1.702222710E0,-3.229651093E0,9.528528341E-1,3.773080553E0
1.326822863E1,2.111583354E0,-3.317770972E0,1.416099737E0,4.179919491E0
1.327821463E1,2.267466030E0,-3.563427120E0,1.238832039E0,4.401604237E0
1.328820063E1,2.324439545E0,-3.632216104E0,1.045615329E0,4.437265424E0
1.329818663E1,2.383008766E0,-3.618609633E0,9.705920438E-1,4.440170646E0
1.330817263E1,2.393788108E0,-3.709798130E0,1.071170146E0,4.543151897E0
1.331815763E1,2.451279101E0,-3.846699575E0,1.479874148E0,4.795403461E0
1.332814363E1,2.423884311E0,-4.122094077E0,1.873189448E0,5.135729105E0
1.333812963E1,2.573977659E0,-4.598364410E0,2.465753299E0,5.818097246E0
1.334811563E1,2.380514928E0,-4.672380804E0,3.470247645E0,6.288132666E0
1.335810163E1,1.685724791E0,-4.636804590E0,4.361556269E0,6.585195363E0
1.336808763E1,7.567542511E-1,-4.857146679E0,4.781287242E0,6.857496523E0
1.337807363E1,2.784268677E-2,-4.777991752E0,5.216595199E0,7.074096823E0
1.338805963E1,-5.342092234E-1,-4.607089333E0,5.556862219E0,7.238050106E0
1.339804563E1,-9.132964933E-1,-4.370015728E0,5.535127534E0,7.111173234E0
1.340803163E1,-1.268144715E0,-3.937813813E0,5.241895516E0,6.677726952E0
1.341801763E1,-1.377695809E0,-3.628385885E0,4.667054576E0,6.069977618E0
1.342800363E1,-1.771740841E0,-3.073036638E0,4.583171589E0,5.795522548E0
1.343798963E1,-2.667495103E0,-2.294672832E0,5.071300660E0,6.172450398E0
1.344797563E1,-3.429107221E0,-1.674553393E0,5.329628309E0,6.554986141E0
1.345796163E1,-3.938489166E0,-1.190347657E0,5.251648672E0,6.671464474E0
1.346794763E1,-4.073485004E0,-1.017619445E0,4.786112072E0,6.366765127E0
1.347793363E1,-3.574433334E0,-9.661377811E-1,4.241850901E0,5.630567905E0
1.348791963E1,-2.481036751E0,-8.264692877E-1,3.899533846E0,4.695205966E0
1.349790463E1,-1.138673328E0,-7.784051751E-1,3.614103184E0,3.868363140E0
1.350789063E1,7.512034893E-2,-6.913559215E-1,3.428532439E0,3.498349720E0
1.351787663E1,8.435666925E-1,-4.115426789E-1,3.274520288E0,3.406384484E0
1.352786263E1,9.882121897E-1,-1.100361201E-1,2.884629117E0,3.051189346E0
1.353784863E1,7.901278192E-1,-1.594082549E-2,2.366991488E0,2.495436792E0
1.354783463E1,2.504011631E-1,-2.388894573E-2,1.902389274E0,1.918946683E0
1.355782063E1,-4.682508767E-1,-1.330647942E-1,1.403358654E0,1.485389051E0
1.356780663E1,-1.101068130E0,-3.596459357E-1,9.398715037E-1,1.491661714E0
1.357779263E1,-1.505917062E0,-5.455157650E-1,6.168250450E-1,1.716346930E0
1.358777863E1,-1.633185804E0,-6.014970808E-1,5.159290366E-1,1.815289888E0
1.359776463E1,-1.449211349E0,-4.601629349E-1,4.631970916E-1,1.589501497E0
1.360775063E1,-1.146429074E0,-2.998661225E-1,4.753762937E-1,1.276793615E0
1.361773663E1,-8.428790599E-1,-5.862478347E-1,3.606795772E-1,1.088219367E0
1.362772263E1,-5.310330158E-1,-7.725858799E-1,4.519144870E-2,9.385772599E-1
1.363770862E1,-1.814864641E-1,-6.520741075E-1,-1.779658921E-1,6.998641561E-1
1.364769463E1,7.365679085E-2,-2.869074500E-1,-3.661475278E-2,2.984658236E-1
1.365768063E1,2.091397011E-1,-8.787758477E-2,2.222818665E-1,3.176021295E-1
1.366766662E1,1.910665423E-1,-2.506804407E-1,3.641048761E-1,4.815801779E-1
1.367765263E1,6.442579150E-2,-6.299265356E-1,4.771075811E-1,7.928365323E-1
1.368763763E1,-6.899948359E-2,-8.950414860E-1,5.916638913E-1,1.075140154E0
1.369762363E1,-1.010621059E-1,-9.672635163E-1,7.509386104E-1,1.228707067E0
1.370760963E1,-9.755962372E-2,-9.008205816E-1,9.756131210E-1,1.331471578E0
1.371759563E1,-1.483754361E-1,-7.876016758E-1,9.022481062E-1,1.206807074E0
1.372758163E1,-3.316529024E-1,-7.489302380E-1,5.308564299E-1,9.760628557E-1
1.373756763E1,-3.683354098E-1,-6.336384943E-1,1.190129849E-1,7.425178827E-1
1.374755363E1,-3.439016497E-1,-4.275197572E-1,-7.816894099E-2,5.542128389E-1
1.375753963E1,-3.613362926E-1,-3.152062927E-1,-1.348877368E-1,4.981100530E-1
1.376752525E1,-3.513357997E-1,-3.158714135E-1,-2.402790481E-1,5.300430312E-1
1.377751125E1,-1.460342109E-1,-2.985392430E-1,-4.446257865E-1,5.551069811E-1
1.378749725E1,1.516206408E-1,-3.427661935E-1,-5.760172538E-1,6.872214773E-1
1.379748325E1,4.978886586E-1,-4.106920552E-1,-6.532038626E-1,9.182790245E-1
1.380746925E1,8.963652956E-1,-4.577705831E-1,-8.416113836E-1,1.311996330E0
1.381745525E1,1.165523157E0,-4.565605384E-1,-1.030570443E0,1.621409015E0
1.382744125E1,1.338597232E0,-3.524003584E-1,-9.873584962E-1,1.700266262E0
1.383742725E1,1.416337134E0,-3.021491313E-1,-8.513493365E-1,1.679910910E0
1.384741325E1,1.254516610E0,-3.771838916E-1,-6.223209161E-1,1.450297533E0
1.385739925E1,1.012064152E0,-5.053646162E-1,-4.160738325E-1,1.205315177E0
1.386738525E1,9.570763510E-1,-5.309122343E-1,-2.467467995E-1,1.121938913E0
1.387737025E1,8.686325365E-1,-6.866599495E-1,-1.976031446E-1,1.124753916E0
1.388735625E1,6.855784339E-1,-1.007094018E0,-3.471696585E-1,1.266800270E0
1.389734225E1,5.942946267E-1,-1.284310220E0,-2.940697776E-1,1.445377418E0
1.390732825E1,4.472412461E-1,-1.553425836E0,-5.895689070E-2,1.617600839E0
1.391731425E1,4.312169516E-1,-1.685672458E0,1.672385538E-1,1.747972663E0
1.392730025E1,3.446910238E-1,-1.956738266E0,5.717638430E-1,2.067498594E0
1.393728625E1,1.583051777E-1,-2.198756422E0,1.203838792E0,2.511736087E0
1.394727225E1,1.135359710E-1,-2.144355828E0,2.112283558E0,3.012124527E0
1.395725825E1,1.735851216E-1,-1.948613852E0,3.031067663E0,3.607575213E0
1.396724425E1,2.285863709E-1,-2.020771417E0,3.731355353E0,4.249562521E0
1.397723025E1,1.719116485E-1,-2.122867895E0,4.486387014E0,4.966265212E0
1.398721625E1,1.965377820E-1,-2.264744882E0,5.178346222E0,5.655348449E0
1.399720225E1,4.882699889E-1,-2.429847887E0,5.781726252E0,6.290542647E0
1.400718825E1,6.493941092E-1,-2.314642243E0,6.341867293E0,6.782223985E0
1.401717425E1,4.871274430E-1,-2.247618241E0,6.628853315E0,7.016464720E0
1.402716025E1,2.361848277E-1,-2.384606371E0,6.342827990E0,6.780383303E0
1.403714625E1,4.212509573E-2,-2.351101533E0,5.622735196E0,6.094637317E0
1.404713225E1,-1.565194380E-1,-2.378055297E0,4.614906768E0,5.193939719E0
1.405711825E1,-4.030251861E-1,-2.551167379E0,3.633535820E0,4.457966672E0
1.406710325E1,-5.654912424E-1,-2.723407641E0,2.900638794E0,4.018760373E0
1.407708925E1,-7.419052470E-1,-2.836276152E0,2.354198949E0,3.759938630E0
1.408707525E1,-1.084559686E0,-2.803486429E0,1.948451300E0,3.582215562E0
1.409706125E1,-1.444521883E0,-2.611665888E0,1.711164272E0,3.440279835E0
1.410704725E1,-1.754361747E0,-2.272019549E0,1.591265945E0,3.282070274E0
1.411703325E1,-2.212844850E0,-2.047721234E0,1.528622385E0,3.380315219E0
1.412701925E1,-2.637205941E0,-1.908433833E0,1.444858682E0,3.561543413E0
1.413700525E1,-2.804429877E0,-1.794287705E0,1.029478329E0,3.484841594E0
1.414699125E1,-2.799970205E0,-1.647733676E0,3.095217758E-1,3.263535376E0
1.415697725E1,-2.686117900E0,-1.442493483E0,-6.012148064E-1,3.107647996E0
1.416696325E1,-2.539585506E0,-1.222482054E0,-1.347743447E0,3.124158977E0
1.417694925E1,-2.324874578E0,-1.027988459E0,-1.631847376E0,3.020716461E0
1.418693525E1,-2.258629425E0,-9.277695215E-1,-1.401647174E0,2.815453421E0
1.419692125E1,-2.593440701E0,-9.529265821E-1,-8.719981939E-1,2.897306437E0
1.420690725E1,-3.113775651E0,-1.075380142E0,-5.270200717E-1,3.336134202E0
1.421689325E1,-3.606992385E0,-1.318221440E0,-3.805905890E-1,3.859138638E0
1.422687925E1,-4.152284421E0,-1.621279703E0,-4.328687900E-1,4.478547664E0
1.423686525E1,-4.528908259E0,-1.909566731E0,-6.773929167E-1,4.961483274E0
1.424685125E1,-4.741083834E0,-2.162750584E0,-1.079411212E0,5.321700346E0
1.425683625E1,-4.998113401E0,-2.386805947E0,-1.584654499E0,5.760999052E0
1.426682225E1,-5.110296326E0,-2.488249292E0,-2.152289915E0,6.077735183E0
1.427680825E1,-4.881542725E0,-2.470895925E0,-2.495781090E0,6.013626967E0
1.428679425E1,-4.205244407E0,-2.484124958E0,-2.673548141E0,5.568017330E0
1.429678025E1,-3.209288165E0,-2.403093951E0,-2.828521575E0,4.906620564E0
1.430676625E1,-2.137342093E0,-2.185225234E0,-2.820212097E0,4.158970644E0
1.431675225E1,-1.309520198E0,-2.029795133E0,-2.577790629E0,3.532692451E0
1.432673825E1,-7.331893873E-1,-1.882597910E0,-2.068427394E0,2.891389537E0
1.433672425E1,-3.975457603E-1,-1.730150473E0,-1.541849957E0,2.351332512E0
1.434671025E1,-2.251511317E-1,-1.785888180E0,-1.196703435E0,2.161524631E0
1.435669625E1,-1.475287592E-1,-1.838677573E0,-1.142588623E0,2.169794625E0
1.436668225E1,1.239200413E-2,-1.916057725E0,-1.251236907E0,2.288454623E0
1.437666825E1,3.416791230E-1,-1.998617633E0,-1.406642742E0,2.467764346E0
1.438665425E1,7.797250378E-1,-2.000729793E0,-1.562580090E0,2.655663265E0
1.439664025E1,1.394101927E0,-1.900187797E0,-1.782715480E0,2.955047940E0
1.440662625E1,2.189774660E0,-1.853366949E0,-2.178368497E0,3.602134286E0
1.441661225E1,2.865998719E0,-1.762690667E0,-2.610276882E0,4.258470669E0
1.442659825E1,3.267454512E0,-1.544733803E0,-2.974363412E0,4.680737038E0
1.443658325E1,3.334618555E0,-1.316948209E0,-3.365014721E0,4.917047647E0
1.444656925E1,3.145331905E0,-1.245077596E0,-3.641226663E0,4.970096842E0
1.445655525E1,2.721234523E0,-1.348909966E0,-3.687976029E0,4.777639859E0
1.446654125E1,2.273095729E0,-1.623457937E0,-3.489397861E0,4.469728997E0
1.447652725E1,2.011427566E0,-1.800666286E0,-3.036439208E0,4.063028795E0
1.448651325E1,1.790551334E0,-1.795019776E0,-2.512115580E0,3.569158831E0
1.449649925E1,1.551373901E0,-1.824655950E0,-2.157613513E0,3.223573543E0
1.450648525E1,1.275658972E0,-1.937689207E0,-1.971346657E0,3.044364124E0
1.451647125E1,9.299049246E-1,-2.004968147E0,-1.796298562E0,2.848035984E0
1.452645725E1,7.540434819E-1,-2.037656422E0,-1.565280334E0,2.677821464E0
1.453644325E1,4.806107211E-1,-2.021671304E0,-1.375675742E0,2.492112612E0
1.454642925E1,1.209309447E-1,-2.068147312E0,-1.303363372E0,2.447573018E0
1.455641525E1,-1.986918962E-1,-2.167178973E0,-1.265155180E0,2.517292355E0
1.456640125E1,-4.488094693E-1,-2.213656736E0,-1.383787000E0,2.648881376E0
1.457638725E1,-6.563745153E-1,-2.166877549E0,-1.606523670E0,2.776167163E0
1.458637325E1,-7.527962708E-1,-2.354669943E0,-1.768752329E0,3.039680504E0
1.459635925E1,-4.314654583E-1,-2.864985689E0,-1.690780878E0,3.354555919E0
1.460634525E1,4.244523078E-1,-3.300125830E0,-1.076274766E0,3.497049846E0
1.461633025E1,1.571710517E0,-3.494836649E0,1.348956306E-2,3.832015021E0
1.462631625E1,2.714394450E0,-3.532414657E0,1.293797035E0,4.638943987E0
1.463630225E1,3.590005639E0,-3.380156378E0,2.501754606E0,5.529229036E0
1.464628825E1,4.001344396E0,-3.158650400E0,3.384094770E0,6.118817430E0
1.465627425E1,4.085109268E0,-2.988406670E0,3.980334181E0,6.439080086E0
1.466626025E1,4.143356307E0,-2.830242118E0,4.413162625E0,6.682340629E0
1.467624625E1,3.873201495E0,-2.612930641E0,4.685016053E0,6.616530191E0
1.468623225E1,3.367485169E0,-2.552489434E0,4.998710986E0,6.545400691E0
1.469621825E1,2.880988056E0,-2.678489915E0,5.075046387E0,6.421097743E0
1.470620425E1,2.313143309E0,-2.729277368E0,5.081346177E0,6.214472294E0
1.471619025E1,1.693215659E0,-2.601829702E0,5.060799061E0,5.937018124E0
1.472617625E1,1.068767526E0,-2.546449553E0,4.979790566E0,5.694293936E0
1.473616225E1,3.228247762E-1,-2.473596169E0,4.949111395E0,5.542255628E0
1.474614825E1,-4.093606442E-1,-2.476449611E0,4.780822681E0,5.399689280E0
1.475613425E1,-9.570909691E-1,-2.668176596E0,4.421471518E0,5.252104327E0
1.476612063E1,-1.297266773E0,-2.741237263E0,4.047597041E0,5.057699538E0
1.477610663E1,-1.507469498E0,-2.568657278E0,3.605548707E0,4.676584863E0
1.478609262E1,-1.600164238E0,-2.327545879E0,3.189895874E0,4.260684346E0
1.479607863E1,-1.754709072E0,-1.998197510E0,2.994241022E0,4.004656853E0
1.480606363E1,-1.921603809E0,-1.605082477E0,2.909157017E0,3.838234687E0
1.481604963E1,-1.981913161E0,-1.219877266E0,2.912296972E0,3.727942325E0
1.482603563E1,-1.899408363E0,-1.025976140E0,3.008184292E0,3.702641207E0
1.483602163E1,-1.760044071E0,-8.751189990E-1,3.004087733E0,3.590004388E0
1.484600763E1,-1.701328670E0,-6.793705912E-1,2.926954772E0,3.452988254E0
1.485599363E1,-1.639898407E0,-6.076489364E-1,2.823515189E0,3.321256093E0
1.486597963E1,-1.455373730E0,-6.644387028E-1,2.665774852E0,3.109010622E0
1.487596563E1,-1.240030133E0,-6.798642424E-1,2.520594919E0,2.890205679E0
1.488595163E1,-1.057975904E0,-6.055902779E-1,2.464578009E0,2.749581306E0
1.489593763E1,-8.802532929E-1,-5.573554265E-1,2.396301241E0,2.612996473E0
1.490592363E1,-6.468926704E-1,-5.362325062E-1,2.284144628E0,2.433789660E0
1.491590963E1,-3.913097048E-1,-3.456257012E-1,2.184777630E0,2.246293325E0
1.492589563E1,-2.663973910E-1,-1.700183201E-1,2.005485626E0,2.030233089E0
1.493588163E1,-3.133575493E-1,-9.942210808E-2,1.774891906E0,1.805081435E0
1.494586763E1,-3.424743444E-1,-4.121629223E-2,1.462021430E0,1.502163147E0
1.495585363E1,-3.805929279E-1,-1.257804792E-1,1.135138101E0,1.203831472E0
1.496583963E1,-3.698287886E-1,-2.373542708E-1,9.509538046E-1,1.047579840E0
1.497582563E1,-3.590067619E-1,-4.229526432E-1,8.081717420E-1,9.802634125E-1
1.498581063E1,-2.279689050E-1,-7.605748218E-1,6.206725860E-1,1.007808682E0
1.499579663E1,2.348241806E-2,-9.455055884E-1,3.888864724E-1,1.022626486E0
1.500578263E1,1.633431387E-1,-9.201954769E-1,5.912755631E-2,9.364490186E-1
1.501576863E1,1.596278179E-1,-7.754558395E-1,-2.595398495E-1,8.331708905E-1
1.502575463E1,1.564258826E-1,-5.605418667E-1,-3.889340542E-1,6.999613843E-1
1.503574063E1,1.238305789E-1,-4.462796715E-1,-3.377451164E-1,5.732114105E-1
1.504572663E1,-3.767477989E-2,-4.074715550E-1,-2.135638507E-1,4.615863684E-1
1.505571263E1,-2.759131497E-1,-4.360062598E-1,-9.964883387E-2,5.255087200E-1
1.506569863E1,-5.173563784E-1,-4.680588687E-1,2.972563639E-2,6.982981744E-1
1.507568463E1,-6.487240183E-1,-5.622787090E-1,1.910386218E-1,8.794861873E-1
1.508567063E1,-5.268890941E-1,-6.975657376E-1,3.597378100E-1,9.453154858E-1
1.509565663E1,-2.457561350E-1,-7.856405197E-1,4.198632668E-1,9.240737346E-1
1.510564263E1,1.879184014E-1,-7.662323684E-1,3.733529055E-1,8.728217229E-1
1.511562863E1,7.520408106E-1,-7.964822077E-1,4.157955050E-1,1.171680498E0
1.512561463E1,1.018710097E0,-8.391553337E-1,4.934066217E-1,1.409042948E0
1.513560063E1,1.044440185E0,-8.626346089E-1,5.594341117E-1,1.465592131E0
1.514558663E1,9.649870491E-1,-8.696339453E-1,6.270773336E-1,1.442459423E0
1.515557263E1,8.286586314E-1,-9.116912133E-1,6.217677695E-1,1.380018534E0
1.516555863E1,5.665454954E-1,-9.300388990E-1,5.401596424E-1,1.215614491E0
1.517554363E1,2.579095727E-1,-8.790464276E-1,4.382736638E-1,1.015541124E0
1.518552963E1,-6.121450067E-3,-8.752977777E-1,3.249636877E-1,9.336943129E-1
1.519551563E1,-1.291550535E-1,-9.480437916E-1,2.020300716E-1,9.778978517E-1
1.520550163E1,-2.047303158E-1,-9.696449411E-1,1.388035440E-1,1.000695877E0
1.521548763E1,-1.696622247E-1,-8.452889898E-1,1.667392015E-1,8.781234014E-1
1.522547363E1,-7.717155218E-3,-7.949628818E-1,1.288831580E-1,8.053796660E-1
1.523545963E1,2.294599450E-1,-8.701649456E-1,2.093098551E-2,9.001538785E-1
1.524544563E1,4.823906136E-1,-8.438216311E-1,-1.086412668E-2,9.720358421E-1
1.525543163E1,7.339442629E-1,-7.500116806E-1,4.369039536E-3,1.049385911E0
1.526541763E1,8.830459231E-1,-5.758676748E-1,1.419464225E-1,1.063739850E0
1.527540363E1,9.169077337E-1,-4.080898981E-1,3.711306712E-1,1.070044453E0
1.528538963E1,8.892293537E-1,-2.556040887E-1,6.535880247E-1,1.132801659E0
1.529537563E1,8.481567568E-1,-2.761222790E-1,8.394599006E-1,1.224869920E0
1.530536163E1,7.642959899E-1,-4.531492728E-1,9.836744580E-1,1.325559528E0
1.531534763E1,7.262861645E-1,-6.486355792E-1,1.154748785E0,1.510517946E0
1.532533363E1,7.819206673E-1,-8.235788628E-1,1.238442029E0,1.680303762E0
1.533531963E1,7.271573997E-1,-9.692770050E-1,1.289324500E0,1.769353968E0
1.534530563E1,6.367249471E-1,-9.661070833E-1,1.550236618E0,1.934428889E0
1.535529163E1,5.700602567E-1,-9.089385635E-1,1.986652621E0,2.257858863E0
1.536527663E1,3.010702103E-1,-9.921625686E-1,2.339458119E0,2.558924407E0
1.537526263E1,-1.180599618E-1,-1.077656755E0,2.622164564E0,2.837433565E0
1.538524863E1,-5.204939944E-1,-1.100987438E0,3.135247797E0,3.363460433E0
1.539523463E1,-8.803199512E-1,-1.194484855E0,3.759164418E0,4.041419850E0
1.540522063E1,-1.126703492E0,-1.357836326E0,4.138317177E0,4.498760863E0
1.541520663E1,-1.217283880E0,-1.551853373E0,4.365380348E0,4.790258293E0
1.542519263E1,-1.326291767E0,-1.683816260E0,4.685027162E0,5.152064301E0
1.543517863E1,-1.436482546E0,-1.748905125E0,4.971897994E0,5.462775934E0
1.544516463E1,-1.560644662E0,-1.822136970E0,5.124511492E0,5.658304775E0
1.545515063E1,-1.790395798E0,-1.835404302E0,5.313419827E0,5.899716631E0
1.546513663E1,-2.005234196E0,-1.717099780E0,5.735951325E0,6.314311794E0
1.547512263E1,-2.263060153E0,-1.734106992E0,6.131111421E0,6.761589722E0
1.548510863E1,-2.543603713E0,-1.880320420E0,6.235159115E0,6.991618834E0
1.549509463E1,-2.773906242E0,-2.085545995E0,6.071453449E0,6.993325741E0
1.550508063E1,-2.951830582E0,-2.341429800E0,5.644856967E0,6.786752351E0
1.551506663E1,-3.146296695E0,-2.617002057E0,5.088034222E0,6.529622876E0
1.552505263E1,-3.449250294E0,-2.789091168E0,4.675832416E0,6.445135058E0
1.553503863E1,-3.757059420E0,-2.959774317E0,4.269955543E0,6.411573897E0
1.554502363E1,-3.957759250E0,-3.099416936E0,3.657839187E0,6.216914922E0
1.555500963E1,-4.119102641E0,-3.102722367E0,2.841256810E0,5.887837712E0
1.556499563E1,-4.225976295E0,-3.115802589E0,1.903738226E0,5.584919037E0
1.557498163E1,-4.379503713E0,-3.129032207E0,9.997902614E-1,5.474529741E0
1.558496763E1,-4.613554891E0,-3.192017244E0,9.630071819E-2,5.610983572E0
1.559495363E1,-5.027348894E0,-3.338303470E0,-9.218240726E-1,6.104774081E0
1.560493963E1,-5.501611294E0,-3.599054205E0,-1.969006017E0,6.862791173E0
1.561492563E1,-5.683529282E0,-3.874559804E0,-2.921630883E0,7.473328963E0
1.562491163E1,-5.268647697E0,-4.193331875E0,-3.598514799E0,7.634919091E0
1.563489763E1,-4.475605041E0,-4.263719487E0,-3.951706505E0,7.336642873E0
1.564488363E1,-3.502835932E0,-3.850992309E0,-4.117394962E0,6.637239080E0
1.565486963E1,-2.447518757E0,-3.111153760E0,-4.277316602E0,5.827955311E0
1.566485563E1,-1.328404366E0,-2.191263362E0,-4.542691608E0,5.215586287E0
1.567484163E1,-2.755652404E-1,-1.393716010E0,-4.955510588E0,5.155139737E0
1.568482763E1,3.791679615E-1,-1.006971519E0,-5.343162274E0,5.450425953E0
1.569481363E1,5.184135550E-1,-1.027564536E0,-5.493626336E0,5.612893354E0
1.570479963E1,1.485800886E-1,-1.370934381E0,-5.417755204E0,5.590492695E0
1.571478563E1,-4.568037826E-1,-1.898997450E0,-5.234110533E0,5.586660369E0
1.572477063E1,-1.100795649E0,-2.225751555E0,-4.836181195E0,5.436393069E0
1.573475663E1,-1.396146698E0,-2.493152767E0,-4.168135345E0,5.053552075E0
1.574474263E1,-1.095268861E0,-2.801406282E0,-3.228362660E0,4.412461501E0
1.575472863E1,-4.623177069E-1,-2.995132138E0,-2.525722927E0,3.945102089E0
1.576471442E1,7.816967189E-2,-2.749306713E0,-2.097853653E0,3.459159992E0
1.577470042E1,4.759154069E-1,-2.180329361E0,-1.555462421E0,2.720256410E0
1.578468642E1,7.058396208E-1,-1.737867482E0,-1.185755108E0,2.219100749E0
1.579467242E1,6.926290065E-1,-1.660671372E0,-1.213953305E0,2.170540710E0
1.580465842E1,4.763890314E-1,-1.643103266E0,-1.407705620E0,2.215484138E0
1.581464442E1,9.785081506E-2,-1.571188215E0,-1.593345946E0,2.239856802E0
1.582463042E1,-6.550518751E-2,-1.891096692E0,-1.814185341E0,2.621412993E0
1.583461642E1,5.890075743E-2,-2.204716635E0,-2.088293309E0,3.037303687E0
1.584460242E1,2.401153260E-1,-1.873614979E0,-2.318584144E0,2.990638877E0
1.585458842E1,3.757754070E-1,-1.471792419E0,-2.518013374E0,2.940709342E0
1.586457442E1,6.019790375E-1,-1.427695935E0,-2.739480175E0,3.147291863E0
1.587456042E1,8.124957579E-1,-1.484428252E0,-2.865833243E0,3.328164174E0
1.588454642E1,8.179868782E-1,-1.512351923E0,-2.617706646E0,3.131884250E0
1.589453242E1,7.263306034E-1,-1.688034149E0,-2.208576967E0,2.873121587E0
1.590451742E1,6.687612569E-1,-1.995664350E0,-2.058817495E0,2.944256663E0
1.591450342E1,6.784974557E-1,-2.314407770E0,-2.186783810E0,3.255589893E0
1.592448942E1,8.178997546E-1,-2.611898607E0,-2.484228746E0,3.696263898E0
1.593447542E1,1.206536697E0,-2.934139539E0,-2.864462070E0,4.274347738E0
1.594446142E1,1.872668461E0,-2.974632969E0,-2.970539918E0,4.602112110E0
1.595444742E1,2.841902343E0,-3.114260386E0,-2.543049982E0,4.923629747E0
1.596443342E1,3.777409485E0,-3.651679730E0,-2.069765822E0,5.646903384E0
1.597441942E1,4.288833863E0,-4.016446584E0,-1.778333577E0,6.139088644E0
1.598440542E1,4.870575103E0,-4.716545994E0,-1.812284704E0,7.018025633E0
1.599439142E1,5.270923433E0,-5.146767164E0,-1.922425489E0,7.613643402E0
1.600437742E1,5.255877378E0,-5.108233429E0,-1.952844898E0,7.584978508E0
1.601436342E1,5.091110442E0,-5.263013320E0,-1.574346588E0,7.489811875E0
1.602434942E1,5.267292897E0,-5.616596205E0,-5.041881564E-1,7.716523381E0
1.603433542E1,5.398099789E0,-5.966657311E0,1.124535345E0,8.124349854E0
1.604432142E1,5.225881162E0,-6.367880970E0,2.889267129E0,8.729696817E0
1.605430742E1,4.734558926E0,-6.630633792E0,4.508486566E0,9.311702520E0
1.606429342E1,3.903447388E0,-6.513697665E0,5.946158143E0,9.644789030E0
1.607427942E1,2.488431725E0,-6.048400801E0,7.227487160E0,9.747410700E0
1.608426542E1,6.181997985E-1,-5.709967468E0,8.072448413E0,9.907084478E0
1.609425042E1,-1.436003074E0,-5.380756947E0,8.376829902E0,1.005912170E1
1.610423642E1,-3.246292269E0,-5.096714998E0,8.196292441E0,1.018303133E1
1.611422242E1,-4.590650763E0,-4.765066774E0,7.622961252E0,1.009403160E1
1.612420842E1,-5.629897451E0,-4.589521373E0,7.112166034E0,1.016574431E1
1.613419442E1,-6.477751322E0,-4.317588131E0,6.583219889E0,1.019517599E1
1.614418042E1,-6.965607328E0,-3.848759549E0,5.817324686E0,9.857682386E0
1.615416642E1,-6.907771348E0,-3.226428985E0,5.068857694E0,9.155351840E0
1.616415242E1,-6.283510326E0,-2.503725702E0,4.518009049E0,8.134097994E0
1.617413842E1,-5.332678217E0,-1.815681059E0,4.245815313E0,7.054154970E0
1.618412442E1,-4.133252319E0,-1.354197896E0,3.991559665E0,5.903403699E0
1.619411042E1,-2.784003798E0,-1.172669624E0,3.773232819E0,4.833540845E0
1.620409642E1,-1.543124065E0,-8.257308575E-1,3.680708817E0,4.075620287E0
1.621408242E1,-3.151918209E-1,-4.073016203E-1,3.448065063E0,3.486315128E0
1.622406842E1,9.254037380E-1,-1.692418098E-1,3.011145907E0,3.154681369E0
1.623405442E1,1.792905423E0,2.142287156E-1,2.521161515E0,3.101073875E0
1.624404042E1,2.317661453E0,6.382265852E-1,1.878184724E0,3.050650036E0
1.625402642E1,2.554928015E0,9.151962537E-1,1.170876868E0,2.955705328E0
1.626401242E1,2.402950695E0,9.616580831E-1,4.891225129E-1,2.634046154E0
1.627399742E1,1.695719436E0,8.188372095E-1,-2.787375011E-2,1.883277921E0
1.628398342E1,7.643041760E-1,6.470561001E-1,-2.819498152E-1,1.040354828E0
1.629396942E1,-1.323546499E-1,2.577420134E-1,-3.816815333E-1,4.791967150E-1
1.630395542E1,-8.880295050E-1,-2.533826584E-1,-4.321783800E-1,1.019596648E0
1.631394142E1,-1.356497898E0,-6.920434809E-1,-3.684139086E-1,1.566760842E0
1.632392742E1,-1.453545306E0,-1.011048198E0,-2.912696922E-1,1.794394173E0
1.633391342E1,-1.380976682E0,-1.123994258E0,-1.124717778E-1,1.784127122E0
1.634389942E1,-1.227427045E0,-1.071841261E0,1.137557533E-1,1.633511925E0
1.635388542E1,-8.925482333E-1,-1.026626715E0,3.691627177E-1,1.409569393E0
1.636387142E1,-4.847546428E-1,-9.421118644E-1,6.524174852E-1,1.244271033E0
1.637385742E1,-1.238194692E-1,-7.530418539E-1,8.366505327E-1,1.132425454E0
